DeviceTag:,Xsens DOT 2,,,,,,,,,,,,,,,,,
FirmwareVersion:,1.3.0,,,,,,,,,,,,,,,,,
AppVersion:,2020.1.1,,,,,,,,,,,,,,,,,
Measurement Mode:,Sensor fusion Mode - Extended (Quaternion),,,,,,,,,,,,,,,,,
StartTime:,2020-08-03 15:37:19.058 +0200,,,,,,,,,,,,,,,,,
© Xsens Technologies B. V. 2005-2020,,,,,,,,,,,,,,,,,,,
PacketCounter,SampleTimeFine,Quat_W,Quat_X,Quat_Y,Quat_Z,FreeAcc_X,FreeAcc_Y,FreeAcc_Z,Status
1, 4108675886, 0.042207606, 0.41271216, -0.24295892, 0.8768468, 0.034933846, 0.10992662, 0.2566824, 0
2, 4108692553, 0.04179379, 0.41344118, -0.24331914, 0.8764231, 0.08979105, 0.16224328, 0.24639606, 0
3, 4108709220, 0.041583337, 0.41327202, -0.24404602, 0.87631094, 0.09543854, 0.034372743, 0.21266365, 0
4, 4108725887, 0.04208898, 0.41276503, -0.24438557, 0.8764311, 0.067848, -0.03668127, 0.1928463, 0
5, 4108742554, 0.042864297, 0.41244152, -0.2442894, 0.87657267, 0.06699773, -0.10967571, 0.15639019, 0
6, 4108759221, 0.0438959, 0.4122032, -0.24393392, 0.87673277, 0.035095613, -0.009170694, 0.16330051, 0
7, 4108775888, 0.04476512, 0.41219237, -0.24327767, 0.8768761, 0.09871438, 0.049923602, 0.19350147, 0
8, 4108792555, 0.045658216, 0.41217077, -0.24267724, 0.8770066, 0.05280819, -0.04539495, 0.08120155, 0
9, 4108809222, 0.046618465, 0.41219762, -0.24204569, 0.87711805, 0.049865797, -0.060592268, 0.091846466, 0
10, 4108825889, 0.047537766, 0.41235256, -0.2412836, 0.87720585, 0.03329368, -0.04938647, 0.117925644, 0
11, 4108842556, 0.048310578, 0.41262832, -0.24031803, 0.87729895, -0.045724045, -0.006505177, 0.09940243, 0
12, 4108859223, 0.048986904, 0.4130099, -0.23932771, 0.87735254, -0.1723459, -0.028160928, 0.10418701, 0
13, 4108875890, 0.04958277, 0.41347286, -0.23835087, 0.87736696, -0.17649443, -0.05807755, 0.057250023, 0
14, 4108892557, 0.050101742, 0.41397253, -0.2374443, 0.87734765, -0.13690041, -0.041900016, 0.029047966, 0
15, 4108909224, 0.05055968, 0.41447192, -0.23655124, 0.877327, -0.104180425, -0.006898364, 0.012158394, 0
16, 4108925891, 0.050960124, 0.41495278, -0.23561542, 0.87732834, -0.12558071, -0.013277982, 0.02689743, 0
17, 4108942558, 0.051290534, 0.41543043, -0.23462754, 0.87734795, -0.16375461, -0.07409435, 0.04041004, 0
18, 4108959225, 0.051701512, 0.41585112, -0.23387058, 0.87732637, -0.22190396, -0.11893122, 0.022574425, 0
19, 4108975892, 0.052109823, 0.4161935, -0.2334242, 0.87725884, -0.18225703, -0.12025064, 0.01952076, 0
20, 4108992559, 0.052596048, 0.4164431, -0.2332509, 0.8771574, -0.11541304, -0.04350132, 0.07823658, 0
21, 4109009226, 0.052943237, 0.41667035, -0.23304315, 0.8770838, -0.09750455, -0.029653436, 0.01877594, 0
22, 4109025893, 0.053225227, 0.41686556, -0.23271492, 0.8770611, -0.09792601, -0.052240174, -0.029889107, 0
23, 4109042560, 0.0534265, 0.4170564, -0.23238465, 0.87704575, -0.07679263, -0.06461908, -0.029524803, 0
24, 4109059227, 0.053538155, 0.41732028, -0.23217072, 0.87697023, -0.04928092, -0.05418619, -0.057718277, 0
25, 4109075894, 0.053752564, 0.41752973, -0.23213919, 0.8768655, -0.040922023, -0.033151217, -0.0019273758, 0
26, 4109092561, 0.054063216, 0.417633, -0.23216206, 0.8767911, -0.032039687, -0.0010565458, 0.109568596, 0
27, 4109109228, 0.054524463, 0.41764134, -0.23226999, 0.87672997, -0.07542164, -0.058173914, 0.073456764, 0
28, 4109125895, 0.05458062, 0.41767496, -0.23220252, 0.8767284, -0.060191453, -0.049759682, 0.13297081, 0
29, 4109142562, 0.05460451, 0.41761073, -0.23221402, 0.8767545, -0.034288563, -0.06831062, 0.13027668, 0
30, 4109159229, 0.054663897, 0.41756243, -0.23232576, 0.8767443, -0.06618495, -0.061040662, 0.07545757, 0
31, 4109175896, 0.054713085, 0.417527, -0.23270658, 0.8766571, -0.072782345, -0.003509349, 0.07297039, 0
32, 4109192563, 0.054755904, 0.41747418, -0.23290083, 0.8766279, -0.05015885, 0.035488326, 0.1678896, 0
33, 4109209230, 0.054874673, 0.4173481, -0.23304825, 0.87664145, -0.025466383, -0.008038644, 0.12446976, 0
34, 4109225897, 0.054721616, 0.41731545, -0.23316316, 0.876636, -0.009026543, -0.10270756, 0.11166954, 0
35, 4109242564, 0.054456852, 0.4173531, -0.2333575, 0.8765827, -0.012334158, -0.05645996, 0.13578033, 0
36, 4109259231, 0.055261876, 0.41710228, -0.23412906, 0.876446, -0.0502468, 0.027651543, 0.18275261, 0
37, 4109275898, 0.055908833, 0.41688964, -0.23469836, 0.876354, -0.027371537, 0.03374188, 0.13760471, 0
38, 4109292565, 0.0559089, 0.41689673, -0.23479669, 0.8763242, 0.012799372, 0.015174602, 0.1932602, 0
39, 4109309232, 0.05605544, 0.4168797, -0.23479606, 0.87632316, -0.030151619, 0.029385416, 0.17697525, 0
40, 4109325899, 0.05582586, 0.41698655, -0.23454805, 0.87635344, -0.06993944, -0.039246418, 0.15100193, 0
41, 4109342566, 0.055824347, 0.41706383, -0.23449701, 0.87633026, -0.032206092, -0.022446204, 0.08834362, 0
42, 4109359233, 0.055967174, 0.4171313, -0.23451287, 0.87628484, 0.015861792, 0.015301026, 0.1106987, 0
43, 4109375900, 0.055907123, 0.41725573, -0.23431705, 0.87628186, 0.023437457, 0.077486075, 0.11550522, 0
44, 4109392567, 0.05544837, 0.41748285, -0.23382688, 0.8763338, 0.03746556, 0.0470157, 0.08714867, 0
45, 4109409234, 0.055874445, 0.41745752, -0.23379278, 0.8763279, 0.045789592, 0.02473685, 0.11468506, 0
46, 4109425901, 0.05598329, 0.417473, -0.23370877, 0.876336, 0.015836228, 0.014224728, 0.1288042, 0
47, 4109442568, 0.056095578, 0.41742757, -0.23370433, 0.87635154, 0.036439665, 0.0846968, 0.1308403, 0
48, 4109459235, 0.055663764, 0.41748634, -0.23344088, 0.8764213, 0.064069316, 0.090142414, 0.14922905, 0
49, 4109475902, 0.05476121, 0.41762716, -0.23289323, 0.87655675, 0.028120445, 0.09642011, 0.149786, 0
50, 4109492569, 0.055149145, 0.4174095, -0.23292789, 0.8766269, 0.05389163, 0.07626039, 0.16498852, 0
51, 4109509236, 0.054701407, 0.41743094, -0.2326198, 0.87672657, 0.049537163, 0.09735107, 0.13967228, 0
52, 4109525903, 0.05367559, 0.41763097, -0.23203419, 0.8768499, 0.096378215, 0.07585577, 0.100634575, 0
53, 4109542570, 0.054312505, 0.41740668, -0.23225956, 0.8768578, 0.04822587, 0.09788979, 0.092656136, 0
54, 4109559237, 0.0546179, 0.41727415, -0.23234072, 0.87688035, 0.028171713, 0.08197773, 0.07416725, 0
55, 4109575904, 0.05435127, 0.41730317, -0.23213904, 0.87693655, -0.004878212, 0.05371117, 0.10890007, 0
56, 4109592571, 0.05407647, 0.41730076, -0.23205267, 0.8769775, -0.0035234164, 0.02797354, 0.12826252, 0
57, 4109609238, 0.053622536, 0.41733262, -0.23202297, 0.87699825, -0.009094337, 0.03286325, 0.118577, 0
58, 4109625905, 0.05364745, 0.41719595, -0.23219766, 0.8770154, 0.009888227, 0.056414027, 0.14331245, 0
59, 4109642572, 0.053301513, 0.4171097, -0.23205331, 0.87711567, 0.026141083, 0.095019825, 0.13764381, 0
60, 4109659239, 0.052669846, 0.41711882, -0.23167105, 0.8772506, -0.009073188, 0.07043737, 0.099983215, 0
61, 4109675906, 0.052209716, 0.41714117, -0.2314521, 0.87732536, -0.0021062882, 0.06738382, 0.10300732, 0
62, 4109692573, 0.052274104, 0.41713905, -0.23146631, 0.8773186, -0.012200943, 0.03439934, 0.08186531, 0
63, 4109709240, 0.052579634, 0.4170822, -0.23151071, 0.8773159, 0.004986937, 0.08864365, 0.124341965, 0
64, 4109725907, 0.05259468, 0.417157, -0.23121974, 0.877356, 0.04453409, 0.09361016, 0.10795975, 0
65, 4109742574, 0.05212755, 0.41743225, -0.23053132, 0.877434, 0.054816566, 0.03330413, 0.15833855, 0
66, 4109759241, 0.05235321, 0.41757232, -0.23011225, 0.87746406, 0.041613348, 0.092826106, 0.18075371, 0
67, 4109775908, 0.0523958, 0.41773787, -0.22952665, 0.87753594, 0.025013851, 0.047131952, 0.17752647, 0
68, 4109792575, 0.05252861, 0.4178734, -0.22914737, 0.87756264, 0.035779897, 0.08976085, 0.17533016, 0
69, 4109809242, 0.05254725, 0.41801473, -0.22876343, 0.8775944, 0.068189904, 0.10051011, 0.18325329, 0
70, 4109825909, 0.05291401, 0.41808733, -0.2285226, 0.8776005, 0.076875225, 0.17382397, 0.18813896, 0
71, 4109842576, 0.053218894, 0.4181748, -0.22810891, 0.877648, 0.08373794, 0.16177258, 0.1725359, 0
72, 4109859243, 0.05387813, 0.4181368, -0.22791195, 0.877677, 0.07888962, 0.091683984, 0.12003708, 0
73, 4109875910, 0.053549536, 0.4183206, -0.22735947, 0.87775284, 0.060558766, -0.0066545396, 0.1116333, 0
74, 4109892577, 0.053412072, 0.41840884, -0.22710782, 0.8777843, 0.069540665, 0.007886347, 0.147089, 0
75, 4109909244, 0.053064242, 0.41849548, -0.2267407, 0.87785923, 0.06041939, 0.05077544, 0.16317368, 0
76, 4109925911, 0.05308546, 0.41845077, -0.22646932, 0.87794924, 0.06431721, 0.0781061, 0.147789, 0
77, 4109942578, 0.052898206, 0.4184866, -0.22601567, 0.87806034, 0.04823224, 0.0273593, 0.12405014, 0
78, 4109959245, 0.05316825, 0.4184649, -0.22573732, 0.878126, 0.041170403, 0.038474485, 0.14019108, 0
79, 4109975912, 0.05287448, 0.41861418, -0.22511841, 0.87823135, 0.02055636, 0.0047445376, 0.124967575, 0
80, 4109992579, 0.053029478, 0.41861102, -0.22453718, 0.8783723, 0.06690482, -0.051469084, 0.11083698, 0
81, 4110009246, 0.053423543, 0.4185149, -0.22404285, 0.8785204, 0.0567592, -0.0019070684, 0.1184082, 0
82, 4110025913, 0.053528354, 0.41837883, -0.22362274, 0.878686, 0.05728475, 0.016586449, 0.14691925, 0
83, 4110042580, 0.053852897, 0.41809857, -0.22343837, 0.87884647, 0.061936084, 0.09836233, 0.07243252, 0
84, 4110059247, 0.054179907, 0.4177591, -0.22329648, 0.879024, 0.029365774, 0.05443641, 0.06519699, 0
85, 4110075914, 0.05400192, 0.41750368, -0.22311953, 0.87920094, 0.013199138, 0.016242882, 0.036769867, 0
86, 4110092581, 0.053536154, 0.4172724, -0.2231519, 0.87933105, -0.022578008, -0.005029572, 0.0047597885, 0
87, 4110109248, 0.05378685, 0.4168716, -0.22364527, 0.8793806, -0.015465587, 0.0647193, 0.015464783, 0
88, 4110125915, 0.053824864, 0.41656908, -0.22391102, 0.8794539, -0.025472024, 0.110304646, 0.00584507, 0
89, 4110142582, 0.053859144, 0.4163084, -0.22396515, 0.87956154, -0.060013786, 0.03771809, -0.0049619675, 0
90, 4110159249, 0.054194666, 0.41600204, -0.22410884, 0.8796492, -0.11301386, -0.0765051, 0.00838089, 0
91, 4110175916, 0.054077785, 0.41583866, -0.22413012, 0.8797282, -0.14199276, -0.062126767, 0.03904915, 0
92, 4110192583, 0.054441586, 0.4155762, -0.2244448, 0.87974966, -0.13965146, -0.02853154, 0.105044365, 0
93, 4110209250, 0.054738402, 0.41534552, -0.22458991, 0.8798031, -0.115693465, -0.029081605, 0.0952425, 0
94, 4110225917, 0.05498217, 0.4151264, -0.22466597, 0.879872, -0.11314421, -0.021265162, 0.07628441, 0
95, 4110242584, 0.05516158, 0.41494206, -0.22466576, 0.87994754, -0.096755795, -0.042721737, 0.093527794, 0
96, 4110259251, 0.055178773, 0.41483772, -0.22452432, 0.8800318, -0.08535597, -0.06634907, 0.08201122, 0
97, 4110275918, 0.05522138, 0.41478264, -0.22444084, 0.88007647, -0.10051044, -0.0666486, 0.08775711, 0
98, 4110292585, 0.05523061, 0.4147379, -0.22445004, 0.88009465, -0.06917504, -0.026973711, 0.118748665, 0
99, 4110309252, 0.055616833, 0.41462326, -0.2245843, 0.88009006, -0.03976498, 0.027696999, 0.13656235, 0
100, 4110325919, 0.055712964, 0.41459507, -0.22444196, 0.88013357, -0.010081594, 0.05470566, 0.16445065, 0
101, 4110342586, 0.055795856, 0.41457373, -0.22425689, 0.8801856, 0.0010854627, 0.010024444, 0.13064766, 0
102, 4110359253, 0.05590789, 0.41458195, -0.22426318, 0.88017285, 0.01375102, 0.0048028463, 0.12521076, 0
103, 4110375920, 0.055801217, 0.4146094, -0.22432275, 0.88015145, 0.022901138, 0.041474085, 0.11201763, 0
104, 4110392587, 0.055757858, 0.4145615, -0.22447199, 0.8801388, 0.06590584, 0.09590698, 0.16753483, 0
105, 4110409254, 0.055402562, 0.41454533, -0.22439797, 0.88018775, 0.08261993, 0.1400229, 0.19786072, 0
106, 4110425921, 0.05554926, 0.4143944, -0.22454971, 0.8802109, 0.08796041, 0.09425972, 0.1598959, 0
107, 4110442588, 0.055564318, 0.41424677, -0.22476412, 0.88022476, 0.084676415, 0.022963135, 0.08725548, 0
108, 4110459255, 0.055310942, 0.41416988, -0.2251027, 0.8801903, 0.10244669, 0.0041782116, 0.09673786, 0
109, 4110475922, 0.05524525, 0.41403204, -0.22555539, 0.8801434, 0.11394199, 0.08763063, 0.12985897, 0
110, 4110492589, 0.055031404, 0.41392744, -0.22574505, 0.8801573, 0.13659294, 0.16248098, 0.21692753, 0
111, 4110509256, 0.054862805, 0.4138045, -0.22564806, 0.8802506, 0.08842592, 0.13501157, 0.202672, 0
112, 4110525923, 0.054916, 0.41364586, -0.22558165, 0.88033885, 0.050970748, 0.08510708, 0.1744852, 0
113, 4110542590, 0.055017795, 0.41356513, -0.22557135, 0.880373, 0.04260284, 0.007315607, 0.14958858, 0
114, 4110559257, 0.054980677, 0.4135686, -0.22558467, 0.88037026, 0.089022376, 0.029686153, 0.18990612, 0
115, 4110575924, 0.05504252, 0.41359088, -0.22562656, 0.88034517, 0.112005904, 0.026996594, 0.20524502, 0
116, 4110592591, 0.05516127, 0.41362864, -0.2256283, 0.8803196, 0.089713156, 0.013110013, 0.15311623, 0
117, 4110609258, 0.05521909, 0.4136536, -0.22560708, 0.88030964, 0.07223504, 0.071272135, 0.14325237, 0
118, 4110625925, 0.0554683, 0.4135911, -0.22572352, 0.8802935, 0.086678885, 0.061674263, 0.10120773, 0
119, 4110642592, 0.055427104, 0.41361627, -0.22569364, 0.88029206, 0.04914952, 0.08970603, 0.16568375, 0
120, 4110659259, 0.055567674, 0.41361028, -0.22578563, 0.8802624, 0.013475861, 0.091141626, 0.16820145, 0
121, 4110675926, 0.055780746, 0.4135697, -0.22594272, 0.8802277, -0.0016036356, 0.06655554, 0.14722252, 0
122, 4110692593, 0.055874396, 0.41356027, -0.22613142, 0.88017774, 1.30797E-4, 0.058320537, 0.120651245, 0
123, 4110709260, 0.05597158, 0.41354594, -0.22629528, 0.88013613, 0.036272522, 0.08508736, 0.169034, 0
124, 4110725927, 0.05604054, 0.41352236, -0.22637312, 0.88012284, 0.033785954, 0.09490631, 0.19468594, 0
125, 4110742594, 0.05568118, 0.41357958, -0.22631456, 0.8801338, -0.049665906, -0.0076710205, 0.27524185, 0
126, 4110759261, 0.05523309, 0.41363207, -0.22681257, 0.88000923, -0.093326576, -0.40618864, 0.20041466, 0
127, 4110775928, 0.054358844, 0.41336924, -0.22789752, 0.87990683, -0.19783437, -0.45200056, 0.2114811, 0
128, 4110792595, 0.05378691, 0.41257086, -0.22925031, 0.87996536, -0.24439806, 0.03128888, 0.08163929, 0
129, 4110809262, 0.053447507, 0.4119482, -0.2300598, 0.88006634, -0.21308255, 0.42090484, 0.12961102, 0
130, 4110825929, 0.052921146, 0.41202816, -0.22972794, 0.8801474, -0.20620978, 0.3496768, -0.020266533, 0
131, 4110842596, 0.052318297, 0.41257924, -0.22882722, 0.8801599, -0.14782925, 0.100751005, -0.18449306, 0
132, 4110859263, 0.051774792, 0.41336703, -0.22773865, 0.88010484, -0.2773885, -0.17986014, -0.019042969, 0
133, 4110875930, 0.051410004, 0.4142362, -0.22744952, 0.8797922, -0.3433195, -0.103525445, 0.06739235, 0
134, 4110892597, 0.050913714, 0.41501746, -0.22740148, 0.8794654, -0.4317874, -0.023516133, 0.091361046, 0
135, 4110909264, 0.04997841, 0.41558233, -0.22733808, 0.87926847, -0.2923379, 0.2601888, 0.39110565, 0
136, 4110925931, 0.04814258, 0.41596922, -0.2262869, 0.8794592, -0.28470218, 0.24820077, 0.4200096, 0
137, 4110942598, 0.046830986, 0.41591096, -0.22553529, 0.87975067, -0.37076876, 0.0978602, 0.3651991, 0
138, 4110959265, 0.043660678, 0.41605765, -0.22412582, 0.8802044, -0.36215574, 0.11572476, 0.31300545, 0
139, 4110975932, 0.039812785, 0.41616616, -0.22262844, 0.8807153, -0.37110174, 0.2382923, 0.3502283, 0
140, 4110992599, 0.035865422, 0.4162514, -0.22102831, 0.8812477, -0.35244098, 0.31639063, 0.26488876, 0
141, 4111009266, 0.03116881, 0.4167419, -0.21909766, 0.8816763, -0.3930907, 0.4297529, 0.1587429, 0
142, 4111025933, 0.025911778, 0.4176311, -0.21657966, 0.882048, -0.3347199, 0.5564046, 0.12106991, 0
143, 4111042600, 0.018538514, 0.4194115, -0.2123723, 0.88241184, -0.40003625, 0.6444888, 0.044125557, 0
144, 4111059267, 0.009891872, 0.4218837, -0.20707187, 0.8826323, -0.45826638, 0.5943416, -0.09123993, 0
145, 4111075934, 6.4756256E-4, 0.42485768, -0.20095254, 0.88267547, -0.42381462, 0.73491186, -0.055000305, 0
146, 4111092601, -0.010323731, 0.42865175, -0.19312724, 0.8825278, -0.3431873, 0.76610965, -0.15777779, 0
147, 4111109268, -0.022486005, 0.43323237, -0.18384613, 0.88204706, -0.32135537, 0.8260824, -0.24489403, 0
148, 4111125935, -0.034844425, 0.43843818, -0.1741363, 0.8810431, -0.40401697, 0.9085494, -0.32662964, 0
149, 4111142602, -0.048851307, 0.4444901, -0.16352251, 0.8793775, -0.49597034, 0.8933052, -0.3315115, 0
150, 4111159269, -0.06436317, 0.45118624, -0.15221699, 0.8769952, -0.5105028, 0.8991726, -0.26106548, 0
151, 4111175936, -0.0806891, 0.45837435, -0.1407507, 0.8738271, -0.50095576, 0.93858385, -0.21270752, 0
152, 4111192603, -0.09736188, 0.46616468, -0.12966594, 0.86971277, -0.5682752, 0.75498956, -0.41878033, 0
153, 4111209270, -0.11423104, 0.4743631, -0.11891346, 0.86475027, -0.5274334, 0.748198, -0.3065157, 0
154, 4111225937, -0.13103133, 0.48283854, -0.108616866, 0.8590125, -0.67226076, 1.1276938, -0.16239452, 0
155, 4111242604, -0.14793044, 0.4912735, -0.09801069, 0.8527387, -0.76450765, 1.1473092, -0.18480968, 0
156, 4111259271, -0.16450152, 0.49970114, -0.08738714, 0.84593385, -0.8052604, 0.8687291, -0.19000816, 0
157, 4111275938, -0.18043719, 0.5081545, -0.077477075, 0.83858263, -0.7509312, 0.61789936, -0.2669258, 0
158, 4111292605, -0.19540152, 0.5166958, -0.06857393, 0.83074874, -0.6704504, 0.5605274, -0.3384905, 0
159, 4111309272, -0.20904735, 0.52544963, -0.061001725, 0.8224857, -0.77343214, 0.830948, -0.25083542, 0
160, 4111325939, -0.2216572, 0.5342281, -0.05420999, 0.8139606, -0.92912483, 1.1711209, -0.07031345, 0
161, 4111342606, -0.23341288, 0.5427146, -0.047824793, 0.8054155, -1.0118831, 1.336168, 0.008466721, 0
162, 4111359273, -0.24428412, 0.5506218, -0.042088903, 0.79710203, -1.0377867, 1.2441645, 0.14303493, 0
163, 4111375940, -0.25457662, 0.5578109, -0.036643088, 0.78911173, -0.7287876, 0.9357217, -0.088448524, 0
164, 4111392607, -0.2634495, 0.5649556, -0.032017764, 0.781279, -0.9510068, 0.40197307, -0.37537098, 0
165, 4111409274, -0.2708035, 0.5722942, -0.028756712, 0.7735116, -1.1308007, 0.5500245, -0.3095579, 0
166, 4111425941, -0.27741957, 0.57970667, -0.026014276, 0.76570493, -1.3959813, 1.0248923, 0.25551224, 0
167, 4111442608, -0.28438157, 0.58686715, -0.02278543, 0.7577579, -1.3325759, 1.1018883, 0.6212435, 0
168, 4111459275, -0.2917627, 0.59363174, -0.01954477, 0.7497308, -0.82864743, 0.6139082, 0.59299946, 0
169, 4111475942, -0.29880333, 0.60037905, -0.01737701, 0.74159414, -0.2847771, 0.35447937, 0.4314785, 0
170, 4111492609, -0.30518928, 0.60736567, -0.016142573, 0.7332859, 0.16798116, 0.29630274, 0.18168545, 0
171, 4111509276, -0.31042725, 0.61471206, -0.01543949, 0.724933, 0.16047378, 0.40559456, 0.13402176, 0
172, 4111525943, -0.3147875, 0.6222752, -0.0145587735, 0.7165702, 0.2539005, 0.7332724, 0.26718235, 0
173, 4111542610, -0.31893766, 0.6297248, -0.012523508, 0.7082167, 0.2935646, 0.92654467, 0.5019617, 0
174, 4111559277, -0.32335708, 0.63665813, -0.008893864, 0.70002127, 0.37749416, 0.87432224, 0.6420746, 0
175, 4111575944, -0.3282028, 0.6426944, -0.00353585, 0.6922548, 0.5585705, 0.7086351, 0.804863, 0
176, 4111592611, -0.33347294, 0.64772135, 0.0032927073, 0.68501407, 0.5486188, 0.58534044, 0.9558039, 0
177, 4111609278, -0.33927983, 0.651589, 0.011158969, 0.6783795, 0.49321693, 0.4728345, 1.0863132, 0
178, 4111625945, -0.3458235, 0.6543923, 0.02017048, 0.67214006, 0.5238371, 0.41201395, 1.08778, 0
179, 4111642612, -0.35314634, 0.6561515, 0.030642059, 0.6661955, 0.44931084, 0.04434117, 1.0204382, 0
180, 4111659279, -0.36071303, 0.65705705, 0.041998327, 0.6606063, 0.44797754, -0.40725872, 0.97611237, 0
181, 4111675946, -0.36861768, 0.6571318, 0.053918842, 0.6552816, 0.39736077, -0.69613355, 0.9965801, 0
182, 4111692613, -0.37677905, 0.656378, 0.06599075, 0.65027153, 0.23693, -0.91314965, 1.1359806, 0
183, 4111709280, -0.38511214, 0.6547421, 0.07817669, 0.64567167, 0.15515088, -0.9195853, 1.2783203, 0
184, 4111725947, -0.39346823, 0.65233916, 0.090473466, 0.641446, 0.098621294, -0.80457824, 1.3229294, 0
185, 4111742614, -0.4017264, 0.64931005, 0.10276036, 0.6375383, -0.0723852, -0.48158482, 1.3975515, 0
186, 4111759281, -0.40962228, 0.6457022, 0.114764445, 0.634121, -0.093604095, -0.27376872, 1.1983232, 0
187, 4111775948, -0.41715845, 0.64160836, 0.12593792, 0.6312364, -0.1737485, -0.062352292, 0.9682865, 0
188, 4111792615, -0.42474115, 0.63711435, 0.1361795, 0.62859976, -0.3895124, 0.21651097, 0.7976122, 0
189, 4111809282, -0.43280014, 0.6318703, 0.1459725, 0.6261936, -0.93041027, 0.43771413, 0.8955202, 0
190, 4111825949, -0.44121218, 0.62583023, 0.15573005, 0.62403446, -1.3004205, 0.5473441, 0.7859392, 0
191, 4111842616, -0.45000795, 0.61906326, 0.16547987, 0.62199044, -1.5538902, 0.53735936, 0.61698437, 0
192, 4111859283, -0.4587891, 0.61196727, 0.17496613, 0.6199982, -1.8078722, 0.59890294, 0.5501833, 0
193, 4111875950, -0.46744758, 0.60474414, 0.184062, 0.6179813, -2.2163117, 0.77681863, 0.550663, 0
194, 4111892617, -0.4761735, 0.5970516, 0.19275205, 0.61614716, -2.637067, 0.78663886, 0.6907215, 0
195, 4111909284, -0.4852056, 0.5886737, 0.2012335, 0.6144479, -3.0419965, 0.8269374, 0.5570545, 0
196, 4111925951, -0.4945263, 0.5797987, 0.20966393, 0.61263436, -3.302296, 0.7310179, 0.45638847, 0
197, 4111942618, -0.5038317, 0.5708093, 0.21824057, 0.6104947, -3.6818511, 0.772988, 0.35617256, 0
198, 4111959285, -0.51310325, 0.5615925, 0.22735772, 0.60798836, -3.9012327, 0.53474313, 0.3301401, 0
199, 4111975952, -0.52257985, 0.5522015, 0.23655099, 0.6050041, -3.7931435, 0.32825762, -9.937286E-4, 0
200, 4111992619, -0.53259206, 0.54279983, 0.24544829, 0.60122496, -3.6294427, 0.08979275, -0.34165192, 0
201, 4112009286, -0.5429832, 0.5338598, 0.25395638, 0.5963821, -3.4337757, -0.06107067, -0.62763023, 0
202, 4112025953, -0.5536682, 0.5256102, 0.26186612, 0.59043545, -3.4652832, -0.14772016, -0.78126526, 0
203, 4112042620, -0.56486714, 0.5176144, 0.26947933, 0.58342403, -3.3819034, -0.23951201, -0.94906235, 0
204, 4112059287, -0.5765979, 0.5098288, 0.27666017, 0.57538754, -3.099075, -0.31569663, -1.2770243, 0
205, 4112075954, -0.58886856, 0.50243205, 0.2833909, 0.5661164, -2.8087435, -0.3150585, -1.4920235, 0
206, 4112092621, -0.6016261, 0.49555597, 0.28971532, 0.5554616, -2.573159, -0.3793605, -1.4516163, 0
207, 4112109288, -0.6147846, 0.489085, 0.29566205, 0.54352736, -2.2646515, -0.41898108, -1.2331362, 0
208, 4112125955, -0.6281105, 0.48318794, 0.30120248, 0.5303639, -2.1181715, -0.4861637, -0.93311214, 0
209, 4112142622, -0.64150184, 0.47781143, 0.30638123, 0.51604676, -2.0249205, -0.649853, -0.48148632, 0
210, 4112159289, -0.65499836, 0.47268608, 0.3112346, 0.50067985, -1.7515544, -0.71842515, -0.13469028, 0
211, 4112175956, -0.66850924, 0.4676465, 0.31581742, 0.48442096, -1.5268013, -0.87081385, 0.39660168, 0
212, 4112192623, -0.68196, 0.46238914, 0.32006243, 0.46764207, -1.1756104, -1.0850774, 0.7233305, 0
213, 4112209290, -0.69552743, 0.45653483, 0.32379988, 0.450526, -0.6346702, -1.1638069, 0.72515106, 0
214, 4112225957, -0.70897233, 0.4504075, 0.32700956, 0.43308017, -0.14833258, -1.0502442, 0.6840935, 0
215, 4112242624, -0.72181535, 0.44464025, 0.32973632, 0.41539633, 0.13409078, -1.1300907, 0.5209465, 0
216, 4112259291, -0.7342422, 0.43890738, 0.33186117, 0.3976419, 0.2609069, -1.133864, 0.5593977, 0
217, 4112275958, -0.7463722, 0.4328239, 0.33361182, 0.37986517, 0.460242, -0.97136515, 0.46013832, 0
218, 4112292625, -0.75790346, 0.4269297, 0.3348327, 0.36221954, 0.80855274, -0.7621244, 0.1742115, 0
219, 4112309292, -0.768763, 0.42152825, 0.33547956, 0.34463468, 0.93763214, -0.6074877, -0.050045013, 0
220, 4112325959, -0.77894056, 0.41648993, 0.3358475, 0.32710347, 0.983398, -0.54021406, -0.26808453, 0
221, 4112342626, -0.7884846, 0.4116686, 0.33616418, 0.3095433, 0.953226, -0.4876353, -0.33374023, 0
222, 4112359293, -0.797585, 0.40670598, 0.33654433, 0.29187125, 0.8083228, -0.42974815, -0.39218903, 0
223, 4112375960, -0.80628574, 0.40130362, 0.33714893, 0.27421084, 0.7694183, -0.38131803, -0.48355007, 0
224, 4112392627, -0.8143741, 0.39580786, 0.33807224, 0.25659412, 0.617934, -0.34583622, -0.5989342, 0
225, 4112409294, -0.82192713, 0.3898941, 0.33929798, 0.23936984, 0.52568346, -0.47329584, -0.42525578, 0
226, 4112425961, -0.82887596, 0.3834253, 0.34113172, 0.22266872, 0.4447264, -0.38996774, -0.5635357, 0
227, 4112442628, -0.83497965, 0.37685382, 0.34362867, 0.2066683, 0.4602342, -0.49305797, -0.7883692, 0
228, 4112459295, -0.84024125, 0.37041295, 0.34657282, 0.19151582, 0.41850433, -0.61384994, -0.7455406, 0
229, 4112475962, -0.8446958, 0.36429572, 0.34978938, 0.17727785, 0.32522455, -0.69401824, -0.648057, 0
230, 4112492629, -0.8486263, 0.35805038, 0.3532799, 0.16379528, 0.41390398, -0.78547615, -0.69431114, 0
231, 4112509296, -0.85206836, 0.35183, 0.3568521, 0.1511758, 0.5845, -0.85149384, -0.83064365, 0
232, 4112525963, -0.8549481, 0.34603453, 0.36036953, 0.13949959, 0.6121988, -0.87793654, -0.9032669, 0
233, 4112542630, -0.8573575, 0.34071806, 0.3636901, 0.12876813, 0.7269909, -0.9090487, -0.98110867, 0
234, 4112559297, -0.8594074, 0.3358786, 0.3667098, 0.1188731, 0.8117027, -0.86125803, -1.1214838, 0
235, 4112575964, -0.86104906, 0.33192724, 0.36924532, 0.1099042, 0.87080806, -0.7314137, -1.2756329, 0
236, 4112592631, -0.8621368, 0.3293404, 0.3712964, 0.10196148, 0.8000539, -0.7190642, -1.3624258, 0
237, 4112609298, -0.8628803, 0.32775784, 0.37280837, 0.09501766, 0.7821331, -0.53984505, -1.4456968, 0
238, 4112625965, -0.86332786, 0.32713473, 0.3738213, 0.08892519, 0.6267873, -0.36142066, -1.4660625, 0
239, 4112642632, -0.86344105, 0.327593, 0.37438726, 0.08359941, 0.45925608, -0.28592739, -1.3309584, 0
240, 4112659299, -0.8633155, 0.3288843, 0.37455866, 0.07892785, 0.31234258, -0.16901603, -1.2727661, 0
241, 4112675966, -0.862965, 0.33095026, 0.37439716, 0.074782886, 0.106985144, -0.02958954, -1.1915188, 0
242, 4112692633, -0.86236495, 0.33361742, 0.37413472, 0.07107596, -0.036212675, -0.08551829, -1.0164137, 0
243, 4112709300, -0.8616485, 0.33652884, 0.37379998, 0.06772113, -0.18182287, -0.09060433, -0.77982044, 0
244, 4112725967, -0.86085975, 0.33956444, 0.37340117, 0.064731926, -0.18664785, -0.1470304, -0.5569382, 0
245, 4112742634, -0.86005884, 0.34271124, 0.3728395, 0.061975285, -0.20882502, -0.14375749, -0.37115383, 0
246, 4112759301, -0.8591623, 0.3463167, 0.37199146, 0.059410766, -0.0823643, 0.004385771, -0.36515236, 0
247, 4112775968, -0.85811204, 0.35050827, 0.3709036, 0.056750506, -0.06331876, 0.20173922, -0.3755436, 0
248, 4112792635, -0.8566717, 0.3553817, 0.37002254, 0.053879056, -0.054383386, 0.053220447, 0.3313465, 0
249, 4112809302, -0.85450584, 0.36064348, 0.37031534, 0.051234063, -0.061821226, -0.54549676, 2.2077303, 0
250, 4112825969, -0.8517533, 0.36558613, 0.37198386, 0.049934935, 0.53358084, -1.4190694, 4.1406765, 0
251, 4112842636, -0.84967834, 0.3686557, 0.37367883, 0.050060276, 1.2332636, -0.8628673, 4.821432, 0
252, 4112859303, -0.8480943, 0.37141648, 0.37453097, 0.050146356, 1.6888572, -0.06593498, 3.9486113, 0
253, 4112875970, -0.84673864, 0.37471652, 0.37450165, 0.048702154, 1.7204543, 0.32763624, 2.4852238, 0
254, 4112892637, -0.8452958, 0.37836438, 0.37446237, 0.045776814, 1.0854892, 0.15106101, 1.8042793, 0
255, 4112909304, -0.84398043, 0.38112807, 0.37507984, 0.041902293, 0.6193285, -0.0018692388, 1.7713928, 0
256, 4112925971, -0.84287006, 0.38273448, 0.37639925, 0.037555724, 0.38766623, 0.10543799, 1.6105986, 0
257, 4112942638, -0.84200037, 0.383469, 0.37802982, 0.032900624, 0.16984145, 0.28219068, 1.5283604, 0
258, 4112959305, -0.8413736, 0.38354835, 0.37972048, 0.028204922, 0.17715436, 0.13085946, 1.4835968, 0
259, 4112975972, -0.8414557, 0.3821453, 0.3812832, 0.023291808, 0.27842584, -0.09018479, 1.4330254, 0
260, 4112992639, -0.84244496, 0.37878388, 0.3827421, 0.017893065, 0.52251226, -0.13251926, 1.4318161, 0
261, 4113009306, -0.8440731, 0.37411788, 0.38396025, 0.012391157, 0.8490964, 0.09438058, 1.1162128, 0
262, 4113025973, -0.84577686, 0.3695403, 0.38477588, 0.0071721356, 1.1445045, 0.45127645, 0.6034336, 0
263, 4113042640, -0.8473116, 0.3658886, 0.3849492, 0.0022202656, 1.219448, 0.7588911, 0.17725945, 0
264, 4113059307, -0.8486553, 0.3633266, 0.3844143, -0.002412648, 1.2152994, 0.7397617, -0.11723709, 0
265, 4113075974, -0.85000277, 0.361524, 0.38308522, -0.006596855, 1.179969, 0.58236325, -0.28642178, 0
266, 4113092641, -0.8516806, 0.359712, 0.38097692, -0.010307163, 1.073865, 0.62696993, -0.4654255, 0
267, 4113109308, -0.8535084, 0.35819593, 0.37821645, -0.013174093, 1.0082536, 0.7561211, -0.85018444, 0
268, 4113125975, -0.855363, 0.357101, 0.37497318, -0.015176151, 0.8978247, 0.9235298, -1.1761446, 0
269, 4113142642, -0.85704255, 0.35668972, 0.37146896, -0.016233597, 0.7390534, 0.9830965, -1.283246, 0
270, 4113159309, -0.8585807, 0.35689348, 0.36770877, -0.016080275, 0.7003971, 0.8725945, -1.1328497, 0
271, 4113175976, -0.86017364, 0.35743365, 0.36350277, -0.014506145, 0.7743262, 0.72866476, -1.1688223, 0
272, 4113192643, -0.8616017, 0.3587603, 0.35889226, -0.011486795, 0.7859969, 0.76373965, -1.3949871, 0
273, 4113209310, -0.8626334, 0.36109126, 0.35415593, -0.007233992, 0.6900408, 0.69036895, -1.4291811, 0
274, 4113225977, -0.86346614, 0.3640288, 0.34915322, -0.0019408548, 0.64095247, 0.5647996, -1.1989088, 0
275, 4113242644, -0.8642076, 0.36724442, 0.34388894, 0.004416218, 0.64069074, 0.44417566, -0.97198963, 0
276, 4113259311, -0.8648593, 0.37069643, 0.33833247, 0.011669795, 0.6660054, 0.3675561, -0.8580723, 0
277, 4113275978, -0.86515224, 0.374749, 0.33269677, 0.01974881, 0.6742123, 0.45740518, -0.8419285, 0
278, 4113292645, -0.86468995, 0.38005304, 0.3271945, 0.028587408, 0.5939296, 0.38253415, -0.6656456, 0
279, 4113309312, -0.86362636, 0.3861692, 0.32180768, 0.038273957, 0.51230085, 0.14818864, -0.22008896, 0
280, 4113325979, -0.86220056, 0.3923408, 0.3167248, 0.04864899, 0.5195463, -0.19186352, 0.13299942, 0
281, 4113342646, -0.86086917, 0.3977587, 0.31172073, 0.059369903, 0.4727661, -0.046322614, 0.29217434, 0
282, 4113359313, -0.859535, 0.40268174, 0.30678087, 0.07025028, 0.45350286, 0.15849103, 0.33208847, 0
283, 4113375980, -0.8580661, 0.4073238, 0.3020143, 0.081237614, 0.4270101, -0.038708646, 0.50425434, 0
284, 4113392647, -0.8568673, 0.41085654, 0.29740015, 0.09236262, 0.5934526, -0.20184584, 0.929657, 0
285, 4113409314, -0.85569036, 0.41370997, 0.2929514, 0.10401745, 0.72770745, -0.45017788, 1.3677616, 0
286, 4113425981, -0.85370964, 0.41714123, 0.2889293, 0.11702596, 1.0963452, -0.6808745, 1.8768349, 0
287, 4113442648, -0.8504777, 0.42185545, 0.2851469, 0.13198218, 1.5809426, -1.0313063, 2.337449, 0
288, 4113459315, -0.84589154, 0.4280232, 0.2813335, 0.14871845, 2.0505066, -1.1959717, 3.0524616, 0
289, 4113475982, -0.8406049, 0.43471336, 0.2769489, 0.16646129, 2.2763784, -1.4281213, 3.222619, 0
290, 4113492649, -0.8359354, 0.440242, 0.27119076, 0.18400237, 2.4462092, -0.56010556, 2.0659676, 0
291, 4113509316, -0.831767, 0.44532976, 0.26429817, 0.19998449, 1.8111472, -0.23827331, 1.0990429, 0
292, 4113525983, -0.8280858, 0.44952625, 0.25725454, 0.21452837, 1.3553805, -0.0517732, 0.6282921, 0
293, 4113542650, -0.8251208, 0.45241246, 0.25007564, 0.22795466, 1.3423717, 0.08198567, 0.28624153, 0
294, 4113559317, -0.8229047, 0.45393148, 0.24265227, 0.2406159, 1.3387742, 0.042625263, 0.15871048, 0
295, 4113575984, -0.82113445, 0.45444384, 0.23509441, 0.25288725, 1.5440205, 0.0519234, -0.179842, 0
296, 4113592651, -0.8193857, 0.4545362, 0.22747457, 0.2650693, 1.7208238, -0.110136904, -0.624094, 0
297, 4113609318, -0.81715286, 0.45492747, 0.21964537, 0.27759773, 1.6895405, -0.14228119, -1.0260258, 0
298, 4113625985, -0.8137625, 0.45671472, 0.2116317, 0.29054564, 1.7085727, 0.21366028, -1.8153453, 0
299, 4113642652, -0.80853, 0.46124154, 0.20308705, 0.30379823, 1.3944141, 0.34798196, -2.2333589, 0
300, 4113659319, -0.80211264, 0.46744263, 0.19372788, 0.3171504, 0.6657714, 0.3853607, -2.144857, 0
301, 4113675986, -0.79526645, 0.4740629, 0.183465, 0.3303914, 0.16063876, 0.6881146, -1.9986615, 0
302, 4113692653, -0.7883165, 0.4804444, 0.17280136, 0.34332502, -0.3921965, 1.1540496, -2.0355, 0
303, 4113709320, -0.7812867, 0.48618433, 0.16241613, 0.3561446, -0.86990994, 1.3837329, -2.0208597, 0
304, 4113725987, -0.77445745, 0.490962, 0.15249492, 0.36867225, -1.1395357, 1.4772912, -1.5651646, 0
305, 4113742654, -0.7681758, 0.49478522, 0.14306986, 0.38029847, -1.2868072, 1.7041459, -1.1921968, 0
306, 4113759321, -0.7624005, 0.49778968, 0.13384357, 0.3912023, -1.2154694, 1.4440533, -0.90630245, 0
307, 4113775988, -0.75782657, 0.49897835, 0.12514347, 0.40132374, -1.4113685, 1.4903357, -0.51676655, 0
308, 4113792655, -0.754436, 0.49852738, 0.116726056, 0.41069943, -1.6640977, 1.7528771, 0.11119938, 0
309, 4113809322, -0.752678, 0.49559614, 0.10879995, 0.41955385, -1.7664816, 2.2372427, 0.35054398, 0
310, 4113825989, -0.75194806, 0.49041915, 0.10207954, 0.42853844, -1.1578062, 2.7260566, -0.31689644, 0
311, 4113842656, -0.7514067, 0.48575464, 0.09524542, 0.43630406, -0.8546963, 3.045818, -0.6757107, 0
312, 4113859323, -0.751302, 0.48151916, 0.088765755, 0.4425015, -0.8009439, 2.973989, -0.5791769, 0
313, 4113875990, -0.75112236, 0.4781283, 0.08200932, 0.44775558, -0.55046684, 2.7906568, -0.40159035, 0
314, 4113892657, -0.7509705, 0.47517252, 0.07511803, 0.4523427, -0.6769644, 2.661325, 0.016289711, 0
315, 4113909324, -0.7507925, 0.4725097, 0.06847963, 0.45646295, -0.79100204, 2.3588076, 0.7495861, 0
316, 4113925991, -0.7508353, 0.4693156, 0.062699586, 0.46049997, -0.7954174, 1.967572, 1.4152184, 0
317, 4113942658, -0.7513191, 0.46523112, 0.058253262, 0.46442288, -0.3844038, 1.9951252, 1.1745358, 0
318, 4113959325, -0.75133127, 0.46208212, 0.054744035, 0.46796033, -0.10589764, 1.8829281, 1.3524895, 0
319, 4113975992, -0.75021005, 0.46124488, 0.051729817, 0.47091883, -0.24076693, 1.4782686, 2.4111385, 0
320, 4113992659, -0.74860436, 0.46128422, 0.049608365, 0.47365576, -0.33359107, 1.1193315, 3.2378035, 0
321, 4114009326, -0.74692756, 0.46146822, 0.04846987, 0.4762344, -0.12437015, 1.2210358, 3.2676382, 0
322, 4114025993, -0.745953, 0.4611769, 0.04840644, 0.47804704, -0.16017008, 1.469258, 3.4022427, 0
323, 4114042660, -0.7464501, 0.45916253, 0.04988716, 0.47905698, -0.38616592, 1.4506116, 3.64474, 0
324, 4114059327, -0.7491624, 0.45427623, 0.053006645, 0.4791464, -0.39839265, 1.7899606, 3.0409374, 0
325, 4114075994, -0.7535898, 0.44780755, 0.05770867, 0.47774753, -0.33944693, 2.2167697, 2.0840178, 0
326, 4114092661, -0.7588744, 0.44090256, 0.06400503, 0.4749948, -0.29052767, 2.0954187, 1.1803827, 0
327, 4114109328, -0.76423526, 0.43443283, 0.07107428, 0.47134224, -0.32714614, 1.450231, 0.8130512, 0
328, 4114125995, -0.76955837, 0.42854166, 0.07850446, 0.4668738, -0.48392975, 0.76104665, 0.8071699, 0
329, 4114142662, -0.77507603, 0.42279497, 0.08607727, 0.46162164, -0.73953, 0.17878957, 0.82071495, 0
330, 4114159329, -0.78097725, 0.41668808, 0.09402679, 0.45563903, -1.1436756, -0.30630752, 0.83561707, 0
331, 4114175996, -0.7873461, 0.40968853, 0.10228724, 0.44920042, -1.263401, -0.7323073, 0.7411623, 0
332, 4114192663, -0.7939364, 0.40186432, 0.109673165, 0.4428816, -1.1144937, -1.0893427, 0.28044796, 0
333, 4114209330, -0.80028933, 0.39384148, 0.11626582, 0.43693298, -0.75524795, -0.9361091, -0.5904579, 0
334, 4114225997, -0.80609924, 0.38686758, 0.122005135, 0.4308764, -0.5436158, -0.9599982, -1.2482395, 0
335, 4114242664, -0.81101054, 0.38140398, 0.1270422, 0.42503586, -0.2808641, -0.94474256, -1.9549084, 0
336, 4114259331, -0.8145696, 0.37820905, 0.13127777, 0.4197654, -0.18724082, -0.8938198, -2.1858983, 0
337, 4114275998, -0.81745595, 0.37569124, 0.13545384, 0.41506183, -0.351921, -0.8195407, -2.1538181, 0
338, 4114292665, -0.81977946, 0.3725804, 0.13975479, 0.41184488, -0.35895008, -1.2375036, -2.0599155, 0
339, 4114309332, -0.82174283, 0.36915478, 0.14403799, 0.40953478, -0.39619717, -1.2795734, -1.7414932, 0
340, 4114325999, -0.8234973, 0.36563143, 0.14817788, 0.40769044, -0.01848061, -0.9696629, -1.9215441, 0
341, 4114342666, -0.824331, 0.36385286, 0.15132666, 0.4064385, 0.511445, -0.7677963, -2.2925186, 0
342, 4114359333, -0.82378256, 0.3651072, 0.15292835, 0.40582544, 0.49596608, -0.7050052, -2.3967576, 0
343, 4114376000, -0.8220413, 0.36870447, 0.15335143, 0.4059443, 0.34039944, -0.9464973, -2.2113457, 0
344, 4114392667, -0.8196149, 0.3731019, 0.15316945, 0.4069005, 0.24193656, -1.1402198, -1.9354572, 0
345, 4114409334, -0.816638, 0.37778518, 0.15259168, 0.40877703, 0.27084747, -1.1833634, -1.8153262, 0
346, 4114426001, -0.81297904, 0.382986, 0.15155882, 0.4116052, 0.35307482, -1.269704, -1.7855692, 0
347, 4114442668, -0.8084612, 0.38895226, 0.15013899, 0.4154122, 0.5457258, -1.2940779, -1.7086697, 0
348, 4114459335, -0.80296, 0.39582038, 0.14835171, 0.4202091, 0.5843023, -1.3679785, -1.5357046, 0
349, 4114476002, -0.79649746, 0.40323943, 0.14656493, 0.42604095, 0.6804458, -1.359752, -1.3240938, 0
350, 4114492669, -0.78890336, 0.41131163, 0.14473604, 0.43302196, 0.95800024, -1.4907248, -1.1535997, 0
351, 4114509336, -0.7800955, 0.42002645, 0.14302994, 0.4411049, 1.0727441, -1.4941481, -1.1938047, 0
352, 4114526003, -0.7701698, 0.4290549, 0.14203508, 0.45008755, 0.9265245, -1.5341332, -0.90725136, 0
353, 4114542670, -0.7590634, 0.43809417, 0.1425476, 0.45997694, 0.60815907, -1.6346169, -0.42185974, 0
354, 4114559337, -0.7464097, 0.4475109, 0.14508127, 0.47070172, 0.5253109, -1.527992, 0.34920216, 0
355, 4114576004, -0.73175067, 0.4577083, 0.14975499, 0.48230666, 0.72735196, -1.6368697, 1.2220945, 0
356, 4114592671, -0.7152211, 0.46804962, 0.15655188, 0.49485582, 1.1049026, -1.6533113, 1.9214478, 0
357, 4114609338, -0.6973034, 0.47791642, 0.16557112, 0.50788987, 1.3715048, -1.4508709, 2.6625872, 0
358, 4114626005, -0.6786604, 0.48670375, 0.17655039, 0.52093375, 1.6965067, -1.0661457, 2.836753, 0
359, 4114642672, -0.6604715, 0.49355805, 0.18913007, 0.5333008, 2.0791154, -0.32780388, 2.294756, 0
360, 4114659339, -0.6437567, 0.49825045, 0.20319904, 0.54409194, 2.2566593, 0.21795776, 1.99681, 0
361, 4114676006, -0.6286718, 0.5010257, 0.21859835, 0.55313814, 1.8015847, 0.26508078, 1.9761782, 0
362, 4114692673, -0.6150983, 0.5015117, 0.235539, 0.56094897, 1.3897551, 0.014229282, 1.7834082, 0
363, 4114709340, -0.60299516, 0.49984106, 0.2533291, 0.56778723, 1.2886698, -0.23534998, 1.429739, 0
364, 4114726007, -0.591901, 0.49695975, 0.27090925, 0.57384205, 1.4377835, -0.5460064, 0.91502666, 0
365, 4114742674, -0.580932, 0.49424872, 0.28688645, 0.5795985, 1.6863873, -0.8467811, 0.46476555, 0
366, 4114759341, -0.5691128, 0.49292803, 0.30022305, 0.58566266, 1.7157261, -0.93233246, 0.3368206, 0
367, 4114776008, -0.5557275, 0.49358636, 0.310515, 0.5925556, 1.4152848, -0.7263315, 0.24722958, 0
368, 4114792675, -0.5410179, 0.49590373, 0.31791958, 0.6002571, 0.97548676, -0.09891745, 0.06387329, 0
369, 4114809342, -0.5255725, 0.49954545, 0.32285073, 0.6082742, 0.09094317, 0.69101334, -0.115101814, 0
370, 4114826009, -0.5101897, 0.50373197, 0.32622954, 0.61606604, -0.71319866, 1.3272045, -0.15756416, 0
371, 4114842676, -0.4956275, 0.5075633, 0.32898042, 0.6233033, -1.3652055, 1.9024441, -0.2345438, 0
372, 4114859343, -0.48208204, 0.5108877, 0.3315244, 0.62982935, -1.8751872, 2.4386048, -0.26007843, 0
373, 4114876010, -0.4697179, 0.51354635, 0.3342208, 0.63555783, -2.3340805, 2.9702132, -0.32839203, 0
374, 4114892677, -0.45888016, 0.51513225, 0.3376579, 0.6403571, -2.8580248, 3.401235, -0.51948166, 0
375, 4114909344, -0.44982937, 0.51534337, 0.34238288, 0.64408934, -2.971059, 3.6931376, -0.7458563, 0
376, 4114926011, -0.4425375, 0.5146358, 0.34785524, 0.64676857, -2.7757592, 3.7551098, -0.9310818, 0
377, 4114942678, -0.43690613, 0.5134257, 0.35346535, 0.648515, -2.2912197, 3.7303264, -1.0676718, 0
378, 4114959345, -0.4328558, 0.51212484, 0.35862938, 0.6494237, -2.0019388, 3.8649924, -1.2035999, 0
379, 4114976012, -0.430586, 0.5108478, 0.36336073, 0.6493085, -2.0472262, 4.105072, -1.2821932, 0
380, 4114992679, -0.4303838, 0.50936943, 0.36811802, 0.64792305, -2.2437973, 4.2351837, -1.1901674, 0
381, 4115009346, -0.43232992, 0.50738084, 0.37316644, 0.64529437, -2.2599833, 4.1254864, -1.0319366, 0
382, 4115026013, -0.4361271, 0.50504065, 0.3781748, 0.64164877, -2.2103467, 3.9145353, -0.8585148, 0
383, 4115042680, -0.44143283, 0.5026268, 0.38267013, 0.6372356, -2.275306, 3.6278775, -0.43650532, 0
384, 4115059347, -0.44786522, 0.50013775, 0.3863771, 0.63245076, -2.492501, 3.299695, 0.10799408, 0
385, 4115076014, -0.45520964, 0.4973875, 0.38939863, 0.62750375, -2.605864, 3.0588744, 0.5274496, 0
386, 4115092681, -0.46319926, 0.49479198, 0.39139238, 0.6224481, -2.5387492, 2.8678176, 0.83399296, 0
387, 4115109348, -0.47178778, 0.4924595, 0.3924379, 0.6171667, -2.4146483, 2.673631, 1.1830635, 0
388, 4115126015, -0.48082814, 0.4906732, 0.39255497, 0.611512, -2.443097, 2.4443533, 1.8406343, 0
389, 4115142682, -0.4898981, 0.48969987, 0.39190322, 0.60548174, -3.0965421, 2.0439007, 3.0144672, 0
390, 4115159349, -0.49911794, 0.4885703, 0.3910583, 0.59937966, -3.2729359, 1.5953249, 3.7086582, 0
391, 4115176016, -0.5092881, 0.48667622, 0.39049, 0.5926988, -2.9844635, 1.5289594, 3.720253, 0
392, 4115192683, -0.5201856, 0.4847065, 0.3899602, 0.58514935, -2.6067152, 1.4116397, 3.3643475, 0
393, 4115209350, -0.5321451, 0.4822345, 0.3899126, 0.5764042, -2.5197833, 1.2706037, 2.8779583, 0
394, 4115226017, -0.5454038, 0.47847086, 0.39091974, 0.5663784, -2.442469, 0.92233604, 2.4013224, 0
395, 4115242684, -0.55975735, 0.47345886, 0.3925909, 0.5553224, -2.2536376, 0.37474695, 1.8268738, 0
396, 4115259351, -0.5751619, 0.4670477, 0.39479178, 0.5433206, -2.272713, -0.16112356, 1.5045624, 0
397, 4115276018, -0.5913558, 0.4591344, 0.39738894, 0.53063923, -2.1968765, -0.7429021, 1.2688217, 0
398, 4115292685, -0.60784227, 0.4499492, 0.40008163, 0.5176971, -1.9498569, -1.2065868, 0.97330666, 0
399, 4115309352, -0.62409997, 0.4399525, 0.4025748, 0.5048532, -1.7033149, -1.5848758, 0.7313862, 0
400, 4115326019, -0.6397713, 0.42956766, 0.40462753, 0.49238533, -1.4765956, -1.9141628, 0.47599125, 0
401, 4115342686, -0.6546575, 0.41910222, 0.40607446, 0.48050267, -1.3270935, -2.2090747, 0.3248644, 0
402, 4115359353, -0.66856045, 0.4087403, 0.40696362, 0.46940503, -1.1915408, -2.581651, 0.25014305, 0
403, 4115376020, -0.6813849, 0.39874655, 0.40710732, 0.4593273, -1.0270702, -2.9462929, 0.14454556, 0
404, 4115392687, -0.6933337, 0.38917884, 0.4063097, 0.45027003, -0.7731407, -3.247599, -0.010719299, 0
405, 4115409354, -0.704497, 0.38018748, 0.4045014, 0.44217932, -0.33286512, -3.457297, -0.29578304, 0
406, 4115426021, -0.7148702, 0.37219575, 0.40152413, 0.43498427, 0.13414644, -3.5508711, -0.62066364, 0
407, 4115442688, -0.72434586, 0.36571306, 0.39729074, 0.42864823, 0.53565973, -3.6492314, -0.8916111, 0
408, 4115459355, -0.7329529, 0.36081865, 0.39196458, 0.42303196, 0.9470113, -3.7508764, -1.0945702, 0
409, 4115476022, -0.7407285, 0.35774615, 0.38551503, 0.41799438, 1.2740363, -3.7895317, -1.2506237, 0
410, 4115492689, -0.7477764, 0.35649514, 0.37808064, 0.41327828, 1.4693631, -3.7283647, -1.4753942, 0
411, 4115509356, -0.75414336, 0.35694343, 0.36994362, 0.40866, 1.5017753, -3.6170056, -1.6757784, 0
412, 4115526023, -0.7598724, 0.3587864, 0.36150938, 0.40395492, 1.4168608, -3.4934168, -1.850678, 0
413, 4115542690, -0.76514554, 0.36141625, 0.35331902, 0.3988715, 1.2341417, -3.296739, -1.9621592, 0
414, 4115559357, -0.77010405, 0.3642038, 0.34597337, 0.39319226, 1.0122755, -3.1049485, -1.9904933, 0
415, 4115576024, -0.7748599, 0.3666438, 0.3400046, 0.3867348, 0.71172637, -2.9438305, -1.8506975, 0
416, 4115592691, -0.77968025, 0.3678917, 0.3359588, 0.37932587, 0.34405595, -2.8954265, -1.5835562, 0
417, 4115609358, -0.7848625, 0.36698225, 0.3342672, 0.3709213, 0.102173135, -2.715409, -1.2971153, 0
418, 4115626025, -0.7905436, 0.3634993, 0.33504635, 0.3614632, 9.3271956E-4, -2.5580604, -0.87937546, 0
419, 4115642692, -0.79642296, 0.35754633, 0.33845794, 0.35116872, 0.09188081, -2.6946428, -0.26468277, 0
420, 4115659359, -0.8019834, 0.3496286, 0.34436893, 0.34058002, 0.35247657, -3.019429, 0.51111317, 0
421, 4115676026, -0.80682725, 0.34021765, 0.35237932, 0.33032212, 0.7891413, -3.2985475, 1.5032883, 0
422, 4115692693, -0.81055975, 0.32989064, 0.36233956, 0.32074487, 1.3410668, -3.4675949, 2.749879, 0
423, 4115709360, -0.8132601, 0.31841525, 0.3737879, 0.31225717, 1.6239054, -2.5923874, 2.7160625, 0
424, 4115726027, -0.8158962, 0.30570698, 0.38544688, 0.30379203, 1.2967913, -0.4754371, 1.2712107, 0
425, 4115742694, -0.8189659, 0.29281038, 0.39671183, 0.29356277, 0.5803297, 1.5051594, -0.43082523, 0
426, 4115759361, -0.8222953, 0.28075793, 0.40734118, 0.28121296, 0.004375713, 1.7505869, -1.451889, 0
427, 4115776028, -0.82563704, 0.2694727, 0.41735026, 0.26744878, -0.19899358, 0.8501903, -1.0318766, 0
428, 4115792695, -0.8290051, 0.25709355, 0.42749634, 0.25278944, 0.27313015, -0.083248295, -0.17063141, 0
429, 4115809362, -0.83239156, 0.2431017, 0.43743274, 0.23807713, 1.0941954, -0.017230837, 0.23755741, 0
430, 4115826029, -0.8354364, 0.22954473, 0.44619083, 0.2242123, 1.5435052, 0.7757704, 0.1005106, 0
431, 4115842696, -0.8378273, 0.21877642, 0.45324185, 0.21155691, 1.318391, 1.2890426, -0.07898712, 0
432, 4115859363, -0.83919066, 0.2119689, 0.45910177, 0.20014001, 0.64393234, 1.081645, 0.027338028, 0
433, 4115876030, -0.8396191, 0.20765112, 0.46463922, 0.18982483, -0.1405074, 0.28583106, 0.24006176, 0
434, 4115892697, -0.8394208, 0.2038072, 0.47040007, 0.18044803, -0.76082873, -0.18390523, 0.18807316, 0
435, 4115909364, -0.8388862, 0.19950707, 0.47647724, 0.17157665, -1.219392, -0.3696978, -0.16627216, 0
436, 4115926031, -0.83825094, 0.19425406, 0.48286858, 0.16260742, -1.4543535, -0.36708593, -0.6550541, 0
437, 4115942698, -0.8375907, 0.18815246, 0.48944595, 0.15324993, -1.4908949, -0.43022376, -1.0104179, 0
438, 4115959365, -0.8368794, 0.18133289, 0.49610513, 0.1436437, -1.4616574, -0.5798619, -1.1501236, 0
439, 4115976032, -0.8361584, 0.17364366, 0.5027699, 0.13383456, -1.5625136, -0.7599084, -1.2595081, 0
440, 4115992699, -0.83541954, 0.16505198, 0.50942427, 0.123778924, -1.5825781, -0.87426186, -1.2183104, 0
441, 4116009366, -0.83458626, 0.15576553, 0.51605755, 0.11353259, -1.5113561, -0.9097375, -1.0766039, 0
442, 4116026033, -0.8335723, 0.14612657, 0.52264065, 0.10321439, -1.389068, -0.9263412, -0.91288567, 0
443, 4116042700, -0.83238405, 0.13652241, 0.5290428, 0.092814386, -1.2265508, -0.9115095, -0.6743059, 0
444, 4116059367, -0.8310853, 0.12701838, 0.5351727, 0.082194686, -1.0382329, -0.82598656, -0.40825558, 0
445, 4116076034, -0.8297396, 0.117932424, 0.54087603, 0.07127167, -0.887386, -0.77156895, -0.2321024, 0
446, 4116092701, -0.82839715, 0.109341264, 0.5460753, 0.060056254, -0.7783179, -0.7136392, -0.12935162, 0
447, 4116109368, -0.8271132, 0.101178005, 0.5507283, 0.048450284, -0.7052084, -0.58631897, -0.110230446, 0
448, 4116126035, -0.82587576, 0.09347815, 0.5548649, 0.036307737, -0.59654224, -0.55894476, -0.12471676, 0
449, 4116142702, -0.8246584, 0.08615956, 0.55853575, 0.023564298, -0.52827334, -0.49321324, -0.07828331, 0
450, 4116159369, -0.82339746, 0.07909474, 0.5618359, 0.010163829, -0.46466377, -0.56197983, 0.10484028, 0
451, 4116176036, -0.82207143, 0.07201937, 0.5648007, -0.003791382, -0.30196556, -0.68249804, 0.5921345, 0
452, 4116192703, -0.8207391, 0.06489228, 0.5673179, -0.01814083, -0.06755724, -0.66965365, 1.1618872, 0
453, 4116209370, -0.8193301, 0.057830915, 0.5694583, -0.032760274, 0.15856859, -0.6755328, 1.9562588, 0
454, 4116226037, -0.8177598, 0.050864153, 0.5713608, -0.04723149, 0.58912784, -0.6759529, 2.835104, 0
455, 4116242704, -0.816081, 0.043983176, 0.5729977, -0.06126124, 0.9781445, -0.5760622, 3.7854118, 0
456, 4116259371, -0.81435966, 0.03728138, 0.574333, -0.07464746, 1.5708401, -0.38000014, 4.5114536, 0
457, 4116276038, -0.8131491, 0.030825237, 0.5746345, -0.087382786, 1.6116298, 0.502509, 3.3615475, 0
458, 4116292705, -0.81253904, 0.024917945, 0.5736023, -0.10070697, 0.80797833, 1.1603849, 1.3141775, 0
459, 4116309372, -0.81193554, 0.020184211, 0.5719853, -0.11484073, 0.6065386, 0.7094893, 0.08088875, 0
460, 4116326039, -0.811339, 0.015360425, 0.5698908, -0.12930405, 1.0268767, -0.08627885, -0.116848946, 0
461, 4116342706, -0.8111318, 0.00904995, 0.56682056, -0.1438752, 1.737794, -0.7288833, 0.32134914, 0
462, 4116359373, -0.8114971, 8.5559953E-4, 0.56258166, -0.15803806, 2.4134731, -0.6965896, 0.7169008, 0
463, 4116376040, -0.8125432, -0.00788841, 0.55726296, -0.17079712, 2.9261723, -0.19578229, 0.8228855, 0
464, 4116392707, -0.8142364, -0.0153009165, 0.55130476, -0.18124755, 3.0355854, 0.35180712, 0.62710476, 0
465, 4116409374, -0.816324, -0.020238267, 0.5453904, -0.18909581, 2.8760433, 0.6682776, 0.20402527, 0
466, 4116426041, -0.81854945, -0.022697799, 0.5400036, -0.19457683, 2.5492964, 0.5960229, -0.11630154, 0
467, 4116442708, -0.8207138, -0.023353606, 0.53536373, -0.19817063, 2.3454764, 0.050462283, -0.18503666, 0
468, 4116459375, -0.822906, -0.02362494, 0.5311391, -0.20040274, 2.3353283, -0.3852064, 0.039251328, 0
469, 4116476042, -0.82532185, -0.024505695, 0.5267166, -0.20202781, 2.3277855, -0.5780195, 0.30792427, 0
470, 4116492709, -0.82815087, -0.026548296, 0.5214472, -0.20385359, 2.191755, -0.3990212, 0.44439602, 0
471, 4116509376, -0.83142364, -0.029654443, 0.5151096, -0.20620285, 1.9629945, 0.09242343, 0.54570293, 0
472, 4116526043, -0.83494186, -0.032926492, 0.5080438, -0.20900244, 1.6803561, 0.65414727, 0.52024174, 0
473, 4116542710, -0.838536, -0.035995446, 0.500662, -0.21190019, 1.6911103, 1.0512036, 0.6721077, 0
474, 4116559377, -0.842209, -0.038385984, 0.4931159, -0.21459188, 1.8668647, 0.7602796, 1.0190964, 0
475, 4116576044, -0.84602785, -0.04106176, 0.48511362, -0.21729775, 1.7203618, 0.60914767, 1.392786, 0
476, 4116592711, -0.8500403, -0.04384693, 0.4766096, -0.21989661, 1.4937912, 0.6800246, 1.6216373, 0
477, 4116609378, -0.854204, -0.04577666, 0.467839, -0.22219138, 1.337544, 0.87372285, 1.7142782, 0
478, 4116626045, -0.85848343, -0.04688263, 0.45875755, -0.2243931, 1.2482805, 0.823738, 1.8287601, 0
479, 4116642712, -0.8628198, -0.047788892, 0.449297, -0.2266997, 1.1990052, 0.5299196, 1.9702158, 0
480, 4116659379, -0.8673585, -0.048767388, 0.4391304, -0.22908042, 1.3213156, 0.26004022, 1.8943195, 0
481, 4116676046, -0.8721854, -0.04974016, 0.42813626, -0.23134449, 1.3078668, 0.16727547, 1.9338198, 0
482, 4116692713, -0.8772085, -0.05114875, 0.4162766, -0.23367783, 1.336481, 0.14799452, 1.8450546, 0
483, 4116709380, -0.88233095, -0.05230055, 0.40378293, -0.23604795, 1.3674388, 0.15736899, 1.8251276, 0
484, 4116726047, -0.887507, -0.052585077, 0.39088663, -0.23827738, 1.4796195, 0.06580123, 1.7905693, 0
485, 4116742714, -0.8927412, -0.052258644, 0.3774009, -0.24052723, 1.7038587, -0.21891873, 1.642808, 0
486, 4116759381, -0.89799905, -0.05174341, 0.36322623, -0.24287707, 1.8407297, -0.28999147, 1.3226032, 0
487, 4116776048, -0.90322673, -0.050437167, 0.34871247, -0.24502957, 2.0647779, -0.18315113, 0.8231249, 0
488, 4116792715, -0.9083383, -0.048026595, 0.33410186, -0.24696808, 2.281554, -0.12929037, 0.42896652, 0
489, 4116809382, -0.91321963, -0.044569027, 0.31951305, -0.24891253, 2.4441915, -0.22490877, 0.0039253235, 0
490, 4116826049, -0.91780514, -0.04024252, 0.30497918, -0.25100714, 2.4589143, -0.30818132, -0.36557198, 0
491, 4116842716, -0.9219849, -0.035309892, 0.29062223, -0.25345254, 2.50353, -0.4398189, -0.7221756, 0
492, 4116859383, -0.92569417, -0.02990129, 0.27658483, -0.25631905, 2.6286743, -0.42399085, -1.0818243, 0
493, 4116876050, -0.92890733, -0.024196383, 0.26306245, -0.2595116, 2.6710072, -0.22330031, -1.5015259, 0
494, 4116892717, -0.9315505, -0.018165046, 0.25029978, -0.2631278, 2.5750542, -0.12265817, -1.9294214, 0
495, 4116909384, -0.93351394, -0.012237719, 0.23847993, -0.2674544, 2.4359024, -0.31315702, -2.1812634, 0
496, 4116926051, -0.93478835, -0.007058624, 0.22765785, -0.27257147, 2.0287547, -0.5887725, -2.401781, 0
497, 4116942718, -0.9353549, -0.0026559716, 0.21806405, -0.2784866, 1.4764036, -0.79766345, -2.748333, 0
498, 4116959385, -0.93518704, 0.0010729793, 0.20991999, -0.28523672, 1.170313, -0.9800737, -3.1038866, 0
499, 4116976052, -0.9343352, 0.0038308294, 0.2032147, -0.2927615, 1.21233, -1.2192101, -3.4358153, 0
500, 4116992719, -0.93287194, 0.0053096884, 0.19786197, -0.30095658, 1.3824798, -1.3473904, -3.612896, 0
501, 4117009386, -0.93084586, 0.0048810244, 0.19359782, -0.30987793, 1.5445087, -1.6817049, -3.7352147, 0
502, 4117026053, -0.9282633, 0.0015705761, 0.190146, -0.31964287, 1.5754961, -1.9087734, -3.7139974, 0
503, 4117042720, -0.9250894, -0.0042608986, 0.18775484, -0.33006352, 1.4723959, -1.7733543, -3.6517076, 0
504, 4117059387, -0.9212821, -0.011447381, 0.18699382, -0.340799, 1.2606349, -1.4413872, -3.580875, 0
505, 4117076054, -0.916796, -0.018937942, 0.18833244, -0.35165307, 1.1165569, -1.1232048, -3.4492416, 0
506, 4117092721, -0.91159135, -0.02621714, 0.1918381, -0.36264917, 1.1397389, -0.92301077, -3.1029906, 0
507, 4117109388, -0.9057578, -0.033155557, 0.19720945, -0.37365004, 1.172865, -0.90118605, -2.7684293, 0
508, 4117126055, -0.899508, -0.039817654, 0.2038854, -0.38436088, 1.0177736, -0.8288629, -2.4372802, 0
509, 4117142722, -0.8929627, -0.046025056, 0.21148695, -0.3946835, 0.88641393, -0.601542, -1.9962707, 0
510, 4117159389, -0.88619757, -0.051794, 0.21988823, -0.4045031, 0.72985226, -0.4230813, -1.5754385, 0
511, 4117176056, -0.8792881, -0.05710414, 0.22899018, -0.41371188, 0.52997315, -0.1241187, -1.3621187, 0
512, 4117192723, -0.8722753, -0.061606202, 0.23869015, -0.42233893, 0.54721403, 0.1829329, -1.0602388, 0
513, 4117209390, -0.86517423, -0.0654035, 0.24882944, -0.4304445, 0.48283514, 0.39129937, -0.69009686, 0
514, 4117226057, -0.8579371, -0.0679844, 0.2597982, -0.4379835, 0.3255911, 0.5266119, -0.47699642, 0
515, 4117242724, -0.8504548, -0.06877149, 0.2718803, -0.4450622, 0.45406076, 0.7292041, -0.30297565, 0
516, 4117259391, -0.8426479, -0.068356246, 0.2846441, -0.4519424, 0.4903499, 0.74915063, 0.24598789, 0
517, 4117276058, -0.8343472, -0.06726301, 0.29791367, -0.45890123, 0.6199087, 0.7016168, 0.47980785, 0
518, 4117292725, -0.82549995, -0.065478206, 0.31169283, -0.46595338, 0.79015565, 0.8606069, 0.7537632, 0
519, 4117309392, -0.8159194, -0.06306225, 0.32581624, -0.4734396, 0.7919804, 1.332407, 1.1687403, 0
520, 4117326059, -0.80520904, -0.060388997, 0.33995184, -0.48210657, 0.3782845, 1.6873063, 1.7887373, 0
521, 4117342726, -0.79271156, -0.057872497, 0.35409063, -0.49282992, -0.13697186, 1.9485104, 2.217596, 0
522, 4117359393, -0.77800614, -0.05475942, 0.36831135, -0.5060208, -0.3594931, 2.2007127, 2.4799843, 0
523, 4117376060, -0.7609002, -0.05103506, 0.38230667, -0.52179533, 0.0010286067, 1.99231, 2.5783873, 0
524, 4117392727, -0.74148285, -0.046878234, 0.39489126, -0.54043394, 0.53086, 2.1234655, 2.692214, 0
525, 4117409394, -0.71974605, -0.04175656, 0.40638718, -0.56131434, 0.68698764, 2.3550754, 3.144332, 0
526, 4117426061, -0.6954468, -0.035990655, 0.416742, -0.58428323, 0.7904124, 2.1236348, 3.8980694, 0
527, 4117442728, -0.6686428, -0.02897439, 0.42565888, -0.60901064, 0.5475996, 1.8925825, 4.6652718, 0
528, 4117459395, -0.6399857, -0.020770779, 0.43226638, -0.63492924, -0.893337, 1.9794252, 4.0912285, 0
529, 4117476062, -0.60973173, -0.009961604, 0.4387201, -0.6600419, -1.2764165, 1.583601, 2.5583153, 0
530, 4117492729, -0.5784174, 0.0035747457, 0.4466912, -0.68256116, -0.9405367, 1.1490742, 1.8295755, 0
531, 4117509396, -0.5471901, 0.017230289, 0.4544467, -0.70268524, -1.3107138, 0.64681005, 1.4449539, 0
532, 4117526063, -0.5167719, 0.030671224, 0.46130377, -0.7205605, -2.2874615, 0.15780732, 1.1162825, 0
533, 4117542730, -0.48811778, 0.043162715, 0.46750835, -0.7357419, -3.043432, -0.23136108, 0.5429964, 0
534, 4117559397, -0.46133757, 0.05420313, 0.47378185, -0.74817294, -3.4569337, -0.23773089, -0.021330833, 0
535, 4117576064, -0.43651712, 0.063624114, 0.4798682, -0.75837564, -3.5635328, -0.052542977, -0.46179295, 0
536, 4117592731, -0.41421035, 0.07110085, 0.48506066, -0.7668722, -3.5501971, 0.383606, -0.8528099, 0
537, 4117609398, -0.3948421, 0.076709606, 0.48924994, -0.77385557, -3.615442, 0.45459205, -1.0678082, 0
538, 4117626065, -0.3785642, 0.08073313, 0.49245384, -0.77952737, -3.8852444, 0.2235517, -1.243537, 0
539, 4117642732, -0.3648923, 0.083453625, 0.49575248, -0.7836588, -3.8610272, -0.20881553, -1.4228964, 0
540, 4117659399, -0.35365477, 0.085405886, 0.49959764, -0.78615457, -3.439176, -0.12455813, -0.9295044, 0
541, 4117676066, -0.3448854, 0.08646116, 0.50308377, -0.7877103, -2.9211578, 0.11016264, -0.46746635, 0
542, 4117692733, -0.3383079, 0.0862731, 0.50596356, -0.7887382, -2.3259535, 0.46672443, -0.47789764, 0
543, 4117709400, -0.33366847, 0.0855801, 0.50841427, -0.78921396, -2.237451, 0.68880427, -0.19161415, 0
544, 4117726067, -0.33087584, 0.0845533, 0.51024324, -0.78932, -2.1807466, 0.37569767, -0.15710258, 0
545, 4117742734, -0.32941845, 0.08409315, 0.5127172, -0.7883752, -2.1240585, 0.15600173, 0.26653194, 0
546, 4117759401, -0.3287593, 0.08432984, 0.51507473, -0.7870871, -1.6831064, 0.27180704, 0.60279274, 0
547, 4117776068, -0.3285202, 0.08512599, 0.51716506, -0.7857295, -1.0725337, 0.5365833, 0.5075617, 0
548, 4117792735, -0.32822844, 0.086213775, 0.51941156, -0.7842495, -0.7676043, 0.6688767, 0.14451408, 0
549, 4117809402, -0.32780805, 0.087268114, 0.5209562, -0.7832836, -0.5072067, 0.6535349, 0.042943954, 0
550, 4117826069, -0.32799616, 0.088486694, 0.52172387, -0.78255683, -0.30267498, 0.54957753, 0.32856178, 0
551, 4117842736, -0.32909554, 0.08993582, 0.5213882, -0.7821537, -0.21989696, 0.5426797, 0.29421043, 0
552, 4117859403, -0.33066994, 0.09184386, 0.52035147, -0.7819584, -0.2790348, 0.38152346, 0.124819756, 0
553, 4117876070, -0.33236396, 0.09425521, 0.51944333, -0.7815571, -0.26633224, 0.40859097, -0.15543461, 0
554, 4117892737, -0.33409074, 0.09697524, 0.5188823, -0.7808601, -0.26022306, 0.4812851, -0.35256863, 0
555, 4117909404, -0.33617902, 0.09952958, 0.51849246, -0.77990097, -0.3668649, 0.5217008, -0.2820444, 0
556, 4117926071, -0.33898768, 0.10219726, 0.51807684, -0.7786155, -0.54551286, 0.67612255, 0.017362595, 0
557, 4117942738, -0.34259313, 0.10480494, 0.5170431, -0.7773768, -0.62223816, 0.6780756, -0.028305054, 0
558, 4117959405, -0.34670076, 0.107842304, 0.5164948, -0.77550256, -0.9072715, 0.76338273, -0.37652493, 0
559, 4117976072, -0.35085854, 0.111608006, 0.5169964, -0.77276057, -1.0692753, 0.73270845, -0.4170065, 0
560, 4117992739, -0.35533836, 0.116091885, 0.51803315, -0.7693511, -1.0633014, 0.858959, 0.03571129, 0
561, 4118009406, -0.36135668, 0.12120427, 0.51785934, -0.7658688, -1.2611796, 0.9044416, 0.7070112, 0
562, 4118026073, -0.36903495, 0.12580983, 0.51672626, -0.7622214, -1.3332436, 1.0396665, 0.6703272, 0
563, 4118042740, -0.37756342, 0.13051523, 0.51520497, -0.75827307, -1.9132013, 1.1282449, 0.44450855, 0
564, 4118059407, -0.38628486, 0.13498504, 0.5130089, -0.7545775, -1.9824924, 0.97766626, 0.2055664, 0
565, 4118076074, -0.39564502, 0.13942847, 0.5112364, -0.7501097, -2.5271747, 1.0430921, 0.18159676, 0
566, 4118092741, -0.40633214, 0.14404683, 0.5095548, -0.7446482, -3.0447516, 0.9970346, 0.8157673, 0
567, 4118109408, -0.4195733, 0.14830446, 0.5062938, -0.7386699, -3.419323, 0.97751874, 1.6894245, 0
568, 4118126075, -0.4358831, 0.15159264, 0.5006915, -0.7323497, -3.4642625, 0.7172389, 1.9152288, 0
569, 4118142742, -0.455253, 0.15405169, 0.49290183, -0.72530204, -3.7108912, 0.260715, 2.0207405, 0
570, 4118159409, -0.47769246, 0.1557766, 0.4829522, -0.71714926, -3.639713, -0.060602967, 2.218728, 0
571, 4118176076, -0.50273144, 0.15630376, 0.4716408, -0.7073808, -3.325258, -0.36811712, 2.144434, 0
572, 4118192743, -0.5290547, 0.1556544, 0.4596758, -0.69611305, -2.7406037, -0.4941457, 2.5140162, 0
573, 4118209410, -0.5563314, 0.15281743, 0.44579282, -0.6844073, -1.9576626, -0.7110401, 3.1842175, 0
574, 4118226077, -0.5847415, 0.14690043, 0.42886254, -0.6727383, -1.1632752, -0.9518142, 3.692667, 0
575, 4118242744, -0.614012, 0.13772571, 0.4089061, -0.6609229, -0.055458482, -1.3698708, 3.772502, 0
576, 4118259411, -0.6434008, 0.12509277, 0.38701493, -0.64854395, 0.48907226, -1.8223734, 3.305068, 0
577, 4118276078, -0.6711822, 0.10871026, 0.36498156, -0.63599324, 0.9765811, -1.9868559, 2.0579805, 0
578, 4118292745, -0.6969036, 0.091107085, 0.34313545, -0.6231256, 1.9288714, -1.7921816, 2.0305986, 0
579, 4118309412, -0.7203714, 0.072676025, 0.3199485, -0.6110798, 2.7881258, -2.2163365, 2.5363665, 0
580, 4118326079, -0.74159837, 0.052918646, 0.29495332, -0.6001972, 3.2249124, -3.1258237, 2.359295, 0
581, 4118342746, -0.7607705, 0.031072259, 0.26848993, -0.5900667, 2.793657, -3.3805103, 1.3549433, 0
582, 4118359413, -0.7777868, 0.010051144, 0.24324898, -0.5794644, 2.457469, -2.8091805, 0.22713757, 0
583, 4118376080, -0.7922473, -0.008478378, 0.22078313, -0.56879663, 1.9734075, -2.2009962, 0.12090683, 0
584, 4118392747, -0.80389273, -0.02409915, 0.20143922, -0.55910677, 2.0318854, -1.8601948, -0.29474545, 0
585, 4118409414, -0.8131694, -0.03754939, 0.18447505, -0.5507421, 2.725345, -2.300962, -0.62558746, 0
586, 4118426081, -0.820684, -0.05088392, 0.16834612, -0.54364604, 3.387156, -2.8815453, -0.7265072, 0
587, 4118442748, -0.82668966, -0.06527943, 0.15226667, -0.53771764, 3.60876, -3.0479355, -0.88616085, 0
588, 4118459415, -0.831142, -0.08035122, 0.13658711, -0.5330038, 2.8956711, -2.7167804, -1.0635796, 0
589, 4118476082, -0.83399236, -0.09351344, 0.123417616, -0.5296059, 2.152824, -2.2657323, -1.6135979, 0
590, 4118492749, -0.8355193, -0.10352437, 0.11325037, -0.5276049, 2.3974078, -2.1710453, -2.154643, 0
591, 4118509416, -0.83593494, -0.11164619, 0.10493344, -0.5270099, 3.1759996, -2.2925696, -2.6033096, 0
592, 4118526083, -0.8354295, -0.12000893, 0.09700065, -0.527493, 3.6275427, -2.374755, -3.0447521, 0
593, 4118542750, -0.8339353, -0.12956724, 0.08925358, -0.5289617, 3.5801632, -2.2901275, -3.481576, 0
594, 4118559417, -0.8314188, -0.14010583, 0.08208817, -0.5313917, 3.1484592, -1.9258654, -3.6524038, 0
595, 4118576084, -0.82792, -0.15020935, 0.07669706, -0.5348883, 2.7231092, -1.4263337, -3.9087067, 0
596, 4118592751, -0.8233226, -0.1588388, 0.073655285, -0.5398958, 2.9225354, -0.96564704, -4.0862494, 0
597, 4118609418, -0.8174251, -0.16614014, 0.07259759, -0.54675937, 3.3342834, -0.53990203, -4.2016892, 0
598, 4118626085, -0.8100484, -0.17317224, 0.07247826, -0.55550206, 3.7339146, -0.20016798, -4.272156, 0
599, 4118642752, -0.8013346, -0.18049186, 0.07288023, -0.5656646, 3.6395519, 0.068120435, -4.349003, 0
600, 4118659419, -0.79147464, -0.18722135, 0.07509161, -0.5769573, 3.113928, 0.28849494, -4.362735, 0
601, 4118676086, -0.7805646, -0.19251564, 0.07988692, -0.58930236, 2.9815228, 0.7068452, -4.2354174, 0
602, 4118692753, -0.76877713, -0.19611397, 0.08722046, -0.6024252, 2.9522676, 0.9904483, -3.9451375, 0
603, 4118709420, -0.75619006, -0.19791535, 0.097004004, -0.6161157, 2.7063625, 1.0418175, -3.4542284, 0
604, 4118726087, -0.7429435, -0.19748172, 0.10971334, -0.6300803, 2.6255274, 1.2697421, -3.0429711, 0
605, 4118742754, -0.7291367, -0.19453396, 0.12595163, -0.6439369, 2.4094203, 1.3362654, -2.4171805, 0
606, 4118759421, -0.71484774, -0.18892734, 0.144748, -0.65753305, 1.9193292, 1.7855505, -1.8019705, 0
607, 4118776088, -0.7002527, -0.17999163, 0.16624251, -0.6705332, 1.525887, 1.4930633, -0.731266, 0
608, 4118792755, -0.68512666, -0.16826227, 0.19042847, -0.68266284, 1.2224675, 1.4995859, -0.14261723, 0
609, 4118809422, -0.6696019, -0.15339865, 0.21705994, -0.6935342, 0.9615838, 1.5359926, 0.47174168, 0
610, 4118826089, -0.6534873, -0.13552858, 0.245339, -0.703134, 1.2591125, 1.5375848, 1.6068506, 0
611, 4118842756, -0.63634354, -0.115902774, 0.27318227, -0.7120445, 1.4493601, 1.3075218, 3.383625, 0
612, 4118859423, -0.61806715, -0.09569082, 0.29836935, -0.7209815, 0.70961004, 0.9296612, 4.6792316, 0
613, 4118876090, -0.5989425, -0.07454448, 0.32110575, -0.7297975, -0.19978951, 0.6315149, 5.264102, 0
614, 4118892757, -0.57892615, -0.051181488, 0.34278673, -0.7380547, -1.0306325, 0.10689228, 6.438072, 0
615, 4118909424, -0.55773807, -0.026858686, 0.3618032, -0.7465305, -1.4358528, -0.48257944, 7.5231647, 0
616, 4118926091, -0.5359272, -0.0022822078, 0.3761709, -0.75582707, -2.214939, -0.67840767, 7.8550987, 0
617, 4118942758, -0.51423055, 0.02260771, 0.3866735, -0.7652071, -3.2031946, -0.7289728, 7.4740868, 0
618, 4118959425, -0.4931564, 0.0483871, 0.39462572, -0.77377546, -4.0653934, -0.5740478, 6.343767, 0
619, 4118976092, -0.47292966, 0.07540671, 0.4008599, -0.7810028, -4.7216167, 0.01008334, 5.2358074, 0
620, 4118992759, -0.45324194, 0.10310899, 0.40523505, -0.78722763, -5.199377, 0.23083653, 4.616974, 0
621, 4119009426, -0.4347266, 0.13053532, 0.4067116, -0.7928188, -5.203886, 0.66247165, 3.861351, 0
622, 4119026093, -0.41858113, 0.15740575, 0.4050076, -0.79748636, -5.187017, 1.044164, 2.5223427, 0
623, 4119042760, -0.40506643, 0.18340524, 0.40117416, -0.80084044, -5.2975307, 1.2288325, 0.8928995, 0
624, 4119059427, -0.39382514, 0.20859155, 0.39644316, -0.8026372, -5.3974223, 1.358193, -0.52882195, 0
625, 4119076094, -0.38469183, 0.23302424, 0.39152017, -0.8027617, -5.196379, 1.5593172, -1.581996, 0
626, 4119092761, -0.37792552, 0.25660095, 0.38629285, -0.80131674, -4.9755807, 1.7940447, -2.3431768, 0
627, 4119109428, -0.37346512, 0.27880186, 0.38089007, -0.7985729, -4.4558916, 1.892636, -3.0382261, 0
628, 4119126095, -0.37153602, 0.2993902, 0.3754437, -0.79458857, -4.097309, 2.0954754, -3.3038397, 0
629, 4119142762, -0.37240532, 0.31807446, 0.36978835, -0.789558, -3.8200402, 2.1655226, -3.6238894, 0
630, 4119159429, -0.37586534, 0.33497414, 0.36444598, -0.78338945, -3.6529987, 2.1306841, -4.0225153, 0
631, 4119176096, -0.38159376, 0.3503611, 0.35998854, -0.7759147, -3.4002006, 2.201354, -4.189836, 0
632, 4119192763, -0.3894525, 0.36408263, 0.35659403, -0.7672118, -3.189624, 2.2352781, -4.009614, 0
633, 4119209430, -0.39942765, 0.3758858, 0.3541119, -0.75747913, -3.0524752, 2.2228541, -3.673324, 0
634, 4119226097, -0.41154444, 0.3855381, 0.3525328, -0.746803, -2.808424, 2.160557, -3.2159276, 0
635, 4119242764, -0.42576757, 0.39291415, 0.35193205, -0.735178, -2.5024734, 2.24129, -2.7562513, 0
636, 4119259431, -0.4420608, 0.3979009, 0.35197067, -0.72275585, -2.093134, 2.4263937, -2.3652792, 0
637, 4119276098, -0.46045363, 0.40067032, 0.35255206, -0.7093343, -1.644788, 2.510053, -2.0230021, 0
638, 4119292765, -0.48089552, 0.4011248, 0.35338998, -0.69495076, -1.2826161, 2.6020951, -1.612772, 0
639, 4119309432, -0.50317496, 0.39922875, 0.35443315, -0.6795668, -0.8766708, 2.5125928, -1.3688421, 0
640, 4119326099, -0.52657175, 0.39530757, 0.3563333, -0.6629353, -0.4241468, 2.3891957, -1.1007547, 0
641, 4119342766, -0.5506899, 0.3891377, 0.35891804, -0.6453626, 0.0038153662, 2.2712069, -0.7129917, 0
642, 4119359433, -0.57523614, 0.3803127, 0.36195004, -0.627264, 0.33572966, 2.1558857, -0.35804558, 0
643, 4119376100, -0.60024476, 0.36887616, 0.36523378, -0.6084759, 0.68886805, 1.9242548, 0.12168026, 0
644, 4119392767, -0.62612206, 0.35476887, 0.3680532, -0.58876956, 1.0366974, 1.7717733, 0.7554989, 0
645, 4119409434, -0.6528477, 0.3378936, 0.3698577, -0.56817704, 1.3492713, 1.4138173, 0.9833317, 0
646, 4119426101, -0.6795247, 0.31881288, 0.37087727, -0.546861, 1.3731614, 1.1624191, 1.0905542, 0
647, 4119442768, -0.70492023, 0.29898262, 0.37205315, -0.5246674, 1.1589911, 0.9985797, 1.1726103, 0
648, 4119459435, -0.72891486, 0.27938986, 0.3726617, -0.501747, 1.3583823, 1.0109594, 2.0895815, 0
649, 4119476102, -0.7520201, 0.25909492, 0.37183213, -0.47862178, 1.6031109, 0.3307804, 2.558095, 0
650, 4119492769, -0.7740135, 0.23822707, 0.37014663, -0.45513162, 1.1679946, 0.12026763, 2.5835361, 0
651, 4119509436, -0.79441226, 0.21772373, 0.36723757, -0.43202373, 0.6677007, -0.03775402, 3.3955183, 0
652, 4119526103, -0.8131853, 0.19703788, 0.36312002, -0.4099417, 0.5524002, -0.74157846, 4.0645742, 0
653, 4119542770, -0.8305206, 0.17584702, 0.35796043, -0.3888191, 1.1703455, -1.1798221, 4.423853, 0
654, 4119559437, -0.8466191, 0.15410618, 0.35108802, -0.36908954, 1.034742, -2.0054703, 4.769539, 0
655, 4119576104, -0.86101496, 0.13208342, 0.34317333, -0.3513426, 0.22875836, -2.2776437, 4.6583786, 0
656, 4119592771, -0.8734578, 0.11231309, 0.3346691, -0.33534494, -0.10635417, -2.2324831, 4.6157303, 0
657, 4119609438, -0.8844741, 0.09476049, 0.32547513, -0.3206158, 0.04312459, -2.3845537, 4.1524467, 0
658, 4119626105, -0.8943725, 0.08044332, 0.31574628, -0.30648568, 0.47102135, -2.3048477, 3.7051477, 0
659, 4119642772, -0.903419, 0.068628065, 0.30467367, -0.2937696, 0.42895868, -2.529734, 3.740223, 0
660, 4119659439, -0.9113643, 0.059530973, 0.29252353, -0.283379, 0.2503848, -2.6656013, 3.9474058, 0
661, 4119676106, -0.9185812, 0.05208469, 0.27878737, -0.27527365, 0.37951338, -2.6056008, 3.8443127, 0
662, 4119692773, -0.92501783, 0.04738874, 0.26388833, -0.2691874, 0.9076166, -3.0741944, 3.7590952, 0
663, 4119709440, -0.9308439, 0.044557456, 0.24729747, -0.26531282, 1.3843815, -3.4041755, 3.4450054, 0
664, 4119726107, -0.9361259, 0.042993914, 0.22890683, -0.26348403, 1.4994023, -3.495458, 2.9861336, 0
665, 4119742774, -0.940616, 0.0433479, 0.20949636, -0.2635831, 1.3200758, -3.6885662, 2.4465647, 0
666, 4119759441, -0.94417053, 0.044837482, 0.18923943, -0.26593694, 1.6604913, -4.208355, 2.0889072, 0
667, 4119776108, -0.9468458, 0.045968723, 0.16776474, -0.27060497, 2.1762204, -4.7561383, 1.7600918, 0
668, 4119792775, -0.948672, 0.044987828, 0.14510758, -0.27738798, 2.3658395, -4.9374514, 1.0915232, 0
669, 4119809442, -0.9495462, 0.041468967, 0.12155808, -0.28612608, 2.4158897, -4.8366776, 0.48701382, 0
670, 4119826109, -0.9493011, 0.035854828, 0.09771955, -0.29663935, 2.4898236, -4.634988, -0.14368725, 0
671, 4119842776, -0.94794375, 0.028566249, 0.07366269, -0.30848432, 2.552875, -4.359934, -0.9009247, 0
672, 4119859443, -0.9453571, 0.020126939, 0.04969333, -0.32160246, 2.6032336, -4.0095053, -1.5054846, 0
673, 4119876110, -0.9415192, 0.010792337, 0.02617169, -0.33577192, 2.456184, -3.740875, -2.0539398, 0
674, 4119892777, -0.9363876, 9.250188E-4, 0.003545869, -0.35095158, 2.3626666, -3.474956, -2.6558037, 0
675, 4119909444, -0.9299753, -0.0093056755, -0.017896518, -0.3670717, 2.220452, -3.1374848, -3.2696824, 0
676, 4119926111, -0.92234975, -0.019437114, -0.03785447, -0.38400856, 2.0158591, -2.7763054, -3.9221087, 0
677, 4119942778, -0.9136074, -0.029089589, -0.056123644, -0.40165603, 1.7471292, -2.5025403, -4.4292903, 0
678, 4119959445, -0.90387636, -0.037855584, -0.072376385, -0.41992685, 1.5443776, -2.3060412, -4.923255, 0
679, 4119976112, -0.89328825, -0.04556076, -0.08641095, -0.43874347, 1.3486129, -1.9601141, -5.1608195, 0
680, 4119992779, -0.88198197, -0.05197706, -0.09797488, -0.45804963, 1.1898079, -1.780525, -5.205485, 0
681, 4120009446, -0.8701441, -0.05696075, -0.10705185, -0.47764716, 1.0287329, -1.689578, -5.1659822, 0
682, 4120026113, -0.8578725, -0.060733926, -0.11383198, -0.49740425, 0.9318697, -1.6475401, -5.1028175, 0
683, 4120042780, -0.8452261, -0.06362889, -0.11835323, -0.51724195, 1.1160645, -1.4830561, -5.1833677, 0
684, 4120059447, -0.83225244, -0.06612914, -0.12094075, -0.5369902, 1.3844496, -1.2012175, -5.1955843, 0
685, 4120076114, -0.819097, -0.06826864, -0.12169352, -0.55642855, 1.4434044, -0.796384, -5.143079, 0
686, 4120092781, -0.80583644, -0.06959046, -0.12004524, -0.5756532, 1.1277174, -0.26487207, -4.9048395, 0
687, 4120109448, -0.7924597, -0.06962233, -0.11516184, -0.5948954, 0.8163819, 0.022854367, -4.6083603, 0
688, 4120126115, -0.7788074, -0.06813693, -0.1065181, -0.61438787, 0.979396, 0.11362337, -4.248601, 0
689, 4120142782, -0.76472676, -0.06646719, -0.09489453, -0.63385534, 1.496025, 0.020771142, -3.4589834, 0
690, 4120159449, -0.75010717, -0.06544733, -0.08049456, -0.6531302, 1.9403716, 0.18603472, -2.8092794, 0
691, 4120176116, -0.73494345, -0.06458107, -0.06352269, -0.67205256, 1.7796376, 0.6113381, -2.1432638, 0
692, 4120192783, -0.71912694, -0.06316213, -0.04466163, -0.6905611, 2.0622869, 1.1835234, -1.1466084, 0
693, 4120209450, -0.70286715, -0.06039577, -0.0241564, -0.7083423, 1.7375833, 1.7289975, -0.37833405, 0
694, 4120226117, -0.68601066, -0.053262305, 3.1170383E-4, -0.72564113, 1.0323095, 2.1184504, 0.21533203, 0
695, 4120242784, -0.6680392, -0.04148941, 0.028782826, -0.7424124, 1.2922573, 2.2324224, 1.0564528, 0
696, 4120259451, -0.6486154, -0.02748844, 0.058416184, -0.75837487, 1.850622, 2.3011441, 2.3503237, 0
697, 4120276118, -0.6277974, -0.0122973835, 0.08748376, -0.77334875, 2.001316, 2.45078, 3.5123863, 0
698, 4120292785, -0.6059628, 0.0033696934, 0.11454025, -0.78719795, 1.780286, 2.6983871, 4.622813, 0
699, 4120309452, -0.5835922, 0.019012857, 0.13763505, -0.80007344, 1.3702325, 2.9957824, 5.921114, 0
700, 4120326119, -0.5611669, 0.033524297, 0.15509257, -0.8123526, 0.21989149, 2.7026742, 6.559166, 0
701, 4120342786, -0.53840625, 0.048300307, 0.1698282, -0.8239822, -1.1058378, 2.170097, 6.556629, 0
702, 4120359453, -0.51489353, 0.064569026, 0.18380123, -0.83482635, -2.1053069, 1.909618, 6.481512, 0
703, 4120376120, -0.49140003, 0.08219984, 0.19649044, -0.84449005, -3.0900028, 1.7349991, 6.169587, 0
704, 4120392787, -0.4681542, 0.10164045, 0.20855303, -0.85264814, -3.8352544, 1.7540166, 5.49644, 0
705, 4120409454, -0.44534016, 0.12208949, 0.22012635, -0.8592514, -4.2002273, 1.5631576, 4.785722, 0
706, 4120426121, -0.42309266, 0.14284539, 0.23060851, -0.8645287, -4.2602644, 1.5759244, 4.1859827, 0
707, 4120442788, -0.4016934, 0.16341531, 0.23932318, -0.8687144, -4.573363, 1.558806, 3.5601892, 0
708, 4120459455, -0.3817475, 0.1832049, 0.24559271, -0.8720043, -4.894863, 1.5288042, 2.5074081, 0
709, 4120476122, -0.36333916, 0.20254005, 0.25004384, -0.87432414, -5.174745, 1.4397954, 1.4718809, 0
710, 4120492789, -0.34642065, 0.2210121, 0.25294945, -0.87587976, -5.12684, 1.2461648, 0.43436146, 0
711, 4120509456, -0.33092737, 0.2387098, 0.25458032, -0.8767531, -4.919374, 1.2735871, -0.29811096, 0
712, 4120526123, -0.3174194, 0.25536978, 0.25411803, -0.87718725, -4.785719, 1.1826495, -0.6877489, 0
713, 4120542790, -0.30644685, 0.2706556, 0.25140697, -0.8772871, -4.6538806, 0.83691454, -1.2789698, 0
714, 4120559457, -0.29801694, 0.2847639, 0.2474541, -0.87684923, -4.5655828, 0.42977652, -2.0628686, 0
715, 4120576124, -0.29164585, 0.29787445, 0.24348368, -0.87574637, -4.375536, 0.030290307, -2.8382454, 0
716, 4120592791, -0.28677136, 0.30990326, 0.24030825, -0.87405765, -4.05957, -0.120198116, -3.3369732, 0
717, 4120609458, -0.2833885, 0.3208992, 0.23778789, -0.8718796, -3.8602262, 0.005047705, -3.533389, 0
718, 4120626125, -0.28195468, 0.33080804, 0.23551594, -0.86925393, -3.7033145, 0.050402675, -3.6550975, 0
719, 4120642792, -0.28258517, 0.33957893, 0.2339586, -0.8660819, -3.4776454, 0.09015177, -3.8284612, 0
720, 4120659459, -0.28528252, 0.3473064, 0.23311175, -0.86235356, -3.3533068, 0.3697448, -3.835155, 0
721, 4120676126, -0.2902628, 0.3539425, 0.23243698, -0.85816514, -3.0858023, 0.6189156, -3.8404078, 0
722, 4120692793, -0.2976074, 0.3596313, 0.23195067, -0.8534028, -2.9048054, 0.7296925, -3.8695683, 0
723, 4120709460, -0.3072858, 0.36437616, 0.23177765, -0.8479899, -2.6893787, 0.67593724, -3.7603202, 0
724, 4120726127, -0.31895372, 0.36805445, 0.23252156, -0.8418674, -2.394137, 0.53464264, -3.6291804, 0
725, 4120742794, -0.33221075, 0.37054652, 0.23471917, -0.8350092, -2.1991253, 0.50043374, -3.4328623, 0
726, 4120759461, -0.34687206, 0.37179795, 0.23858042, -0.8273619, -1.9118149, 0.7313044, -3.2814898, 0
727, 4120776128, -0.3630645, 0.37164465, 0.24390198, -0.81888866, -1.7165878, 1.0590193, -3.1319299, 0
728, 4120792795, -0.38095906, 0.36998802, 0.2501612, -0.8095682, -1.4704015, 1.4946858, -3.035696, 0
729, 4120809462, -0.40059412, 0.36667302, 0.25722387, -0.7993205, -1.3562751, 1.6147665, -2.7334995, 0
730, 4120826129, -0.4217082, 0.36188427, 0.26494083, -0.7880423, -1.110593, 1.8558501, -2.5000868, 0
731, 4120842796, -0.44422966, 0.3557691, 0.27288434, -0.77564496, -0.71878815, 2.1108756, -2.253687, 0
732, 4120859463, -0.467742, 0.34854656, 0.28128532, -0.7619802, -0.58863556, 2.3859966, -2.3785596, 0
733, 4120876130, -0.49118662, 0.3408326, 0.29073974, -0.7470218, -0.4214796, 2.501984, -2.4436946, 0
734, 4120892797, -0.5139932, 0.33268824, 0.30157825, -0.73087776, -0.28663635, 2.575714, -2.1099935, 0
735, 4120909464, -0.5364465, 0.32386878, 0.31307593, -0.7136668, 0.06891295, 2.9861972, -1.5428362, 0
736, 4120926131, -0.5591299, 0.31396064, 0.32434037, -0.6954194, 0.53849024, 3.383374, -0.9783592, 0
737, 4120942798, -0.5822143, 0.3031703, 0.33490065, -0.675987, 1.017203, 3.3790815, -0.5131674, 0
738, 4120959465, -0.6054096, 0.2911531, 0.344696, -0.6556647, 1.2387787, 2.9621758, -0.29592705, 0
739, 4120976132, -0.62799793, 0.2777364, 0.35430878, -0.63478273, 1.1102729, 2.7147293, -0.36739635, 0
740, 4120992799, -0.6493321, 0.26312956, 0.36470205, -0.61329067, 0.99115974, 2.575142, -0.072520256, 0
741, 4121009466, -0.66957885, 0.24781571, 0.37590522, -0.5907192, 1.6664634, 2.5222976, 0.50597477, 0
742, 4121026133, -0.68883747, 0.23210867, 0.3872741, -0.5671419, 2.1560576, 2.8595953, 0.53210926, 0
743, 4121042800, -0.70692205, 0.21597546, 0.39860612, -0.5428916, 2.3964553, 2.9515333, 0.47669983, 0
744, 4121059467, -0.72337115, 0.19956547, 0.41035676, -0.5181868, 2.6361163, 3.0385182, 0.48230362, 0
745, 4121076134, -0.7385491, 0.18232392, 0.42232668, -0.49289525, 2.9209476, 2.668911, 1.0993519, 0
746, 4121092801, -0.75300753, 0.16275696, 0.43390495, -0.46713883, 2.8073366, 1.6566981, 1.8188286, 0
747, 4121109468, -0.7666509, 0.14044434, 0.44457135, -0.44145256, 2.9671307, 0.78732294, 2.1656551, 0
748, 4121126135, -0.7789184, 0.11668534, 0.45478886, -0.4157407, 2.5802264, 0.90920234, 1.7239475, 0
749, 4121142802, -0.7891494, 0.09335033, 0.46551934, -0.3896448, 2.351628, 1.9612118, 1.5826826, 0
750, 4121159469, -0.79727757, 0.071651585, 0.47723404, -0.36258054, 2.6730008, 1.7822367, 2.1295338, 0
751, 4121176136, -0.8034048, 0.051275704, 0.48974672, -0.3347565, 2.7021327, 1.0240452, 2.720087, 0
752, 4121192803, -0.80773383, 0.030521644, 0.50231487, -0.3071103, 2.3169394, -0.31414986, 3.2196941, 0
753, 4121209470, -0.8101965, 0.008018819, 0.51462924, -0.2804936, 1.8585665, -1.2700603, 3.446783, 0
754, 4121226137, -0.81098187, -0.016452225, 0.5260427, -0.25557593, 1.7298862, -1.5056957, 3.8578796, 0
755, 4121242804, -0.8103825, -0.041601278, 0.5362854, -0.2322715, 1.5561182, -1.2501197, 4.0598, 0
756, 4121259471, -0.80850565, -0.06573191, 0.5457147, -0.21022768, 1.3091016, -1.0997025, 4.1334, 0
757, 4121276138, -0.80556697, -0.08724959, 0.55473816, -0.18899035, 0.85583556, -1.3905011, 4.0270433, 0
758, 4121292805, -0.8017765, -0.10527996, 0.56369716, -0.16828069, 0.42707112, -1.8937305, 3.874631, 0
759, 4121309472, -0.79779005, -0.11925819, 0.5722225, -0.14789373, 0.14359993, -1.9936919, 4.0118275, 0
760, 4121326139, -0.7942453, -0.1288888, 0.5799062, -0.1275652, -0.43002775, -2.1923907, 4.0937862, 0
761, 4121342806, -0.7914142, -0.1340316, 0.58671063, -0.1071069, -1.2829715, -2.947094, 4.056364, 0
762, 4121359473, -0.7895629, -0.13492619, 0.59233415, -0.08676495, -1.8975588, -3.7700243, 3.7388515, 0
763, 4121376140, -0.78870183, -0.13268968, 0.5965139, -0.06720375, -2.2537522, -4.918525, 3.2234554, 0
764, 4121392807, -0.78861547, -0.13012089, 0.5989092, -0.049643904, -2.9219089, -6.153467, 2.4683733, 0
765, 4121409474, -0.7888538, -0.12926884, 0.5998509, -0.034358278, -3.494195, -6.913925, 1.5988836, 0
766, 4121426141, -0.78934175, -0.13054623, 0.5995314, -0.021490559, -4.0818186, -7.1744213, 1.1569414, 0
767, 4121442808, -0.7903555, -0.13341571, 0.5978448, -0.011070808, -4.465011, -7.019108, 1.0205088, 0
768, 4121459475, -0.7921872, -0.13701606, 0.5946926, -0.0030199252, -4.8123493, -6.3207684, 0.97412586, 0
769, 4121476142, -0.7949759, -0.14022484, 0.5902058, 0.0031375298, -5.1308036, -5.869419, 0.8390055, 0
770, 4121492809, -0.798587, -0.14253701, 0.5847112, 0.0075576566, -5.004966, -5.9994354, 0.6627188, 0
771, 4121509476, -0.80276215, -0.14547446, 0.5782086, 0.009336744, -4.5618873, -6.335043, 0.74250126, 0
772, 4121526143, -0.80744195, -0.15000793, 0.570504, 0.007907615, -4.1840777, -6.2911367, 0.9627905, 0
773, 4121542810, -0.8126726, -0.15594444, 0.5614575, 0.0035276236, -3.8742895, -5.9298406, 1.0320034, 0
774, 4121559477, -0.81838644, -0.16234191, 0.551255, -0.0030374168, -3.5538993, -5.5860906, 1.0238342, 0
775, 4121576144, -0.82441586, -0.16832374, 0.5402543, -0.011537925, -2.8975315, -5.5867877, 0.6682615, 0
776, 4121592811, -0.8306412, -0.17447698, 0.52829707, -0.022309713, -2.2146237, -5.7473516, 0.5224514, 0
777, 4121609478, -0.83696526, -0.18083647, 0.5153397, -0.034853958, -1.442726, -5.8754134, 0.11927509, 0
778, 4121626145, -0.8431357, -0.18756773, 0.50155705, -0.04882006, -0.94780535, -5.8984213, -0.16164875, 0
779, 4121642812, -0.8490763, -0.19409576, 0.48714313, -0.06395517, -0.28909522, -5.829991, -0.4668827, 0
780, 4121659479, -0.8546138, -0.20103388, 0.47202423, -0.080101244, 0.5652759, -5.929496, -0.74848175, 0
781, 4121676146, -0.8596438, -0.20773429, 0.45656455, -0.09700628, 1.6266048, -5.98625, -0.9876776, 0
782, 4121692813, -0.8640727, -0.21407661, 0.44087443, -0.11481216, 2.5297024, -5.832947, -1.1055326, 0
783, 4121709480, -0.86790013, -0.21953695, 0.42516133, -0.13339186, 3.4612765, -5.6067343, -1.2174149, 0
784, 4121726147, -0.87103474, -0.22392927, 0.40964636, -0.15279539, 4.3554144, -5.485257, -1.420372, 0
785, 4121742814, -0.8733164, -0.22759393, 0.39446834, -0.17296377, 5.008522, -4.820099, -1.3958206, 0
786, 4121759481, -0.87466925, -0.23000467, 0.38015437, -0.19374299, 5.4923506, -3.9268124, -1.5317678, 0
787, 4121776148, -0.87496036, -0.23088425, 0.36703783, -0.21545911, 5.806971, -3.3685257, -1.7632799, 0
788, 4121792815, -0.87369514, -0.23139475, 0.3551516, -0.23871085, 6.242995, -3.2001653, -1.9635057, 0
789, 4121809482, -0.8706178, -0.23249449, 0.34430638, -0.263489, 6.6575265, -2.8373423, -1.9911675, 0
790, 4121826149, -0.86582386, -0.23431979, 0.33407837, -0.28954652, 7.013343, -1.9105034, -1.9384398, 0
791, 4121842816, -0.8595226, -0.23598514, 0.32451102, -0.31658626, 6.966677, -1.0098473, -1.9763746, 0
792, 4121859483, -0.8516, -0.23710142, 0.3160421, -0.34450024, 6.949551, -0.5219653, -1.9342165, 0
793, 4121876150, -0.8419533, -0.23790908, 0.30861184, -0.37319547, 6.983414, 0.12417374, -1.5443192, 0
794, 4121892817, -0.8306943, -0.23811768, 0.30209142, -0.4024802, 6.7237105, 1.0895165, -1.0780029, 0
795, 4121909484, -0.8179412, -0.23664737, 0.29679203, -0.43230438, 6.1314826, 2.1032875, -0.8246927, 0
796, 4121926151, -0.80373824, -0.23271509, 0.29287133, -0.46268502, 5.8843184, 2.9191082, -0.576457, 0
797, 4121942818, -0.78802377, -0.22669858, 0.29043028, -0.49323332, 5.5100536, 3.4583673, -0.19687271, 0
798, 4121959485, -0.7707769, -0.2186771, 0.28956124, -0.5236791, 4.9059052, 4.121083, 0.2180109, 0
799, 4121976152, -0.7520714, -0.2082098, 0.29047486, -0.5537725, 4.0751495, 4.650039, 0.8998203, 0
800, 4121992819, -0.7321029, -0.19449438, 0.29348013, -0.5831545, 3.0055518, 5.211825, 1.4299955, 0
801, 4122009486, -0.71129024, -0.17673166, 0.29843023, -0.61137074, 1.4724638, 5.6619945, 1.8466768, 0
802, 4122026153, -0.6898716, -0.15394616, 0.30673984, -0.63740945, -0.11106984, 5.7632694, 2.1728468, 0
803, 4122042820, -0.66738313, -0.1269261, 0.3193881, -0.6606689, -0.9681873, 5.5757155, 2.1214733, 0
804, 4122059487, -0.6432043, -0.09731793, 0.33605132, -0.68109435, -1.4335669, 5.1774116, 2.2879019, 0
805, 4122076154, -0.61700726, -0.06784647, 0.3527785, -0.7001775, -1.9402312, 4.978539, 2.6907234, 0
806, 4122092821, -0.589028, -0.0389409, 0.36824015, -0.71828336, -2.916171, 5.021132, 2.7214746, 0
807, 4122109488, -0.5595335, -0.010233918, 0.38218522, -0.7353601, -4.0209303, 4.9789367, 2.854373, 0
808, 4122126155, -0.5287146, 0.018423503, 0.39444643, -0.75135607, -4.798852, 4.5542145, 3.2300081, 0
809, 4122142822, -0.49768093, 0.046295345, 0.40392205, -0.7661722, -6.0546374, 3.9049292, 3.0658722, 0
810, 4122159489, -0.4670841, 0.07413939, 0.4113708, -0.7791742, -7.3612013, 3.216257, 2.210105, 0
811, 4122176156, -0.43739772, 0.10207964, 0.41793504, -0.78968066, -8.155871, 2.4108691, 1.1538439, 0
812, 4122192823, -0.4090338, 0.12960711, 0.4241258, -0.7975042, -8.502542, 1.9169924, 0.37974262, 0
813, 4122209490, -0.38236046, 0.15648894, 0.4296622, -0.80293494, -8.62189, 1.6345915, -0.36154842, 0
814, 4122226157, -0.35806695, 0.18219498, 0.4338714, -0.80644333, -8.944502, 1.4213662, -1.0116835, 0
815, 4122242824, -0.33723474, 0.20629741, 0.43622795, -0.8083449, -9.451477, 1.1893302, -1.7816563, 0
816, 4122259491, -0.32024935, 0.22874331, 0.4374292, -0.8085635, -9.457885, 1.0374781, -2.7320056, 0
817, 4122276158, -0.30725017, 0.24985243, 0.43790168, -0.80710316, -9.136784, 0.81018907, -3.4354215, 0
818, 4122292825, -0.29832935, 0.26938173, 0.43781498, -0.8042098, -8.502169, 0.6214961, -4.0323935, 0
819, 4122309492, -0.29345945, 0.28731856, 0.4379317, -0.7997174, -7.8763795, 0.6374415, -4.58412, 0
820, 4122326159, -0.29260194, 0.30359158, 0.4387944, -0.79352254, -7.3919287, 1.0715232, -4.721912, 0
821, 4122342826, -0.2959923, 0.3178735, 0.43991554, -0.78601617, -7.038979, 1.563203, -4.625442, 0
822, 4122359493, -0.3038509, 0.32987928, 0.44070318, -0.7775843, -6.6844096, 2.1381269, -4.4763646, 0
823, 4122376160, -0.31645626, 0.3395324, 0.44090402, -0.7682313, -5.9515333, 2.7129517, -4.2587075, 0
824, 4122392827, -0.33363852, 0.34672123, 0.44080928, -0.75773305, -5.1640587, 3.1691885, -4.2160454, 0
825, 4122409494, -0.35453695, 0.3513141, 0.44142407, -0.74567366, -4.5467052, 3.5121663, -4.305554, 0
826, 4122426161, -0.3780934, 0.35362703, 0.44369137, -0.73152816, -3.908723, 4.125934, -4.1456447, 0
827, 4122442828, -0.40394872, 0.3538359, 0.4473556, -0.7151928, -3.334318, 4.790376, -3.3729954, 0
828, 4122459495, -0.4323364, 0.351545, 0.4511797, -0.6970945, -2.5217924, 5.3913713, -2.1515408, 0
829, 4122476162, -0.4633852, 0.34614956, 0.45454314, -0.6773828, -1.6301877, 5.5540104, -1.2414122, 0
830, 4122492829, -0.49634364, 0.33739716, 0.45773593, -0.65596217, -0.8269845, 5.592768, -0.7568035, 0
831, 4122509496, -0.53029317, 0.32570603, 0.4611073, -0.6325246, 0.068234034, 5.4865108, -0.12371349, 0
832, 4122526163, -0.5642679, 0.31122562, 0.4650508, -0.6070177, 0.64125216, 5.04853, 0.67495537, 0
833, 4122542830, -0.59773713, 0.29434294, 0.46890768, -0.5798279, 1.4983678, 4.982378, 1.6909113, 0
834, 4122559497, -0.63133025, 0.27531204, 0.47158784, -0.55066574, 2.4595678, 4.259658, 2.8721113, 0
835, 4122576164, -0.6644271, 0.2545684, 0.4732657, -0.5193781, 3.0032525, 3.5290353, 3.4950638, 0
836, 4122592831, -0.6960857, 0.2332796, 0.47392607, -0.48625287, 3.4609802, 3.1993065, 3.869955, 0
837, 4122609498, -0.7251089, 0.21297574, 0.47447193, -0.4513725, 3.4372776, 2.6364088, 3.6436796, 0
838, 4122626165, -0.75113696, 0.19477537, 0.47517967, -0.4148041, 3.7380154, 1.6012594, 4.571929, 0
839, 4122642832, -0.7749687, 0.17748855, 0.47491148, -0.37733632, 4.2007976, -0.33768985, 5.768673, 0
840, 4122659499, -0.79744655, 0.15991998, 0.47194785, -0.3402532, 4.2694354, -1.9691056, 6.1702595, 0
841, 4122676166, -0.8175706, 0.1431155, 0.467545, -0.3041386, 3.4338984, -2.5169048, 5.5184927, 0
842, 4122692833, -0.8346394, 0.12922515, 0.46292302, -0.26904097, 2.958101, -3.2072737, 5.173726, 0
843, 4122709500, -0.84912044, 0.11793088, 0.45774034, -0.23571855, 2.2051234, -4.728159, 5.5102205, 0
844, 4122726167, -0.861704, 0.10808212, 0.45148283, -0.20481722, 1.9131596, -6.564026, 5.4506483, 0
845, 4122742834, -0.8729816, 0.098689735, 0.44333243, -0.1778262, 1.3895171, -7.0570164, 4.9425106, 0
846, 4122759501, -0.8829302, 0.090192005, 0.43365702, -0.15570334, 1.1045862, -7.6477704, 4.0747576, 0
847, 4122776168, -0.89192075, 0.08253672, 0.42238113, -0.13878731, 0.8582115, -8.43903, 3.2595987, 0
848, 4122792835, -0.9001124, 0.074556194, 0.41012764, -0.12663695, 0.30155563, -9.246697, 2.4711952, 0
849, 4122809502, -0.9075853, 0.065555215, 0.39713448, -0.11948995, 0.043137107, -9.889738, 1.8785944, 0
850, 4122826169, -0.9145044, 0.054994445, 0.38315478, -0.117694035, 0.29751787, -10.425394, 1.468152, 0
851, 4122842836, -0.9209168, 0.04211215, 0.36795312, -0.12145504, 0.66642445, -10.923462, 0.90117073, 0
852, 4122859503, -0.92659706, 0.027105745, 0.35180646, -0.13006942, 0.9693645, -10.544892, 0.035716057, 0
853, 4122876170, -0.93131626, 0.011432885, 0.33522993, -0.14192417, 1.0573926, -9.058094, -0.7447643, 0
854, 4122892837, -0.9348872, -0.0014773107, 0.319117, -0.15540433, 1.0728687, -8.013187, -1.4856148, 0
855, 4122909504, -0.9373755, -0.010935733, 0.3036551, -0.17030415, 1.2124941, -7.848901, -1.8623142, 0
856, 4122926171, -0.93875605, -0.018400345, 0.28891924, -0.18688698, 1.603146, -8.188525, -2.1813269, 0
857, 4122942838, -0.939026, -0.025725614, 0.274825, -0.20504162, 2.174427, -8.114216, -2.1520762, 0
858, 4122959505, -0.9381494, -0.032857943, 0.26157233, -0.22445127, 3.1225758, -7.7706647, -2.2051706, 0
859, 4122976172, -0.93616277, -0.04004283, 0.2488641, -0.24508138, 3.840167, -6.7381577, -2.1778436, 0
860, 4122992839, -0.932843, -0.0470663, 0.23712893, -0.26713476, 4.0842514, -6.117736, -2.1873984, 0
861, 4123009506, -0.92809236, -0.053883664, 0.22658108, -0.2905247, 4.3777685, -5.482365, -2.2188468, 0
862, 4123026173, -0.9218529, -0.0608469, 0.21727528, -0.31508508, 4.9043684, -4.8322845, -2.3250313, 0
863, 4123042840, -0.9140673, -0.068745226, 0.20871902, -0.34087205, 5.422602, -4.059724, -2.4531503, 0
864, 4123059507, -0.90465814, -0.07794847, 0.20069207, -0.3677538, 5.636311, -3.244727, -2.451508, 0
865, 4123076174, -0.8936527, -0.08773115, 0.19328222, -0.39538896, 6.064164, -2.237587, -2.5294003, 0
866, 4123092841, -0.8811311, -0.0978093, 0.18628554, -0.4234872, 6.11749, -1.121831, -2.432025, 0
867, 4123109508, -0.86688364, -0.10805735, 0.17988822, -0.45219344, 6.0918627, -0.3449666, -2.1762414, 0
868, 4123126175, -0.85103726, -0.11816119, 0.17426541, -0.48104835, 5.9859066, 0.564157, -1.8763175, 0
869, 4123142842, -0.8338839, -0.12729739, 0.16950946, -0.5096098, 5.755893, 1.5403726, -1.4856148, 0
870, 4123159509, -0.81549627, -0.13526797, 0.16578989, -0.53775877, 5.5427094, 2.1469762, -1.0799656, 0
871, 4123176176, -0.79580706, -0.14257985, 0.16292457, -0.5655264, 5.375086, 2.7362773, -0.59403706, 0
872, 4123192843, -0.7749564, -0.14952855, 0.16030076, -0.5927817, 5.1834154, 3.6860626, -0.17460251, 0
873, 4123209510, -0.75321174, -0.15599297, 0.15722789, -0.6193705, 4.3187566, 4.743853, 0.26082516, 0
874, 4123226177, -0.7306766, -0.160707, 0.15428527, -0.64535534, 2.9242768, 5.4935584, 0.6425514, 0
875, 4123242844, -0.7073592, -0.16275817, 0.15242155, -0.6707629, 1.5915782, 5.8113337, 1.0914497, 0
876, 4123259511, -0.6833088, -0.16277048, 0.15164003, -0.69541526, 0.81881267, 5.7019053, 1.5126362, 0
877, 4123276178, -0.6585248, -0.16105114, 0.15280528, -0.7190692, 0.035909593, 5.571981, 1.5863218, 0
878, 4123292845, -0.6329563, -0.15776037, 0.15560524, -0.74180007, -0.68384427, 5.469085, 1.8252716, 0
879, 4123309512, -0.6065794, -0.15348051, 0.15989967, -0.76350486, -0.9423182, 5.264518, 1.5854654, 0
880, 4123326179, -0.57923424, -0.14959444, 0.16305655, -0.78455347, -0.98113984, 5.5509634, 1.8226576, 0
881, 4123342846, -0.5509757, -0.14651331, 0.163272, -0.80517346, -1.5949359, 5.6742125, 2.0763588, 0
882, 4123359513, -0.52225137, -0.14291137, 0.16224626, -0.82492924, -3.3302264, 4.8940225, 2.2178545, 0
883, 4123376180, -0.49333507, -0.13734923, 0.16236305, -0.8434431, -4.3886995, 4.262119, 2.1904783, 0
884, 4123392847, -0.46402398, -0.13022831, 0.16454972, -0.8606091, -4.52948, 3.570465, 2.1218653, 0
885, 4123409514, -0.4340615, -0.121738225, 0.16931504, -0.87641615, -4.5932226, 3.2011993, 1.8519783, 0
886, 4123426181, -0.40355223, -0.112710305, 0.17493093, -0.8909789, -4.547027, 2.9451432, 1.7531395, 0
887, 4123442848, -0.37265742, -0.10394015, 0.17963423, -0.9044649, -4.5132146, 3.0105908, 1.670558, 0
888, 4123459515, -0.34178132, -0.09467321, 0.18293257, -0.91692984, -4.704348, 2.8313076, 1.8037138, 0
889, 4123476182, -0.3110888, -0.08507503, 0.18436949, -0.92843753, -5.036866, 2.1266363, 1.9671192, 0
890, 4123492849, -0.28063414, -0.07465767, 0.18593074, -0.9386707, -5.4703436, 1.2773564, 1.5293417, 0
891, 4123509516, -0.2503572, -0.062665105, 0.18922535, -0.9474125, -5.8300896, 0.6182539, 1.1524649, 0
892, 4123526183, -0.22043647, -0.049786918, 0.19369279, -0.9546804, -5.5552154, 0.22064863, 1.1696959, 0
893, 4123542850, -0.19105567, -0.0365021, 0.19849423, -0.9606081, -5.2125454, 0.10695651, 1.2238321, 0
894, 4123559517, -0.16286923, -0.022893175, 0.20234169, -0.9654065, -5.085772, -0.29070723, 1.1203508, 0
895, 4123576184, -0.13620037, -0.008488657, 0.20588414, -0.9690158, -5.088065, -0.5750642, 0.8550644, 0
896, 4123592851, -0.11116831, 0.0068186643, 0.20947626, -0.97145116, -5.0962834, -1.1876861, 0.7755127, 0
897, 4123609518, -0.087874435, 0.022958668, 0.2135207, -0.97270864, -4.976401, -1.7590692, 0.58286285, 0
898, 4123626185, -0.06637291, 0.03987504, 0.21879394, -0.9726953, -4.765196, -2.142002, 0.33856392, 0
899, 4123642852, -0.04650811, 0.057351783, 0.22537892, -0.97147036, -4.550764, -2.3975983, 0.106321335, 0
900, 4123659519, -0.028326213, 0.07520716, 0.23325805, -0.9690896, -4.39674, -2.2461078, -0.069820404, 0
901, 4123676186, -0.012094697, 0.09359548, 0.24125762, -0.9658626, -4.3777065, -1.9176117, -0.18803406, 0
902, 4123692853, 0.0018474674, 0.11286668, 0.24860498, -0.96200603, -4.294109, -1.844137, -0.5840483, 0
903, 4123709520, 0.0134965265, 0.1326451, 0.25514182, -0.957668, -4.2134132, -1.8090801, -0.83122826, 0
904, 4123726187, 0.022786906, 0.15265347, 0.2607233, -0.95299715, -4.0191526, -1.6512707, -1.0329647, 0
905, 4123742854, 0.029503271, 0.17267573, 0.2651044, -0.9481745, -3.8739767, -1.664085, -1.3521862, 0
906, 4123759521, 0.03384357, 0.1926619, 0.26909637, -0.9430406, -3.8001225, -1.6386911, -1.9382396, 0
907, 4123776188, 0.036095537, 0.21254672, 0.27308613, -0.9375219, -3.6091077, -1.701335, -2.3152914, 0
908, 4123792855, 0.036525402, 0.2321334, 0.2774328, -0.93156505, -3.4095533, -1.8442429, -2.6620355, 0
909, 4123809522, 0.035501678, 0.2511031, 0.28258428, -0.92511374, -3.1962044, -1.6506112, -2.8880677, 0
910, 4123826189, 0.03289128, 0.26942077, 0.2879121, -0.9183897, -3.131878, -1.2816606, -2.871437, 0
911, 4123842856, 0.028244682, 0.28725338, 0.2927968, -0.9115702, -3.0417445, -0.94974804, -3.1266694, 0
912, 4123859523, 0.021614973, 0.30455866, 0.29753086, -0.9045743, -2.792401, -0.76688397, -3.5399876, 0
913, 4123876190, 0.013173577, 0.32118288, 0.30231017, -0.8973733, -2.5334313, -0.6712431, -3.8427348, 0
914, 4123892857, 0.002985165, 0.33697823, 0.30710575, -0.8900141, -2.2913616, -0.5911545, -4.063341, 0
915, 4123909524, -0.0087583745, 0.35180146, 0.3123257, -0.8823911, -2.1020203, -0.54699093, -4.205115, 0
916, 4123926191, -0.021719933, 0.36560044, 0.3183991, -0.8743506, -1.8949163, -0.3992807, -4.2400303, 0
917, 4123942858, -0.035652272, 0.3783506, 0.32532144, -0.86587995, -1.6256365, -0.2614383, -4.267097, 0
918, 4123959525, -0.050529215, 0.3900125, 0.33314294, -0.8569453, -1.5024642, -0.017117321, -4.070571, 0
919, 4123976192, -0.06676691, 0.40048587, 0.34165904, -0.8475994, -1.5542523, 0.35574386, -3.7115846, 0
920, 4123992859, -0.0849622, 0.40974838, 0.35027573, -0.8379722, -1.6465319, 0.7170309, -3.396861, 0
921, 4124009526, -0.105178915, 0.41769135, 0.35893673, -0.82803273, -1.5275973, 0.82034916, -3.3330388, 0
922, 4124026193, -0.12685116, 0.42419237, 0.36842075, -0.81745845, -1.2933483, 0.7803353, -3.3670306, 0
923, 4124042860, -0.14896788, 0.42907107, 0.37984374, -0.8058708, -1.0778311, 0.8759296, -3.3341746, 0
924, 4124059527, -0.1711227, 0.4326774, 0.39297357, -0.79314667, -1.1935968, 1.5816493, -3.1887374, 0
925, 4124076194, -0.19432664, 0.43536204, 0.4061481, -0.7795789, -1.3589495, 2.5680869, -2.6110406, 0
926, 4124092861, -0.2191858, 0.43706968, 0.41855478, -0.7653379, -0.96071565, 2.9673934, -1.9956045, 0
927, 4124109528, -0.24554831, 0.43769577, 0.43039602, -0.7502601, -0.73772997, 2.7697806, -1.9145832, 0
928, 4124126195, -0.27206138, 0.4374313, 0.44259232, -0.7339966, -0.7006864, 2.9141986, -2.161252, 0
929, 4124142862, -0.29797158, 0.43668208, 0.4554707, -0.71628934, -0.542951, 3.3481998, -1.7376394, 0
930, 4124159529, -0.32365486, 0.4353012, 0.4682096, -0.69752604, -0.30810836, 3.5604918, -0.9723635, 0
931, 4124176196, -0.34956896, 0.43286663, 0.4800678, -0.67820734, -0.20466992, 3.5948646, -0.41375065, 0
932, 4124192863, -0.3760011, 0.42926064, 0.4910481, -0.658204, -0.03940824, 3.4124832, 0.04942894, 0
933, 4124209530, -0.40250453, 0.42439842, 0.5010471, -0.63783246, -0.013008007, 3.2972806, 0.25090885, 0
934, 4124226197, -0.42840672, 0.41820946, 0.5100138, -0.617622, -0.09171295, 3.7852304, 0.115395546, 0
935, 4124242864, -0.453234, 0.41124347, 0.5186276, -0.5970639, 0.038468815, 3.8610992, 0.42651176, 0
936, 4124259531, -0.47771898, 0.40327138, 0.52656245, -0.5761, 0.1676745, 3.6931503, 1.3596392, 0
937, 4124276198, -0.5023324, 0.39332807, 0.5331363, -0.5556285, 0.3240911, 3.1017697, 1.8588114, 0
938, 4124292865, -0.52620274, 0.38138518, 0.5384426, -0.5364123, 0.4937562, 3.1036057, 1.9914827, 0
939, 4124309532, -0.5486159, 0.36866006, 0.54325086, -0.517679, 0.763362, 3.7029839, 2.0940409, 0
940, 4124326199, -0.5700036, 0.3559252, 0.5474437, -0.49871933, 0.9259042, 3.9371083, 2.6889677, 0
941, 4124342866, -0.59085286, 0.3431268, 0.5510128, -0.47910765, 1.1786973, 3.470291, 3.4828196, 0
942, 4124359533, -0.61139005, 0.3299616, 0.5540894, -0.45860088, 1.2862939, 2.3038921, 3.9837437, 0
943, 4124376200, -0.63148654, 0.31631225, 0.55681676, -0.43718308, 1.276921, 1.2563983, 3.9910479, 0
944, 4124392867, -0.6506983, 0.30192572, 0.55961573, -0.4150487, 1.2832786, 0.7545078, 4.111416, 0
945, 4124409534, -0.66929346, 0.28648657, 0.5622648, -0.3922149, 1.4126434, 0.2306542, 4.3949842, 0
946, 4124426201, -0.6877814, 0.26987973, 0.56396735, -0.36886978, 1.5494798, -0.22559476, 4.577132, 0
947, 4124442868, -0.70637524, 0.25236186, 0.5643701, -0.3447263, 1.5252471, -0.74492264, 4.278222, 0
948, 4124459535, -0.72445804, 0.2349459, 0.5639399, -0.31927258, 1.5599751, -1.2471601, 3.8848982, 0
949, 4124476202, -0.7413384, 0.21815203, 0.5631627, -0.29270723, 1.4620711, -1.7771307, 3.6817465, 0
950, 4124492869, -0.75664777, 0.20206301, 0.5622524, -0.26557386, 1.1604145, -2.1151059, 3.7702656, 0
951, 4124509536, -0.77071923, 0.18595675, 0.5608225, -0.23852165, 1.0778586, -2.9869208, 3.8778877, 0
952, 4124526203, -0.7837604, 0.16883647, 0.558912, -0.21173944, 0.7537197, -3.7559931, 4.000166, 0
953, 4124542870, -0.79575366, 0.15026848, 0.5564494, -0.18590803, 0.47890913, -4.040859, 3.9784813, 0
954, 4124559537, -0.80668455, 0.13099103, 0.55317485, -0.16155879, 0.2911444, -3.9074473, 3.7411957, 0
955, 4124576204, -0.8165114, 0.112874046, 0.54887694, -0.13894255, 0.2961444, -3.2668862, 3.3202734, 0
956, 4124592871, -0.82531077, 0.09812315, 0.5433691, -0.11826352, 0.15181537, -2.8158886, 3.1187763, 0
957, 4124609538, -0.83324766, 0.08738065, 0.53669333, -0.10012798, 0.103243314, -3.0197344, 3.1779146, 0
958, 4124626205, -0.8408769, 0.07903912, 0.52851105, -0.085774794, -0.17051268, -3.468014, 3.0296059, 0
959, 4124642872, -0.84828454, 0.071856104, 0.51918185, -0.07551627, -0.41000724, -4.398741, 2.7868795, 0
960, 4124659539, -0.8557005, 0.06379934, 0.5088232, -0.06933624, -0.47700524, -5.0831656, 2.7272968, 0
961, 4124676206, -0.8630367, 0.054740436, 0.4978197, -0.065947436, -0.373272, -5.0391645, 2.350236, 0
962, 4124692873, -0.8703501, 0.045488466, 0.48611036, -0.064192586, -0.48900074, -4.23896, 1.8920584, 0
963, 4124709540, -0.87750083, 0.038420573, 0.47391185, -0.06265818, -0.44922617, -4.059586, 1.6019125, 0
964, 4124726207, -0.88452864, 0.033053905, 0.46125677, -0.061328366, -0.58665985, -4.3488846, 1.4601574, 0
965, 4124742874, -0.89139, 0.027748493, 0.44822836, -0.061218992, -0.63485277, -4.6291857, 1.4694319, 0
966, 4124759541, -0.89808494, 0.022150744, 0.4348364, -0.062229846, -0.52152413, -5.150017, 1.6748972, 0
967, 4124776208, -0.9045602, 0.015201708, 0.42115238, -0.06459749, -0.5552639, -5.4280667, 1.6976738, 0
968, 4124792875, -0.9106569, 0.006756957, 0.40737686, -0.06859262, -0.26506937, -5.472853, 1.5156183, 0
969, 4124809542, -0.9163484, -0.002999226, 0.39340305, -0.07438423, 0.06466275, -5.4581575, 1.4962912, 0
970, 4124826209, -0.921674, -0.013398584, 0.3790175, -0.08176432, 0.4381703, -5.371591, 1.1915102, 0
971, 4124842876, -0.926633, -0.024198808, 0.36408034, -0.090629764, 0.9429319, -5.242232, 0.8435545, 0
972, 4124859543, -0.9310705, -0.035706226, 0.34882843, -0.10076807, 1.2058638, -5.293355, 0.41156292, 0
973, 4124876210, -0.9348015, -0.04839713, 0.33348033, -0.11223549, 1.6050961, -5.2868295, -0.012031555, 0
974, 4124892877, -0.9376933, -0.06379314, 0.31785494, -0.12502901, 1.9020233, -4.7917414, -0.267251, 0
975, 4124909544, -0.9397337, -0.07972133, 0.30213827, -0.13877976, 2.4731581, -4.409272, -0.73082066, 0
976, 4124926211, -0.9409799, -0.095713235, 0.28608263, -0.15347701, 3.1014705, -4.2441163, -1.1218729, 0
977, 4124942878, -0.94134885, -0.11168889, 0.2695422, -0.16952084, 3.4826467, -4.1887155, -1.3841581, 0
978, 4124959545, -0.9407684, -0.12713669, 0.25254747, -0.18711767, 3.4634452, -3.5316005, -1.8846698, 0
979, 4124976212, -0.9394918, -0.13909018, 0.23596586, -0.20574601, 3.2829342, -2.551758, -2.279272, 0
980, 4124992879, -0.93746054, -0.14731438, 0.2208732, -0.2251305, 3.6345568, -3.2430706, -2.6476755, 0
981, 4125009546, -0.9343147, -0.15517631, 0.20722179, -0.24502592, 4.3719964, -3.917729, -3.127706, 0
982, 4125026213, -0.9297771, -0.1650105, 0.19418152, -0.26567274, 4.488285, -3.7424753, -3.2469997, 0
983, 4125042880, -0.92398524, -0.17546113, 0.18175428, -0.2871106, 4.354127, -2.8728647, -3.1843781, 0
984, 4125059547, -0.9173718, -0.18377894, 0.17062163, -0.3091034, 3.9638543, -2.116064, -3.1863298, 0
985, 4125076214, -0.9100381, -0.18939419, 0.1612306, -0.33161363, 4.412295, -1.9836392, -3.1349459, 0
986, 4125092881, -0.9015148, -0.19483796, 0.15283479, -0.35489914, 4.9455614, -2.4029315, -3.0341215, 0
987, 4125109548, -0.89129454, -0.20238636, 0.1446556, -0.3790921, 5.5150676, -2.3699157, -2.7090564, 0
988, 4125126215, -0.8789594, -0.21353863, 0.1358762, -0.40419263, 5.748969, -1.9160874, -2.3872285, 0
989, 4125142882, -0.864148, -0.22808981, 0.12642899, -0.4303969, 5.8653, -1.132871, -2.251915, 0
990, 4125159549, -0.8468231, -0.2451137, 0.11621549, -0.45750004, 5.728019, -0.023510322, -2.1620584, 0
991, 4125176216, -0.8271299, -0.2632748, 0.10510502, -0.48528102, 5.606691, 1.0355816, -1.9202046, 0
992, 4125192883, -0.80549514, -0.28124678, 0.093020014, -0.5132518, 5.11065, 2.0998983, -1.502368, 0
993, 4125209550, -0.7824965, -0.29722565, 0.080880105, -0.5411256, 4.373175, 2.7054508, -1.2696838, 0
994, 4125226217, -0.7585904, -0.30979577, 0.069978856, -0.56892234, 4.107198, 3.188766, -1.5603685, 0
995, 4125242884, -0.7337836, -0.31947404, 0.059785523, -0.59659535, 4.0709844, 3.6266913, -1.6117802, 0
996, 4125259551, -0.70817655, -0.32643986, 0.05027625, -0.6240174, 4.1774015, 3.8676558, -1.3186216, 0
997, 4125276218, -0.6818222, -0.33136153, 0.041440167, -0.65084803, 4.103277, 4.0744457, -0.9960022, 0
998, 4125292885, -0.6547935, -0.33443132, 0.033835474, -0.676948, 3.837493, 4.325048, -0.7357578, 0
999, 4125309552, -0.626643, -0.33602664, 0.026778702, -0.70263064, 3.3197486, 4.896331, -0.4095955, 0
1000, 4125326219, -0.59765506, -0.33546412, 0.021384362, -0.7278855, 2.6976037, 5.259057, 0.037262917, 0
1001, 4125342886, -0.56811905, -0.33262312, 0.018266866, -0.75250995, 1.7945644, 5.6409745, 0.28527355, 0
1002, 4125359553, -0.5382592, -0.32742578, 0.017296564, -0.77638423, 1.0307575, 5.874375, 0.6805191, 0
1003, 4125376220, -0.5081774, -0.32069135, 0.017988387, -0.7991192, 0.52352923, 6.027414, 0.87719727, 0
1004, 4125392887, -0.4773335, -0.31318635, 0.018786363, -0.82080233, 0.07949782, 6.373348, 1.0749416, 0
1005, 4125409554, -0.44572014, -0.30510682, 0.018599391, -0.84136784, -0.904882, 6.331706, 1.5110703, 0
1006, 4125426221, -0.4134341, -0.29601154, 0.018030737, -0.8608871, -1.9712617, 6.0576453, 1.9028845, 0
1007, 4125442888, -0.38081554, -0.28547606, 0.01815811, -0.8792926, -3.1840467, 5.4040346, 2.3571806, 0
1008, 4125459555, -0.34833258, -0.27300173, 0.020024817, -0.8965131, -4.30263, 4.5678844, 2.6125784, 0
1009, 4125476222, -0.31680945, -0.2582572, 0.025563665, -0.91229594, -5.277759, 3.263508, 2.685482, 0
1010, 4125492889, -0.2864666, -0.2414707, 0.035727166, -0.9264744, -5.7672377, 2.053498, 2.5869398, 0
1011, 4125509556, -0.25682846, -0.22376895, 0.050352857, -0.93884695, -5.6245823, 1.7368488, 2.5349321, 0
1012, 4125526223, -0.22740826, -0.20618148, 0.0669011, -0.94936895, -5.5297303, 1.7752371, 2.6595163, 0
1013, 4125542890, -0.19852175, -0.18856518, 0.08255841, -0.95823747, -5.971544, 1.5091175, 2.9106598, 0
1014, 4125559557, -0.17015214, -0.17057277, 0.09634055, -0.9657506, -6.406602, 0.7966106, 3.1507664, 0
1015, 4125576224, -0.14208402, -0.15219018, 0.10764175, -0.97214496, -6.674733, 0.09305062, 3.2507, 0
1016, 4125592891, -0.11483279, -0.13372928, 0.116082095, -0.97747487, -7.021872, -0.93351173, 3.2949295, 0
1017, 4125609558, -0.08911005, -0.11513533, 0.12335433, -0.9816258, -7.363667, -2.5102172, 2.952649, 0
1018, 4125626225, -0.06525673, -0.096988305, 0.13200574, -0.98433316, -7.372517, -4.0022507, 2.1532507, 0
1019, 4125642892, -0.043320253, -0.07930416, 0.14404525, -0.98543763, -7.19822, -4.361571, 1.6556149, 0
1020, 4125659559, -0.023279764, -0.061838705, 0.15754044, -0.9853007, -7.034116, -4.122695, 1.3703823, 0
1021, 4125676226, -0.005259416, -0.044510674, 0.17040768, -0.98435485, -6.8604336, -3.7603886, 1.2672663, 0
1022, 4125692893, 0.010198083, -0.027179055, 0.18045408, -0.98315614, -6.7003026, -3.9000828, 0.9970484, 0
1023, 4125709560, 0.022821283, -0.009866258, 0.18867092, -0.9817269, -6.3765454, -4.3131485, 0.32837868, 0
1024, 4125726227, 0.03262905, 0.0070831836, 0.19671473, -0.97989345, -5.9296436, -4.373575, -0.3429947, 0
1025, 4125742894, 0.039437078, 0.023727365, 0.20486432, -0.9777088, -5.4572105, -4.168046, -0.6941385, 0
1026, 4125759561, 0.043038573, 0.040080056, 0.2125824, -0.9753729, -5.032066, -3.7798178, -0.8778162, 0
1027, 4125776228, 0.043300122, 0.056012176, 0.2196631, -0.9730047, -4.702968, -3.36242, -1.0846329, 0
1028, 4125792895, 0.040224615, 0.07142846, 0.22610798, -0.97064805, -4.3761687, -2.9551988, -1.3213806, 0
1029, 4125809562, 0.033957724, 0.08641364, 0.23220272, -0.9682272, -4.1632123, -2.4734957, -1.4972467, 0
1030, 4125826229, 0.024643905, 0.10087748, 0.2378021, -0.9657479, -4.0528812, -1.8862739, -1.6325846, 0
1031, 4125842896, 0.012379615, 0.11474581, 0.24256827, -0.9632461, -3.9605212, -1.5201081, -1.876061, 0
1032, 4125859563, -0.0024705213, 0.127789, 0.24671523, -0.96062356, -3.9394422, -1.23615, -2.0911036, 0
1033, 4125876230, -0.019704487, 0.14024362, 0.25029704, -0.9577565, -3.9927104, -0.84024453, -2.3505125, 0
1034, 4125892897, -0.039110616, 0.15208597, 0.25348935, -0.9545081, -3.89712, -0.6202932, -2.591587, 0
1035, 4125909564, -0.06034271, 0.16329426, 0.25700098, -0.9506034, -3.7857108, -0.36739388, -2.9293785, 0
1036, 4125926231, -0.08297909, 0.1739552, 0.26136026, -0.94580513, -3.5814974, -0.07085186, -3.2077847, 0
1037, 4125942898, -0.1068223, 0.18407962, 0.26637074, -0.9400813, -3.3440037, 0.32386568, -3.1473322, 0
1038, 4125959565, -0.13190056, 0.19362439, 0.27158988, -0.93346286, -3.0508983, 0.6559535, -3.039218, 0
1039, 4125976232, -0.15804291, 0.20227772, 0.27695557, -0.92596126, -2.9022107, 0.96161586, -2.9605694, 0
1040, 4125992899, -0.18530431, 0.20996864, 0.28225046, -0.917558, -2.6988873, 1.3719103, -2.9140525, 0
1041, 4126009566, -0.21361588, 0.21673709, 0.28768098, -0.9080943, -2.5121396, 1.6702747, -3.0597649, 0
1042, 4126026233, -0.24244802, 0.2226649, 0.2934589, -0.8975096, -2.2934349, 2.0153155, -3.1284509, 0
1043, 4126042900, -0.27151757, 0.22748664, 0.2993125, -0.88596994, -2.041502, 2.2444158, -2.8994107, 0
1044, 4126059567, -0.3007949, 0.23064643, 0.30473402, -0.87376434, -1.8592887, 2.452327, -2.4797993, 0
1045, 4126076234, -0.3303426, 0.23190603, 0.3092845, -0.8610685, -1.456887, 2.6131856, -2.1425958, 0
1046, 4126092901, -0.36012468, 0.23112309, 0.31311855, -0.84785104, -1.2316236, 2.6149502, -1.9001093, 0
1047, 4126109568, -0.38990107, 0.22856134, 0.3160106, -0.8341921, -1.2815896, 2.7425318, -1.7189064, 0
1048, 4126126235, -0.4194977, 0.2243336, 0.3176151, -0.82025546, -1.1914959, 3.1354628, -1.4957619, 0
1049, 4126142902, -0.44891474, 0.21851096, 0.31830898, -0.80586004, -0.9347402, 3.200542, -1.0640373, 0
1050, 4126159569, -0.4781704, 0.21125017, 0.31866634, -0.7906836, -0.65580904, 3.1353037, -1.0379848, 0
1051, 4126176236, -0.50692385, 0.20304246, 0.31905296, -0.7746029, -0.6735643, 3.2187545, -1.0188494, 0
1052, 4126192903, -0.53504354, 0.1940186, 0.31958112, -0.7575985, -0.32348573, 3.5026946, -0.60305786, 0
1053, 4126209570, -0.56288916, 0.18352956, 0.3193881, -0.7399096, 0.07438087, 3.6405156, -0.08611965, 0
1054, 4126226237, -0.5906336, 0.17062065, 0.31808782, -0.7217083, 0.48837045, 3.4883392, 0.33824253, 0
1055, 4126242904, -0.61814624, 0.15420274, 0.31587785, -0.7030933, 0.9621196, 2.9628878, 0.7486706, 0
1056, 4126259571, -0.6450684, 0.13419688, 0.3130209, -0.6840309, 0.6475405, 2.3584805, 0.8444786, 0
1057, 4126276238, -0.67068225, 0.11228891, 0.31007278, -0.66440475, 0.53733367, 2.6990616, 0.8798313, 0
1058, 4126292905, -0.6950575, 0.08834459, 0.30627447, -0.6444289, 1.4149767, 2.7945733, 1.9008865, 0
1059, 4126309572, -0.71840173, 0.0607609, 0.29993144, -0.62470037, 2.3639865, 1.8999567, 2.8061543, 0
1060, 4126326239, -0.740169, 0.028454525, 0.29089865, -0.60557455, 2.8381238, 0.63962764, 2.960415, 0
1061, 4126342906, -0.75987864, -0.007884326, 0.2796694, -0.5867791, 3.182308, 0.11539653, 2.7087078, 0
1062, 4126359573, -0.77708673, -0.04676377, 0.26726556, -0.5679093, 3.199374, 0.18217298, 2.3857298, 0
1063, 4126376240, -0.7913932, -0.086348176, 0.25572205, -0.5484977, 2.6779685, -0.060903147, 2.2222195, 0
1064, 4126392907, -0.8030844, -0.12369018, 0.24702844, -0.5279542, 1.5088698, -0.018677749, 2.097435, 0
1065, 4126409574, -0.8130927, -0.1551891, 0.24258733, -0.5059154, 0.43915668, 0.3664865, 2.7492466, 0
1066, 4126426241, -0.8221741, -0.18005276, 0.24117804, -0.48316303, 0.7931498, 0.17837799, 3.6452885, 0
1067, 4126442908, -0.82972676, -0.2001172, 0.24016258, -0.46241865, 2.430821, -1.2955345, 4.07355, 0
1068, 4126459575, -0.8346245, -0.22005798, 0.2373918, -0.44567248, 3.8187547, -3.1181507, 4.0112085, 0
1069, 4126476242, -0.83648014, -0.24247792, 0.23234677, -0.4330387, 3.8127573, -3.9867496, 3.589141, 0
1070, 4126492909, -0.83641833, -0.26471207, 0.22657005, -0.42308393, 2.959559, -3.615315, 3.2965517, 0
1071, 4126509576, -0.8357979, -0.28390074, 0.22109246, -0.41468394, 2.4568772, -4.0560155, 2.8737488, 0
1072, 4126526243, -0.8348145, -0.30038238, 0.21568348, -0.40784562, 2.9832423, -5.253722, 2.202466, 0
1073, 4126542910, -0.8328969, -0.31667978, 0.20927083, -0.40274644, 3.6842935, -6.148919, 1.4711409, 0
1074, 4126559577, -0.8295312, -0.33432314, 0.20121384, -0.39952636, 3.879605, -6.1269574, 0.8867159, 0
1075, 4126576244, -0.8250449, -0.35233012, 0.19191292, -0.3979148, 3.0008745, -5.6693106, 0.64375305, 0
1076, 4126592911, -0.82029885, -0.36828038, 0.18278791, -0.3975804, 2.3602378, -5.0717664, 0.34514523, 0
1077, 4126609578, -0.8159564, -0.38109544, 0.17446674, -0.39817694, 2.0424712, -4.74717, -0.15345669, 0
1078, 4126626245, -0.81187874, -0.39146203, 0.16693407, -0.39968187, 2.1608942, -4.880513, -0.8217621, 0
1079, 4126642912, -0.8076808, -0.40042344, 0.15970264, -0.40225652, 2.3198624, -4.7181783, -1.21875, 0
1080, 4126659579, -0.8031343, -0.4085689, 0.15239389, -0.4059869, 2.3851001, -4.5039105, -1.5619278, 0
1081, 4126676246, -0.7984463, -0.41552603, 0.14518777, -0.4107854, 2.3021436, -3.9327807, -1.734683, 0
1082, 4126692913, -0.79416066, -0.42062756, 0.13858047, -0.41614783, 1.881296, -3.7938433, -1.8295712, 0
1083, 4126709580, -0.78997004, -0.4246422, 0.1324228, -0.42201054, 2.3076985, -3.6460671, -1.9855905, 0
1084, 4126726247, -0.78525484, -0.4286482, 0.1258785, -0.42871034, 2.6705487, -3.1897047, -1.9251294, 0
1085, 4126742914, -0.779662, -0.4329882, 0.118808076, -0.43650386, 2.4219434, -2.9684815, -1.7208157, 0
1086, 4126759581, -0.77338856, -0.43711585, 0.11194982, -0.4452745, 2.3101554, -2.6806128, -1.5491743, 0
1087, 4126776248, -0.76694894, -0.44015434, 0.105592884, -0.45486954, 1.9379696, -1.9674002, -1.099288, 0
1088, 4126792915, -0.76077485, -0.44133168, 0.09998417, -0.46524602, 1.8646277, -1.7875609, -0.9244375, 0
1089, 4126809582, -0.75434136, -0.44145823, 0.094828926, -0.4765434, 2.2225306, -1.5802863, -0.8756447, 0
1090, 4126826249, -0.7475008, -0.44092146, 0.08958942, -0.4886788, 2.0784686, -1.374169, -0.5332804, 0
1091, 4126842916, -0.7402714, -0.4398446, 0.08460309, -0.50137776, 2.224679, -1.3562396, -0.5386181, 0
1092, 4126859583, -0.73263, -0.43875453, 0.079708636, -0.51419514, 2.4139006, -1.2180051, -0.5090456, 0
1093, 4126876250, -0.72457546, -0.43782285, 0.07431505, -0.52704936, 2.1906323, -1.1679095, -0.256505, 0
1094, 4126892917, -0.71618205, -0.43663248, 0.0688022, -0.5400963, 2.1626449, -1.1857445, -0.041900635, 0
1095, 4126909584, -0.7071504, -0.43550107, 0.06331276, -0.5534175, 2.381324, -0.90855914, -0.1430502, 0
1096, 4126926251, -0.6978164, -0.43420547, 0.057841375, -0.56672287, 2.1818213, -0.6488592, -0.020446777, 0
1097, 4126942918, -0.68849605, -0.4324231, 0.052526824, -0.57985055, 2.1165059, -0.55772495, 0.13261604, 0
1098, 4126959585, -0.67907405, -0.43026456, 0.047374297, -0.5928649, 2.1984386, -0.31869125, 0.2766018, 0
1099, 4126976252, -0.66962516, -0.42744005, 0.042323843, -0.6058946, 1.938769, -0.06922889, 0.5052557, 0
1100, 4126992919, -0.66033244, -0.42376578, 0.037771534, -0.6188372, 2.0140178, -0.062698066, 0.49722767, 0
1101, 4127009586, -0.6507578, -0.4199387, 0.033272654, -0.6317129, 2.2139893, 0.091291405, 0.48476982, 0
1102, 4127026253, -0.64084303, -0.41607216, 0.028595965, -0.6445067, 1.9616402, 0.36380085, 0.57762146, 0
1103, 4127042920, -0.6311018, -0.4114243, 0.024402177, -0.657151, 1.6647227, 0.4721253, 0.8079281, 0
1104, 4127059587, -0.6214901, -0.4060284, 0.020833235, -0.6696712, 1.9016851, 0.7350782, 0.88168144, 0
1105, 4127076254, -0.61169815, -0.3999288, 0.017431831, -0.68233484, 1.5926833, 0.9848276, 1.1417799, 0
1106, 4127092921, -0.6017228, -0.39281428, 0.014619648, -0.6952808, 1.1560918, 1.351961, 1.0998125, 0
1107, 4127109588, -0.5919842, -0.38433462, 0.011722496, -0.7083125, 0.6425947, 1.2818372, 1.0133905, 0
1108, 4127126255, -0.5828478, -0.373941, 0.009661307, -0.7213636, 0.16534324, 0.8833507, 1.1526775, 0
1109, 4127142922, -0.57392055, -0.36251548, 0.008578605, -0.7342523, 1.2110883, 0.60443896, 0.9986801, 0
1110, 4127159589, -0.56398904, -0.35255802, 0.006401057, -0.7467132, 2.137451, 1.0569386, 1.0017252, 0
1111, 4127176256, -0.5532602, -0.3435114, 0.0030285516, -0.7588783, 1.1111009, 1.0969149, 1.4616184, 0
1112, 4127192923, -0.5423286, -0.33382654, 5.7958346E-4, -0.77100044, 0.29736432, 1.0343583, 1.4991121, 0
1113, 4127209590, -0.5311158, -0.3236051, -5.881225E-4, -0.78306955, 0.0729946, 1.394862, 1.2844591, 0
1114, 4127226257, -0.519762, -0.31293085, -0.001104889, -0.7949358, -0.38942134, 1.5143453, 1.2852125, 0
1115, 4127242924, -0.5084148, -0.30178455, -0.0011707153, -0.8064996, -0.8334269, 1.5369204, 1.2940187, 0
1116, 4127259591, -0.4972996, -0.28970388, -9.781057E-4, -0.81778127, -1.4713483, 1.4888285, 1.3557863, 0
1117, 4127276258, -0.48661456, -0.27616248, -9.31134E-5, -0.8288202, -2.2505238, 1.3739864, 1.2919502, 0
1118, 4127292925, -0.47654006, -0.2609642, 0.0024734037, -0.8395258, -2.680359, 0.75105864, 1.4668341, 0
1119, 4127309592, -0.46624357, -0.24639656, 0.005245642, -0.84963566, -1.4165555, 1.0730476, 1.340231, 0
1120, 4127326259, -0.4554429, -0.2342916, 0.005412972, -0.8588668, -1.4716742, 1.406289, 1.05793, 0
1121, 4127342926, -0.444899, -0.2234389, 0.0032652342, -0.8672553, -2.9596927, 0.8578673, 0.8525915, 0
1122, 4127359593, -0.4349734, -0.21247688, 7.6486287E-4, -0.87501633, -3.6100616, 0.51525795, 0.5777292, 0
1123, 4127376260, -0.42555848, -0.20147678, -0.0013167809, -0.8822174, -3.8772242, 0.4139367, 0.5045929, 0
1124, 4127392927, -0.41671616, -0.19074006, -0.003152335, -0.88879585, -3.9381332, 0.17554702, 0.41950417, 0
1125, 4127409594, -0.40857688, -0.18074624, -0.005359792, -0.89463377, -3.8018773, 0.20619103, 0.01436615, 0
1126, 4127426261, -0.40135536, -0.1716874, -0.008563868, -0.89964795, -4.029662, 0.041677568, -0.34764576, 0
1127, 4127442928, -0.39524293, -0.16326465, -0.012307512, -0.9038687, -4.4567013, -0.31050465, -0.5908432, 0
1128, 4127459595, -0.39026234, -0.1550032, -0.0153994, -0.90743303, -4.695615, -0.72047585, -0.699296, 0
1129, 4127476262, -0.38637227, -0.14687298, -0.01700358, -0.9104164, -4.715554, -0.6710832, -0.8582287, 0
1130, 4127492929, -0.38384548, -0.13883802, -0.017294124, -0.9127375, -4.5023165, -0.72165585, -1.165554, 0
1131, 4127509596, -0.38287798, -0.13094151, -0.016857598, -0.91431767, -4.2515817, -0.9414484, -1.3109083, 0
1132, 4127526263, -0.3832196, -0.12337387, -0.015969383, -0.9152427, -4.059003, -1.1069051, -1.2603626, 0
1133, 4127542930, -0.38462335, -0.11624513, -0.014479702, -0.91561174, -4.1052284, -1.1523461, -1.156332, 0
1134, 4127559597, -0.38720748, -0.10962674, -0.012020742, -0.91537434, -3.9359286, -1.0643426, -1.1741447, 0
1135, 4127576264, -0.39125574, -0.10361801, -0.008665566, -0.9143902, -3.617159, -0.8920076, -1.2616138, 0
1136, 4127592931, -0.39673564, -0.09839623, -0.005251658, -0.9126301, -3.1977096, -0.69583774, -1.1901722, 0
1137, 4127609598, -0.4033208, -0.09419334, -0.0023679722, -0.910196, -2.9993253, -0.49694797, -1.256854, 0
1138, 4127626265, -0.41084215, -0.09099284, 3.4539495E-5, -0.9071555, -3.0221524, -0.56713504, -1.1411428, 0
1139, 4127642932, -0.41913298, -0.08876188, 0.0027769962, -0.9035726, -2.9010956, -0.4174658, -1.2881451, 0
1140, 4127659599, -0.4281352, -0.08735417, 0.005811788, -0.89946544, -2.9042506, -0.15058903, -1.4193764, 0
1141, 4127676266, -0.4378838, -0.08656358, 0.008762651, -0.89481294, -2.8463092, 0.020889102, -1.5201845, 0
1142, 4127692933, -0.44833088, -0.08627239, 0.011823749, -0.8896173, -2.683945, 0.16528414, -1.4556789, 0
1143, 4127709600, -0.4593247, -0.08653047, 0.015130542, -0.88391554, -2.4825604, 0.450661, -1.5212088, 0
1144, 4127726267, -0.4707168, -0.08718974, 0.01863877, -0.87776905, -2.5751688, 0.6265539, -1.5409594, 0
1145, 4127742934, -0.48262876, -0.087945655, 0.02280937, -0.87110114, -2.3323908, 0.76319593, -1.6294184, 0
1146, 4127759601, -0.4950809, -0.088827945, 0.027379306, -0.86386186, -1.9592403, 0.9770808, -1.5837984, 0
1147, 4127776268, -0.5079639, -0.09003905, 0.032223303, -0.8560548, -1.6632763, 1.0595021, -1.4168806, 0
1148, 4127792935, -0.5212043, -0.09169435, 0.037419148, -0.8476677, -1.6911869, 1.0421367, -1.1309252, 0
1149, 4127809602, -0.53480977, -0.093584724, 0.043383975, -0.8386541, -1.6582162, 1.012255, -0.89015007, 0
1150, 4127826269, -0.54872644, -0.09575344, 0.050145194, -0.82898647, -1.2966493, 1.2368319, -0.75105953, 0
1151, 4127842936, -0.56296605, -0.09840562, 0.05696426, -0.8186225, -1.2394111, 1.4078838, -0.5678568, 0
1152, 4127859603, -0.57737064, -0.10144407, 0.06369849, -0.80764896, -1.2745807, 1.3951808, -0.42302227, 0
1153, 4127876270, -0.5918907, -0.10462504, 0.070632525, -0.7960731, -1.3639796, 1.1829981, -0.10531235, 0
1154, 4127892937, -0.6063674, -0.1082122, 0.07763071, -0.7839545, -1.2291644, 1.1695844, 0.30630112, 0
1155, 4127909604, -0.6207689, -0.11244696, 0.084290355, -0.771297, -1.0462004, 1.009479, 0.619997, 0
1156, 4127926271, -0.6350381, -0.117334485, 0.09030994, -0.7581593, -0.7803484, 1.1357759, 0.8003788, 0
1157, 4127942938, -0.6490619, -0.12316388, 0.095171705, -0.7446436, -0.48810887, 1.14699, 1.0453224, 0
1158, 4127959605, -0.6629361, -0.13000956, 0.09929254, -0.7305865, -0.15114857, 0.7789395, 1.34797, 0
1159, 4127976272, -0.6767199, -0.13797525, 0.102821834, -0.7158512, 0.3209694, 0.6522079, 1.6130037, 0
1160, 4127992939, -0.6900987, -0.14707415, 0.10532337, -0.7007441, 0.55574113, 0.8925686, 1.6891708, 0
