DeviceTag:,Xsens DOT 3,,,,,,,,,,,,,,,,,
FirmwareVersion:,1.3.0,,,,,,,,,,,,,,,,,
AppVersion:,2020.1.1,,,,,,,,,,,,,,,,,
Measurement Mode:,Sensor fusion Mode - Extended (Quaternion),,,,,,,,,,,,,,,,,
StartTime:,2020-08-03 15:37:19.054 +0200,,,,,,,,,,,,,,,,,
© Xsens Technologies B. V. 2005-2020,,,,,,,,,,,,,,,,,,,
PacketCounter,SampleTimeFine,Quat_W,Quat_X,Quat_Y,Quat_Z,FreeAcc_X,FreeAcc_Y,FreeAcc_Z,Status
1, 3147194732, 7.705856E-4, -0.02387519, 0.02544631, -0.99939173, -0.04376558, 0.28603694, 0.13352776, 0
2, 3147211399, 4.8163533E-4, -0.024505267, 0.027365694, -0.99932605, -0.07584519, 0.41633472, 0.33484554, 0
3, 3147228066, 5.0282106E-4, -0.025442515, 0.029995155, -0.9992269, -0.014121832, 0.18651235, 0.32316494, 0
4, 3147244733, 5.0111674E-4, -0.026111018, 0.031584565, -0.9991608, 0.06686196, 0.054370556, 0.36827946, 0
5, 3147261400, 2.570115E-4, -0.026508516, 0.032215066, -0.9991303, 0.075466216, -0.015576502, 0.23125267, 0
6, 3147278067, -3.8014725E-5, -0.026921896, 0.032222714, -0.99911904, 0.032362893, -3.6420257E-4, 0.22143555, 0
7, 3147294734, -1.8255785E-4, -0.027382022, 0.031757765, -0.9991215, 0.0012902548, 0.020149007, 0.23548889, 0
8, 3147311401, -2.3563765E-4, -0.0278142, 0.030905414, -0.99913627, 0.09249049, -0.111696765, 0.1607151, 0
9, 3147328068, -3.8968958E-4, -0.028239015, 0.029915001, -0.99915427, 0.0861587, -0.22965373, 0.14107037, 0
10, 3147344735, -6.133523E-4, -0.028600642, 0.02878014, -0.9991772, 0.056064453, -0.13046883, 0.11294365, 0
11, 3147361402, -7.376075E-4, -0.02901192, 0.027562011, -0.9991997, -0.015678301, 9.896914E-4, 0.10695171, 0
12, 3147378069, -7.1402267E-4, -0.029374693, 0.026343644, -0.9992221, -0.10057584, -0.040188532, 0.15254402, 0
13, 3147394736, -7.066261E-4, -0.029704984, 0.025200754, -0.9992417, -0.09826491, -0.11201467, 0.16038609, 0
14, 3147411403, -7.490665E-4, -0.030124715, 0.024290495, -0.99925166, -0.07613043, -0.16314782, 0.16089344, 0
15, 3147428070, -9.0766884E-4, -0.030597664, 0.0234599, -0.9992569, -0.096098155, -0.05214107, 0.12436581, 0
16, 3147444737, -8.84125E-4, -0.031078203, 0.022514371, -0.99926406, -0.12103966, 0.03562869, 0.121910095, 0
17, 3147461404, -9.1417506E-4, -0.031456355, 0.021415187, -0.9992764, -0.10172241, -0.06095558, 0.10771561, 0
18, 3147478071, -0.0016115103, -0.03171104, 0.020319548, -0.9992903, -0.0907971, -0.1303597, 0.077614784, 0
19, 3147494738, -5.8393367E-4, -0.032006465, 0.019247657, -0.99930316, -0.07372307, -0.15567678, 0.12930965, 0
20, 3147511405, -5.011037E-4, -0.03231006, 0.01840318, -0.9993092, -0.05518645, -0.13471939, 0.19318104, 0
21, 3147528072, -8.131489E-4, -0.03262897, 0.017783104, -0.9993099, -0.03161908, -0.09114525, 0.16357994, 0
22, 3147544739, -8.5223466E-4, -0.032970615, 0.017363423, -0.999306, -0.070743516, -0.08940966, 0.15197372, 0
23, 3147561406, -0.0012112185, -0.03315481, 0.017046534, -0.9993051, -0.14174302, -0.058707688, 0.112338066, 0
24, 3147578073, -0.0013057888, -0.033177216, 0.016572695, -0.9993122, -0.06635361, -0.039671905, 0.026145935, 0
25, 3147594740, -0.0023606196, -0.033103094, 0.016142443, -0.99931973, -0.10246371, -0.0840221, 0.017476082, 0
26, 3147611407, -0.002763074, -0.033089705, 0.015974859, -0.99932194, -0.023954377, -0.117038116, 0.009242058, 0
27, 3147628074, -0.00316065, -0.03320723, 0.016105881, -0.99931455, -0.0030385861, -0.1107844, 0.015563011, 0
28, 3147644741, -0.0033566914, -0.033495273, 0.016246634, -0.9993022, -0.00942792, -0.12167217, 0.13725567, 0
29, 3147661408, -0.0037502553, -0.033699576, 0.016375866, -0.9992918, 0.061150476, -0.028114736, 0.19035149, 0
30, 3147678075, -0.004052814, -0.034054443, 0.016293144, -0.9992799, 0.07841588, -0.035755556, 0.19614601, 0
31, 3147694742, -0.004373906, -0.03442671, 0.016211307, -0.99926704, -0.019335467, -0.036724478, 0.2592392, 0
32, 3147711409, -0.004139174, -0.034626726, 0.016436132, -0.9992575, -0.14915058, -0.049205165, 0.23336887, 0
33, 3147728076, -0.0048444867, -0.03462348, 0.016683824, -0.9992504, -0.032988068, -0.0066554407, 0.19932747, 0
34, 3147744743, -0.005441116, -0.034718312, 0.016953917, -0.9992396, 0.0211771, -0.0108072655, 0.12458515, 0
35, 3147761410, -0.005699422, -0.03494568, 0.01730297, -0.9992242, 0.04234119, -7.8311865E-4, 0.11430931, 0
36, 3147778077, -0.006342493, -0.035349414, 0.017922994, -0.99919516, 0.05214027, -0.044159435, 0.14141273, 0
37, 3147794744, -0.006860677, -0.035886995, 0.01856007, -0.99916095, 0.009241342, -0.10253516, 0.16685009, 0
38, 3147811411, -0.007743364, -0.036396574, 0.019134365, -0.99912524, -0.091023, -0.107915334, 0.16455269, 0
39, 3147828078, -0.008174382, -0.03673324, 0.019406108, -0.99910426, -0.08871599, -0.030909576, 0.17242813, 0
40, 3147844745, -0.008548807, -0.037074443, 0.019526752, -0.99908614, -0.05067297, 0.018035399, 0.14758205, 0
41, 3147861412, -0.008530483, -0.037495393, 0.019546542, -0.99907017, -0.069610745, -0.059514146, 0.14438915, 0
42, 3147878079, -0.008563677, -0.037979547, 0.019501053, -0.99905264, -0.063305564, -0.107712805, 0.1337223, 0
43, 3147894746, -0.008539306, -0.0384081, 0.019423101, -0.99903786, -0.010818813, -0.10817931, 0.11537647, 0
44, 3147911413, -0.009211216, -0.038821265, 0.019488879, -0.9990146, 0.04011824, -0.11612467, 0.108353615, 0
45, 3147928080, -0.008671919, -0.039231736, 0.019591786, -0.9990013, 0.007210632, -0.028967226, 0.09546089, 0
46, 3147944747, -0.008679235, -0.039610475, 0.019540135, -0.9989873, 0.050335243, 0.016151253, 0.13402367, 0
47, 3147961414, -0.009196676, -0.040010307, 0.019365152, -0.9989702, 0.028166652, 0.010963225, 0.15135574, 0
48, 3147978081, -0.008885657, -0.04046935, 0.019091584, -0.9989599, 0.05557521, 0.057121404, 0.16394234, 0
49, 3147994748, -0.010105929, -0.04100633, 0.019089859, -0.9989264, 0.07655434, 0.071397185, 0.19634342, 0
50, 3148011415, -0.010242283, -0.04155715, 0.019197317, -0.99890023, 0.023547238, 0.09060671, 0.24130917, 0
51, 3148028082, -0.010506555, -0.042002507, 0.019235756, -0.9988782, 0.00612023, 0.12913033, 0.24473381, 0
52, 3148044749, -0.009303898, -0.042391554, 0.019045942, -0.99887717, -0.0032639797, 0.120745696, 0.18739033, 0
53, 3148061416, -0.009544004, -0.0426679, 0.018927991, -0.99886537, 0.035715774, 0.062404566, 0.19525433, 0
54, 3148078083, -0.009144222, -0.042853225, 0.0187632, -0.9988643, 0.024616033, -0.016913287, 0.14274597, 0
55, 3148094750, -0.009038763, -0.042999413, 0.018613476, -0.9988618, 0.028477363, -0.064567275, 0.12607956, 0
56, 3148111417, -0.008838555, -0.043066062, 0.01845956, -0.99886346, 0.04104, -0.030349026, 0.14468193, 0
57, 3148128084, -0.008591726, -0.04321381, 0.01825524, -0.9988631, 0.027548416, 0.017190475, 0.1683073, 0
58, 3148144751, -0.008744985, -0.04342845, 0.01811196, -0.99885505, 0.024483314, 0.038768362, 0.20697689, 0
59, 3148161418, -0.00893523, -0.043598413, 0.018096073, -0.9988462, 0.03130996, 0.06658175, 0.24451351, 0
60, 3148178085, -0.009159572, -0.043728612, 0.018136356, -0.99883777, 0.04583922, 0.044777777, 0.18909454, 0
61, 3148194752, -0.009258848, -0.043957647, 0.018160004, -0.9988263, -0.015789129, -0.004277572, 0.11957741, 0
62, 3148211419, -0.009518277, -0.044249516, 0.018179301, -0.9988107, -0.054998808, -0.05622897, 0.07366657, 0
63, 3148228086, -0.010219042, -0.044353906, 0.01808574, -0.9988009, -0.15025689, -0.0634313, 0.17006207, 0
64, 3148244753, -0.010331133, -0.044295643, 0.017777324, -0.9988077, 0.001264061, -0.09734595, 0.12424755, 0
65, 3148261420, -0.010446158, -0.044227865, 0.017550904, -0.9988136, -0.03185782, -0.099951744, 0.099980354, 0
66, 3148278087, -0.010589355, -0.04403761, 0.017364748, -0.99882376, -0.03828532, -0.050162382, 0.09379196, 0
67, 3148294754, -0.010679339, -0.043942966, 0.017077668, -0.9988319, 0.022950359, -0.007855778, 0.09666729, 0
68, 3148311421, -0.009509586, -0.043869883, 0.016535342, -0.9988561, 0.05760633, -0.03111952, 0.2196083, 0
69, 3148328088, -0.009780385, -0.043844942, 0.016141772, -0.99886113, 0.07216113, -0.08626285, 0.21488285, 0
70, 3148344755, -0.0098328665, -0.04384052, 0.015941858, -0.998864, 0.06408449, -0.004192555, 0.22926521, 0
71, 3148361422, -0.0090747755, -0.043896846, 0.015711464, -0.9988724, 0.031286053, 0.086948134, 0.2017765, 0
72, 3148378089, -0.008986358, -0.043869324, 0.015268068, -0.9988812, 0.034555867, 0.08204006, 0.2203989, 0
73, 3148394756, -0.008587552, -0.043842882, 0.014791317, -0.998893, 0.093470484, -0.005338527, 0.19035244, 0
74, 3148411423, -0.008038428, -0.043843813, 0.014493063, -0.9989019, 0.12183197, 0.019460587, 0.22499466, 0
75, 3148428090, -0.009038528, -0.043943148, 0.014376368, -0.9988907, 0.072446145, 0.060979713, 0.23314857, 0
76, 3148444757, -0.009313874, -0.04407563, 0.014154173, -0.9988856, 0.09935617, 0.072132595, 0.21452332, 0
77, 3148461424, -0.00937481, -0.04427134, 0.013798496, -0.9988813, 0.05605608, -0.012582937, 0.17953682, 0
78, 3148478091, -0.0093554985, -0.044459496, 0.013411761, -0.99887824, 0.04945437, -0.11173682, 0.16033745, 0
79, 3148494758, -0.009686366, -0.04461727, 0.0131322825, -0.99887186, -0.014502572, -0.0637933, 0.1322794, 0
80, 3148511425, -0.009818116, -0.044760834, 0.012710016, -0.99886966, 0.002149375, -0.038144965, 0.13997173, 0
81, 3148528092, -0.009907104, -0.044981446, 0.0123135215, -0.9988639, 0.10015669, -0.11689362, 0.12777805, 0
82, 3148544759, -0.009982611, -0.045484822, 0.012399503, -0.99883914, 0.18759054, -0.14997628, 0.15168953, 0
83, 3148561426, -0.009468097, -0.046213426, 0.0126473615, -0.9988075, 0.17688401, -0.032229003, 0.21725845, 0
84, 3148578093, -0.009463007, -0.046847086, 0.0126209445, -0.99877864, 0.09263252, -0.03655537, 0.25126648, 0
85, 3148594760, -0.009874346, -0.047083437, 0.012295237, -0.99876744, 0.05019898, 0.045012247, 0.23833084, 0
86, 3148611427, -0.010085684, -0.047208354, 0.011830507, -0.99876505, 0.09407388, 0.034866568, 0.16856003, 0
87, 3148628094, -0.010203387, -0.047423862, 0.011589892, -0.9987566, 0.019646432, -0.007826472, 0.0998497, 0
88, 3148644761, -0.0108071985, -0.04752496, 0.011536559, -0.9987459, -0.09429934, -0.012647363, 0.09392166, 0
89, 3148661428, -0.011177632, -0.04745081, 0.011481381, -0.99874604, -0.10998947, -0.0042246287, 0.046832085, 0
90, 3148678095, -0.011593961, -0.047196392, 0.011435911, -0.99875385, -0.11030702, -0.056186493, 0.005789757, 0
91, 3148694762, -0.012156355, -0.04684589, 0.011457234, -0.99876344, -0.10400361, -0.13215256, 0.039118767, 0
92, 3148711429, -0.012530862, -0.046372052, 0.011500893, -0.99878037, -0.13519381, -0.19448614, 0.06423473, 0
93, 3148728096, -0.012676716, -0.04583226, 0.01160949, -0.9988022, -0.17370926, -0.18814428, 0.093297005, 0
94, 3148744763, -0.013147598, -0.04528825, 0.011686341, -0.99882, -0.13010892, -0.10153349, 0.082125664, 0
95, 3148761430, -0.013363004, -0.044793516, 0.011706665, -0.99883926, -0.109541714, -0.12711039, 0.11224079, 0
96, 3148778097, -0.013285106, -0.04421803, 0.011750914, -0.9988654, -0.1534266, -0.19385256, 0.12487793, 0
97, 3148794764, -0.013167439, -0.043707296, 0.011817711, -0.9988886, -0.07537937, -0.14146811, 0.03965473, 0
98, 3148811431, -0.012566189, -0.043340947, 0.011826118, -0.9989122, -0.105169654, -0.09293834, 0.07848644, 0
99, 3148828098, -0.012376071, -0.04295622, 0.011730643, -0.9989324, -0.10703447, -0.083885275, 0.13534832, 0
100, 3148844765, -0.012309546, -0.04253838, 0.011717066, -0.9989513, -0.0778613, -0.080780596, 0.15577888, 0
101, 3148861432, -0.012244523, -0.042113006, 0.011669261, -0.9989708, -0.02988813, -0.04381734, 0.12343025, 0
102, 3148878099, -0.011754191, -0.041806396, 0.011493846, -0.99899155, -0.033203162, -0.017078107, 0.13679409, 0
103, 3148894766, -0.011426562, -0.041563578, 0.011337495, -0.9990072, -0.022271248, -0.013723449, 0.16968536, 0
104, 3148911433, -0.0110741, -0.041324865, 0.011231354, -0.99902225, 0.037991304, -0.0021075653, 0.23564243, 0
105, 3148928100, -0.010879503, -0.041036304, 0.011241773, -0.99903625, 0.09174802, 0.016081393, 0.23680496, 0
106, 3148944767, -0.010044849, -0.040808577, 0.011381766, -0.99905276, 0.06548852, 0.014699238, 0.2261591, 0
107, 3148961434, -0.009900188, -0.040507656, 0.011576381, -0.99906415, 0.042475056, 0.022497075, 0.19081211, 0
108, 3148978101, -0.009863891, -0.040225476, 0.011728856, -0.99907416, 0.10832926, -0.023002818, 0.1666441, 0
109, 3148994768, -0.009760894, -0.0400266, 0.012011463, -0.9990797, 0.12726595, -0.06638941, 0.15249062, 0
110, 3149011435, -0.010041971, -0.039870143, 0.012481203, -0.9990773, 0.13378152, -0.016009623, 0.15567398, 0
111, 3149028102, -0.009951923, -0.039715126, 0.01286244, -0.9990796, 0.044359963, 0.06228542, 0.202631, 0
112, 3149044769, -0.009919939, -0.039452054, 0.013000897, -0.9990885, -0.0098018935, 0.07342518, 0.17996693, 0
113, 3149061436, -0.010041633, -0.03911514, 0.012950228, -0.9991013, 0.008823486, -0.06828425, 0.16828918, 0
114, 3149078103, -0.009871915, -0.0388007, 0.012966442, -0.99911505, 0.037146345, -0.1339289, 0.13167286, 0
115, 3149094770, -0.009803329, -0.038577236, 0.013050862, -0.9991233, 0.04294563, -0.1074512, 0.107486725, 0
116, 3149111437, -0.0101181995, -0.03849199, 0.013161658, -0.99912196, 0.050759096, -0.03101002, 0.13845634, 0
117, 3149128104, -0.010111776, -0.038445327, 0.013121125, -0.9991244, 0.018237766, -0.008919251, 0.23082161, 0
118, 3149144771, -0.010105659, -0.038237046, 0.012943776, -0.9991348, 0.081449315, -0.028587705, 0.23778439, 0
119, 3149161438, -0.009663604, -0.037983377, 0.012767857, -0.99915105, 0.061370224, -0.066185296, 0.19013786, 0
120, 3149178105, -0.010212655, -0.03765208, 0.012724133, -0.99915874, 0.042948995, -0.06308078, 0.17027092, 0
121, 3149194772, -0.009462232, -0.037476905, 0.012678712, -0.9991732, 0.04760608, -0.03615292, 0.16372013, 0
122, 3149211439, -0.00959908, -0.037344735, 0.012762259, -0.9991758, -0.011549353, -0.010403274, 0.21605015, 0
123, 3149228106, -0.009878993, -0.037182108, 0.012853594, -0.999178, 4.442918E-4, -3.4755262E-4, 0.20786095, 0
124, 3149244773, -0.009845521, -0.036963385, 0.012941293, -0.99918526, -0.0024617251, -0.02305977, 0.19731426, 0
125, 3149261440, -0.010093156, -0.03668371, 0.012997192, -0.99919236, -0.0490597, -0.023893733, 0.15909863, 0
126, 3149278107, -0.010003728, -0.036526687, 0.0131528815, -0.99919707, 0.019410025, -0.06625773, 0.17724895, 0
127, 3149294774, -0.009964006, -0.036466837, 0.013294022, -0.9991978, -0.07442873, 0.0070073185, 0.46814156, 0
128, 3149311441, -0.010879144, -0.036080144, 0.013798792, -0.99919534, -0.04485659, 0.08998559, 0.64532757, 0
129, 3149328108, -0.011388478, -0.03534394, 0.014924209, -0.99919987, -0.27692434, -0.123100586, 0.5483198, 0
130, 3149344775, -0.012354546, -0.034393422, 0.015982047, -0.9992052, -0.30702728, -0.34975955, -0.12108135, 0
131, 3149361442, -0.012620826, -0.03368898, 0.016840637, -0.9992117, -0.5799443, -0.38418, -0.5000286, 0
132, 3149378109, -0.01234661, -0.033128753, 0.016493902, -0.9992398, -0.642911, -0.22936502, -0.21592999, 0
133, 3149394776, -0.011713187, -0.031215616, 0.016015807, -0.9993167, -0.24281134, 0.27656612, 0.023734093, 0
134, 3149411443, -0.010353125, -0.029334197, 0.015563194, -0.9993958, -0.40784663, -0.08604376, 0.17891121, 0
135, 3149428110, -0.00925084, -0.02723091, 0.015859125, -0.99946165, -0.3499136, 0.08466711, 0.53812695, 0
136, 3149444777, -0.0077315867, -0.024700182, 0.016628837, -0.9995277, -0.3411229, 0.50905675, 0.7103882, 0
137, 3149461444, -0.006189754, -0.021893952, 0.017156726, -0.999595, -0.33608943, 0.6044385, 0.7128916, 0
138, 3149478111, -0.0040610377, -0.018826976, 0.017685333, -0.9996591, -0.50338274, 0.6593808, 0.77082825, 0
139, 3149494778, -7.4914284E-4, -0.015612471, 0.01847651, -0.999708, -0.52407163, 0.7317497, 0.7727461, 0
140, 3149511445, 0.0034948718, -0.012386746, 0.020017823, -0.9997177, -0.6517751, 0.706379, 0.62224865, 0
141, 3149528112, 0.008295422, -0.009379192, 0.022210032, -0.9996759, -0.7575261, 0.84400815, 0.39829636, 0
142, 3149544779, 0.014306592, -0.0067192568, 0.02461272, -0.999573, -1.1355461, 1.0943351, 0.14468479, 0
143, 3149561446, 0.021020915, -0.004118562, 0.026755728, -0.9994134, -1.5084476, 1.3125364, -0.14538956, 0
144, 3149578113, 0.028697336, -0.001708386, 0.028786572, -0.999173, -1.7083751, 1.4501586, -0.43215275, 0
145, 3149594780, 0.038950495, 2.5452417E-4, 0.03067643, -0.99877113, -1.7629849, 1.5462813, -0.48476887, 0
146, 3149611447, 0.0507991, 0.0019850507, 0.03201563, -0.99819463, -1.9835072, 1.4961817, -0.534832, 0
147, 3149628114, 0.06496343, 0.0034012173, 0.033087913, -0.99733406, -2.0623765, 1.3466647, -0.713747, 0
148, 3149644781, 0.079553515, 0.004461292, 0.034355517, -0.9962295, -2.1640725, 1.214916, -0.8153105, 0
149, 3149661448, 0.09655571, 0.00509719, 0.035912015, -0.9946674, -2.31393, 1.1407969, -0.8849335, 0
150, 3149678115, 0.1151879, 0.005191694, 0.037486695, -0.99262357, -2.3345408, 1.0715786, -0.9759035, 0
151, 3149694782, 0.135127, 0.0038139685, 0.03885585, -0.9900597, -2.1291528, 1.0138972, -1.0967436, 0
152, 3149711449, 0.15602483, 2.2771693E-4, 0.039870698, -0.9869491, -1.9712285, 0.82297707, -1.1441002, 0
153, 3149728116, 0.17757851, -0.0057915268, 0.041040115, -0.9832344, -1.952756, 0.44080964, -1.2180014, 0
154, 3149744783, 0.19984524, -0.014349529, 0.042651363, -0.9787945, -1.8391583, 0.33100325, -1.1435328, 0
155, 3149761450, 0.22319743, -0.025759356, 0.044366643, -0.97342336, -1.7895464, 0.2366263, -1.0447569, 0
156, 3149778117, 0.24660489, -0.038944848, 0.04487651, -0.967294, -2.0135233, -0.09396017, -0.8047247, 0
157, 3149794784, 0.27048725, -0.05386464, 0.04446322, -0.96018773, -1.668991, -0.42975262, -0.88048935, 0
158, 3149811451, 0.2945478, -0.07142792, 0.043764405, -0.95195913, -1.3259952, -0.59585685, -0.99489117, 0
159, 3149828118, 0.31860054, -0.0917468, 0.042860664, -0.94246554, -1.201567, -0.71296597, -0.97400093, 0
160, 3149844785, 0.34275714, -0.11480404, 0.041398004, -0.93146425, -1.1131451, -0.84822357, -1.0271091, 0
161, 3149861452, 0.36612374, -0.14047289, 0.03864316, -0.91909146, -0.97192633, -0.9970972, -1.1438961, 0
162, 3149878119, 0.387601, -0.16873628, 0.033541508, -0.90563244, -0.61935544, -1.0088875, -1.3240852, 0
163, 3149894786, 0.40620604, -0.1997931, 0.024888143, -0.891326, -0.3859085, -0.75927085, -1.3414402, 0
164, 3149911453, 0.42151263, -0.23278256, 0.0120195635, -0.8763542, -0.30912173, -0.8466585, -0.7423439, 0
165, 3149928120, 0.43492115, -0.26495212, -0.0025935546, -0.8606039, -0.4402966, -1.2294397, 0.74528885, 0
166, 3149944787, 0.44764096, -0.2938195, -0.016541766, -0.8444028, -0.2809939, -1.1446487, 1.8313255, 0
167, 3149961454, 0.45916775, -0.3178334, -0.0283358, -0.8290633, 0.06776163, -0.94273204, 2.4211464, 0
168, 3149978121, 0.46811038, -0.33703354, -0.037949707, -0.81599194, 0.35512823, -0.58923423, 2.4529552, 0
169, 3149994788, 0.47402477, -0.35284024, -0.046176657, -0.8054031, 0.46990246, -0.17301735, 2.041255, 0
170, 3150011455, 0.47783238, -0.36685053, -0.05365277, -0.7963795, 0.4989195, 0.03347375, 1.5084, 0
171, 3150028122, 0.48082566, -0.37997776, -0.060327522, -0.7878998, 0.49636853, 0.11684363, 1.1618423, 0
172, 3150044789, 0.48408517, -0.39229104, -0.065203786, -0.77943563, 0.62245387, -0.15657619, 0.8855772, 0
173, 3150061456, 0.48732558, -0.40458038, -0.06759602, -0.7708833, 0.83811843, -0.32789618, 0.38378143, 0
174, 3150078123, 0.48969293, -0.41752836, -0.06779684, -0.7624148, 1.0200392, -0.45135045, 0.07787609, 0
175, 3150094790, 0.49107987, -0.43124396, -0.06697697, -0.7539133, 1.0259198, -0.46514744, -0.17193031, 0
176, 3150111457, 0.4921285, -0.44545424, -0.06653438, -0.7449532, 1.0370384, -0.443291, -0.18174076, 0
177, 3150128124, 0.4940633, -0.4594591, -0.0684562, -0.7349248, 0.7529918, -0.083255, 0.10257244, 0
178, 3150144791, 0.4974689, -0.47220412, -0.07456599, -0.72387123, 0.76816326, -0.088027, 0.45045757, 0
179, 3150161458, 0.5021305, -0.48309684, -0.08522773, -0.7121941, 1.0988498, -0.39374354, 0.53118324, 0
180, 3150178125, 0.50739896, -0.49250892, -0.0989398, -0.7001386, 1.5243995, -0.6466621, 0.56462574, 0
181, 3150194792, 0.5125905, -0.5007574, -0.114004865, -0.68811184, 1.7659318, -0.7399336, 0.8225279, 0
182, 3150211459, 0.5174903, -0.50774544, -0.1295866, -0.6764669, 1.8577112, -0.6023987, 1.3087387, 0
183, 3150228126, 0.52263564, -0.5126923, -0.14514717, -0.6655321, 1.9113185, -0.39262262, 1.9007549, 0
184, 3150244793, 0.5284353, -0.5151118, -0.15996295, -0.655614, 1.9679704, -0.27368224, 2.1412535, 0
185, 3150261460, 0.5347818, -0.5153239, -0.17354506, -0.64678735, 1.9613674, -0.19171846, 2.0779543, 0
186, 3150278127, 0.5412323, -0.5138953, -0.18595028, -0.63906467, 1.810085, -0.074727535, 1.7980509, 0
187, 3150294794, 0.5473367, -0.51161844, -0.19757703, -0.6321665, 1.4273375, 0.16831107, 1.492136, 0
188, 3150311461, 0.5529264, -0.5091512, -0.20877865, -0.6256604, 0.88925767, 0.5001737, 1.2682133, 0
189, 3150328128, 0.5580539, -0.5065798, -0.2200635, -0.6192953, 0.19844285, 0.8523803, 1.2099571, 0
190, 3150344795, 0.5632365, -0.50357455, -0.23134805, -0.61290896, -0.3195262, 1.0249529, 1.3520889, 0
191, 3150361462, 0.568798, -0.49991676, -0.2420955, -0.6065836, -0.6331772, 1.0442556, 1.3834782, 0
192, 3150378129, 0.5746367, -0.49568072, -0.25159636, -0.6006618, -0.9281075, 1.027217, 1.2891874, 0
193, 3150394796, 0.58071023, -0.4909915, -0.2594262, -0.5953174, -1.2861056, 0.85747415, 1.1280594, 0
194, 3150411463, 0.5866523, -0.48608083, -0.26574054, -0.5907185, -1.6495047, 0.6852838, 0.92916775, 0
195, 3150428130, 0.5923397, -0.4812279, -0.271427, -0.5864152, -2.1795566, 0.63132197, 0.7577324, 0
196, 3150444797, 0.5978918, -0.4760598, -0.27761918, -0.5820841, -2.6839912, 0.62993866, 0.6847191, 0
197, 3150461464, 0.60382295, -0.46995178, -0.28445053, -0.5776098, -3.099013, 0.3093998, 0.80293083, 0
198, 3150478131, 0.6103407, -0.4629299, -0.291285, -0.57300544, -3.4454324, -0.21804516, 0.5868082, 0
199, 3150494798, 0.6173957, -0.45588538, -0.29741848, -0.5679218, -3.8265104, -0.7831572, 0.33792686, 0
200, 3150511465, 0.6246433, -0.44941556, -0.30314237, -0.5620971, -4.341197, -0.99406916, 0.12019348, 0
201, 3150528132, 0.63225496, -0.44338363, -0.30890587, -0.555197, -4.799433, -1.3243967, 0.047742844, 0
202, 3150544799, 0.64050215, -0.43736312, -0.31479624, -0.54715246, -5.0483513, -1.6124853, -0.03475094, 0
203, 3150561466, 0.64915925, -0.43143946, -0.3204116, -0.53832203, -4.930508, -1.8789824, -0.2372179, 0
204, 3150578133, 0.6581164, -0.42612973, -0.3254271, -0.5285786, -4.800184, -2.019071, -0.4587536, 0
205, 3150594800, 0.6672327, -0.42180252, -0.3299171, -0.5177259, -4.61393, -2.1214476, -0.71262646, 0
206, 3150611467, 0.6763564, -0.41840217, -0.33395937, -0.50591964, -4.2976427, -2.1695614, -0.87088203, 0
207, 3150628134, 0.685905, -0.41537026, -0.33733183, -0.4931643, -3.9990559, -2.2075734, -0.7537441, 0
208, 3150644801, 0.6961848, -0.4125154, -0.33983278, -0.47924253, -3.6789997, -2.4049666, -0.5821972, 0
209, 3150661468, 0.7071965, -0.40978304, -0.3415283, -0.46401644, -3.2581472, -2.522128, -0.20532608, 0
210, 3150678135, 0.7187813, -0.40706924, -0.34236047, -0.44770467, -2.545199, -2.5972672, 0.07219887, 0
211, 3150694802, 0.7306652, -0.40421447, -0.3426639, -0.43049088, -1.967492, -2.5813246, 0.31595993, 0
212, 3150711469, 0.7426722, -0.40075448, -0.34303033, -0.4125119, -1.3053961, -2.6175597, 0.60920334, 0
213, 3150728136, 0.75486666, -0.3961908, -0.34387308, -0.39365298, -0.65555835, -2.422671, 0.9859028, 0
214, 3150744803, 0.7671168, -0.3904837, -0.34528315, -0.3739462, -0.10281619, -2.0568466, 1.1313658, 0
215, 3150761470, 0.7793706, -0.3836521, -0.346887, -0.35364377, 0.4131675, -1.7760302, 1.2954245, 0
216, 3150778137, 0.7916588, -0.37583855, -0.3476575, -0.3334035, 0.9342258, -1.5652092, 1.4879189, 0
217, 3150794804, 0.8040769, -0.3675089, -0.34674546, -0.31331605, 1.3822609, -1.2887051, 1.29949, 0
218, 3150811471, 0.8160658, -0.35933733, -0.34465048, -0.29348123, 1.7344221, -1.1330096, 0.7396908, 0
219, 3150828138, 0.82718325, -0.35163334, -0.34218708, -0.27391905, 1.9732788, -1.046666, 0.32211304, 0
220, 3150844805, 0.83742416, -0.34417647, -0.33976573, -0.25460678, 2.076331, -0.96043766, 0.11427212, 0
221, 3150861472, 0.84708035, -0.3367218, -0.33722883, -0.23527, 2.1544828, -0.85917956, 0.038142204, 0
222, 3150878139, 0.85628563, -0.3293123, -0.33418903, -0.21598163, 2.223562, -0.7807511, -0.09118557, 0
223, 3150894806, 0.8650032, -0.3220467, -0.33060738, -0.19686526, 2.404018, -0.6036866, -0.5142298, 0
224, 3150911473, 0.8731017, -0.31520346, -0.32669476, -0.17779918, 2.4736402, -0.43861938, -0.82315636, 0
225, 3150928140, 0.88065195, -0.30836272, -0.32266727, -0.15891, 2.4100409, -0.25377014, -1.0036392, 0
226, 3150944807, 0.8876206, -0.3014558, -0.31880563, -0.14006723, 2.4662862, -0.034021802, -1.3848734, 0
227, 3150961474, 0.89366907, -0.29500255, -0.31557488, -0.12142309, 2.4244847, 0.17813033, -1.8110952, 0
228, 3150978141, 0.8988286, -0.2890288, -0.3127985, -0.103578, 2.334236, 0.34699526, -1.8923373, 0
229, 3150994808, 0.9033277, -0.28332958, -0.31023785, -0.08647454, 2.1390333, 0.45932505, -2.0093756, 0
230, 3151011475, 0.9070087, -0.27778774, -0.30861732, -0.07018873, 1.8763251, 0.5017584, -2.1336632, 0
231, 3151028142, 0.90982974, -0.2722455, -0.30835, -0.054905884, 1.635154, 0.4430714, -2.0047088, 0
232, 3151044809, 0.9120281, -0.26673675, -0.30889574, -0.04051939, 1.5439298, 0.46955726, -1.6739836, 0
233, 3151061476, 0.91383576, -0.26134127, -0.3096388, -0.027031895, 1.3598343, 0.49789488, -1.5015392, 0
234, 3151078143, 0.9152997, -0.25608194, -0.31054655, -0.014528837, 1.1730301, 0.5020265, -1.39118, 0
235, 3151094810, 0.9164518, -0.25111037, -0.3115307, -0.003169259, 1.0413038, 0.5313884, -1.280139, 0
236, 3151111477, 0.91734135, -0.24666107, -0.31239954, 0.0071925297, 0.8732658, 0.48365098, -1.166749, 0
237, 3151128144, 0.91803783, -0.24289319, -0.3129463, 0.016609324, 0.69691944, 0.627364, -1.1132116, 0
238, 3151144811, 0.91857797, -0.24004632, -0.3130086, 0.02489422, 0.5200959, 0.71274406, -1.1033688, 0
239, 3151161478, 0.91899264, -0.23824601, -0.3125024, 0.032180857, 0.35127094, 0.6880115, -1.0910816, 0
240, 3151178145, 0.91922385, -0.23747906, -0.31168705, 0.038530834, 0.1546665, 0.64769596, -1.1172104, 0
241, 3151194812, 0.91927737, -0.23760054, -0.31070212, 0.044063855, 0.044617657, 0.5791718, -1.0410576, 0
242, 3151211479, 0.9191901, -0.23851874, -0.3095109, 0.04902196, -0.063752376, 0.4929623, -0.98922443, 0
243, 3151228146, 0.91900176, -0.24019846, -0.30803686, 0.05343791, -0.12968177, 0.47093332, -0.90656376, 0
244, 3151244813, 0.9187483, -0.24252439, -0.3062678, 0.0573177, -0.18120195, 0.38546988, -0.8312149, 0
245, 3151261480, 0.9183836, -0.24541502, -0.30437443, 0.060838096, -0.18562192, 0.2664757, -0.69204235, 0
246, 3151278147, 0.91788614, -0.24858467, -0.3026622, 0.06393816, -0.24956205, 0.1292866, -0.5486002, 0
247, 3151294814, 0.91725975, -0.25169265, -0.30140728, 0.06664084, -0.19460624, 0.005838382, -0.29799747, 0
248, 3151311481, 0.9166056, -0.2548524, -0.30015156, 0.069248214, -0.1261259, -0.11204459, 0.06602383, 0
249, 3151328148, 0.9159514, -0.2583782, -0.29848242, 0.07199947, 0.06546829, -0.08198723, 0.3712635, 0
250, 3151344815, 0.9151003, -0.26314688, -0.29629812, 0.074528895, 0.669563, 0.26272452, 0.536767, 0
251, 3151361482, 0.91381186, -0.26931664, -0.2943797, 0.0758872, 1.3038548, 0.6725757, 0.9792385, 0
252, 3151378149, 0.9123423, -0.27437133, -0.29423755, 0.076014586, 1.4544415, 0.07885314, 2.3593025, 0
253, 3151394816, 0.91120005, -0.2755485, -0.29661953, 0.07619971, 1.4859761, -0.7438082, 4.185136, 0
254, 3151411483, 0.9107893, -0.27346975, -0.29934165, 0.07793278, 1.5190539, -1.0020415, 5.037342, 0
255, 3151428150, 0.9109407, -0.27190673, -0.29950076, 0.080963895, 1.6049619, -0.39847824, 4.2387733, 0
256, 3151444817, 0.91061085, -0.27472642, -0.29712793, 0.0838454, 1.3774605, 0.18465188, 2.3679552, 0
257, 3151461484, 0.9090965, -0.28187686, -0.29440072, 0.08613613, 1.1872308, 0.19982482, 1.0628595, 0
258, 3151478151, 0.90682936, -0.28993192, -0.29290858, 0.08835416, 0.9833403, -0.09101269, 0.42792034, 0
259, 3151494818, 0.9045012, -0.29553264, -0.2935467, 0.09148998, 0.76150995, -0.51675326, 0.5160103, 0
260, 3151511485, 0.90286493, -0.29694566, -0.29563493, 0.09623008, 0.6759892, -0.5297503, 0.9843073, 0
261, 3151528152, 0.9023632, -0.29441008, -0.29765978, 0.10229492, 0.73290545, -0.11774439, 1.3092604, 0
262, 3151544819, 0.90252495, -0.28988272, -0.2992078, 0.109057866, 0.7027386, 0.49599066, 1.1367855, 0
263, 3151561486, 0.9025282, -0.28560722, -0.3007916, 0.11574815, 0.59462494, 0.87656707, 0.9090023, 0
264, 3151578153, 0.9021115, -0.28246012, -0.30258414, 0.12188494, 0.474592, 1.0929593, 0.8708086, 0
265, 3151594820, 0.90133244, -0.2803948, -0.30446303, 0.12760472, 0.25158483, 1.2417611, 0.81518745, 0
266, 3151611487, 0.9005311, -0.27911308, -0.30586433, 0.13262197, 0.0749544, 1.468251, 0.6729307, 0
267, 3151628154, 0.8998947, -0.27865827, -0.30631903, 0.13678397, -0.0011224821, 1.8001201, 0.19717312, 0
268, 3151644821, 0.8993627, -0.27903056, -0.3059578, 0.1402873, -0.021317549, 1.9604601, -0.20282745, 0
269, 3151661488, 0.8990237, -0.28036034, -0.3046029, 0.14273635, -0.097670466, 2.2438223, -0.6584997, 0
270, 3151678155, 0.89884347, -0.28285703, -0.30224264, 0.14395693, -0.27546093, 2.357104, -0.9864807, 0
271, 3151694822, 0.8987464, -0.28620654, -0.29933774, 0.14401232, -0.40614673, 2.4229848, -1.381978, 0
272, 3151711489, 0.8985221, -0.290157, -0.2966637, 0.14303663, -0.42551702, 2.4181895, -1.5736828, 0
273, 3151728156, 0.8980618, -0.29507428, -0.29436678, 0.14059328, -0.3573494, 2.5310688, -1.6304531, 0
274, 3151744823, 0.89751047, -0.30138588, -0.29160246, 0.1364238, -0.2064616, 2.525693, -1.5026827, 0
275, 3151761490, 0.8969336, -0.30884132, -0.2881148, 0.13083978, -0.13616298, 2.1904557, -1.4270716, 0
276, 3151778157, 0.89610386, -0.31724834, -0.28438866, 0.12440419, 0.0332404, 1.9541345, -1.305728, 0
277, 3151794824, 0.89466774, -0.3271155, -0.28084785, 0.11701066, 0.16939376, 1.967309, -1.300169, 0
278, 3151811491, 0.89241403, -0.33905822, -0.27737135, 0.10818502, 0.28939766, 1.8390379, -1.1823854, 0
279, 3151828158, 0.8895637, -0.35250202, -0.27350804, 0.09805121, 0.45389557, 1.5977327, -0.9678812, 0
280, 3151844825, 0.88634396, -0.366475, -0.26930898, 0.08697811, 0.7538893, 1.3201851, -0.93082905, 0
281, 3151861492, 0.88280326, -0.38042408, -0.26508334, 0.07529117, 1.0643754, 1.0241113, -0.8470278, 0
282, 3151878159, 0.87903976, -0.39420334, -0.26069736, 0.06270184, 1.0378368, 0.78626513, -0.58300114, 0
283, 3151894826, 0.8753035, -0.40694442, -0.25636634, 0.05018168, 0.96576506, 0.35089096, -0.034934044, 0
284, 3151911493, 0.87199444, -0.4179526, -0.25197604, 0.03809732, 1.0990365, 0.30308154, 0.18568516, 0
285, 3151928160, 0.8688711, -0.42791522, -0.24754265, 0.026003875, 1.2810446, 0.57647836, 0.06638622, 0
286, 3151944827, 0.86541027, -0.43766922, -0.24358931, 0.013294904, 1.5249687, 0.98593265, -0.21669388, 0
287, 3151961494, 0.86059695, -0.44868562, -0.24094635, -8.47267E-4, 1.5922654, 1.352218, -0.42692757, 0
288, 3151978161, 0.85435164, -0.4609473, -0.23944598, -0.016691621, 2.1017122, 1.2545912, 0.4528408, 0
289, 3151994828, 0.8474262, -0.47325343, -0.2381789, -0.03424634, 2.9488192, 0.9599504, 1.5669699, 0
290, 3152011495, 0.8401501, -0.4851172, -0.23676965, -0.052452825, 3.3502784, 0.1115048, 2.979354, 0
291, 3152028162, 0.83298284, -0.4959353, -0.23510931, -0.07009592, 2.8383381, -0.5787998, 3.8718739, 0
292, 3152044829, 0.8272969, -0.50429714, -0.2323188, -0.085406095, 1.7674758, -0.94618, 4.506728, 0
293, 3152061496, 0.82403195, -0.50999564, -0.22624975, -0.098432034, 1.6854262, -0.7174668, 3.2898588, 0
294, 3152078163, 0.82232296, -0.51433116, -0.21728455, -0.10971576, 1.5610337, -0.41232017, 2.0766954, 0
295, 3152094830, 0.8223204, -0.5162301, -0.20700166, -0.1201998, 1.451579, -0.08434887, 1.3636398, 0
296, 3152111497, 0.82366914, -0.5157705, -0.19639215, -0.1303152, 1.57854, 0.29902592, 0.7254467, 0
297, 3152128164, 0.8257272, -0.5139883, -0.18534657, -0.14014085, 1.932641, 0.5988795, 0.20935154, 0
298, 3152144831, 0.827934, -0.51150984, -0.17366616, -0.15074798, 2.2958658, 0.9455291, -0.76782227, 0
299, 3152161498, 0.82883424, -0.5103904, -0.16149597, -0.1626548, 2.3288968, 1.1254083, -1.5544796, 0
300, 3152178165, 0.8281688, -0.5110832, -0.14819248, -0.17598674, 2.0826056, 1.147767, -1.5845976, 0
301, 3152194832, 0.8263859, -0.51278275, -0.13336533, -0.19067195, 1.4739759, 1.1209414, -1.5967207, 0
302, 3152211499, 0.8237952, -0.5144578, -0.11765524, -0.20701179, 0.7509778, 1.1308852, -1.5905428, 0
303, 3152228166, 0.82088524, -0.5153353, -0.10220788, -0.22390252, 0.2127085, 1.094819, -1.8364806, 0
304, 3152244833, 0.8174843, -0.5162301, -0.087182, -0.24005643, -0.16099806, 0.9743234, -2.2607617, 0
305, 3152261500, 0.8125185, -0.51851046, -0.07212119, -0.25643933, -0.45738935, 0.8174175, -2.3577323, 0
306, 3152278167, 0.80584145, -0.5222194, -0.056810774, -0.2732782, -0.6677457, 0.6977185, -1.4400434, 0
307, 3152294834, 0.79969925, -0.5239398, -0.041008465, -0.29032457, -0.8844867, 0.4806342, -0.008383751, 0
308, 3152311501, 0.7959122, -0.52117074, -0.025132224, -0.30704242, -1.153167, 0.20336595, 1.0658836, 0
309, 3152328168, 0.7967547, -0.5102618, -0.01011193, -0.32359627, -1.6447878, -0.006518085, 2.0027304, 0
310, 3152344835, 0.8018225, -0.49240062, 0.003009513, -0.338549, -1.8417256, -0.107934855, 0.6969061, 0
311, 3152361502, 0.8081002, -0.47406328, 0.014121574, -0.34934318, -2.218319, 0.4220966, -0.482193, 0
312, 3152378169, 0.81323135, -0.457763, 0.023394885, -0.35855597, -2.1814106, 0.39779764, -0.7252703, 0
313, 3152394836, 0.8170588, -0.44400862, 0.031139115, -0.36647442, -2.0767148, 0.93949693, -0.8743954, 0
314, 3152411503, 0.8195705, -0.43298337, 0.03846462, -0.373299, -1.6964661, 0.89604735, -0.49697208, 0
315, 3152428170, 0.8218721, -0.42295888, 0.0445025, -0.37901658, -1.9045997, 1.2153593, -0.23512745, 0
316, 3152444837, 0.8242645, -0.41308156, 0.049247295, -0.38409442, -1.5264885, 1.2010156, 0.07551193, 0
317, 3152461504, 0.82740736, -0.40217364, 0.05195763, -0.38853016, -1.3808633, 0.9402895, 0.22987461, 0
318, 3152478171, 0.831069, -0.39043927, 0.053040646, -0.39251798, -1.0373056, 0.8565452, 0.43155003, 0
319, 3152494838, 0.83410764, -0.38012514, 0.054718908, -0.39595082, -0.3518067, 0.80189025, 0.31610298, 0
320, 3152511505, 0.83591443, -0.37216097, 0.05740909, -0.39931124, -0.25153038, 0.5180684, 0.6029177, 0
321, 3152528172, 0.8363946, -0.3671043, 0.059335887, -0.4026904, -0.4659769, 0.4421663, 0.6701069, 0
322, 3152544839, 0.83616906, -0.36411035, 0.0595486, -0.40583354, -0.8445144, -0.13469182, 1.7371349, 0
323, 3152561506, 0.8367371, -0.3604911, 0.05815783, -0.40808946, -1.4392043, -0.47517693, 2.8968296, 0
324, 3152578173, 0.839381, -0.35371715, 0.054877684, -0.40904033, -2.0756733, -0.87284446, 3.8084183, 0
325, 3152594840, 0.84495246, -0.34192932, 0.04928651, -0.40830424, -2.401647, -0.8751337, 3.733489, 0
326, 3152611507, 0.85260534, -0.32658494, 0.041643284, -0.4058004, -2.0955455, -0.32865614, 2.2594643, 0
327, 3152628174, 0.860361, -0.3121152, 0.03357812, -0.40154377, -1.3705971, 0.09601603, 0.8256016, 0
328, 3152644841, 0.8674593, -0.30049136, 0.026052909, -0.3956545, -0.9642625, 0.17902426, 0.068590164, 0
329, 3152661508, 0.8737236, -0.29161274, 0.018458063, -0.38888338, -0.98396206, -0.17041321, 0.09480381, 0
330, 3152678175, 0.87982595, -0.28314728, 0.009973355, -0.3816233, -1.1799265, -0.888051, 0.5852308, 0
331, 3152694842, 0.8862632, -0.2730751, 4.156679E-4, -0.37412468, -1.2389902, -1.3654433, 0.64349365, 0
332, 3152711509, 0.8927842, -0.2608406, -0.010580486, -0.3671357, -1.032482, -1.361389, 0.32651615, 0
333, 3152728176, 0.8991555, -0.24842829, -0.023384664, -0.3595248, -0.5347855, -0.81592554, -0.5747566, 0
334, 3152744843, 0.90520775, -0.23730728, -0.03884062, -0.3503966, -0.8191427, -0.76711816, -1.0857239, 0
335, 3152761510, 0.909764, -0.22788541, -0.056413542, -0.34237024, 0.046618294, -0.29985502, -1.6184263, 0
336, 3152778177, 0.9127948, -0.2207112, -0.0741148, -0.33556086, 0.6360834, -0.16961537, -1.6920328, 0
337, 3152794844, 0.91474885, -0.21458209, -0.089871354, -0.33032405, 1.0428596, -0.014153735, -1.560049, 0
338, 3152811511, 0.9163056, -0.20911516, -0.10219056, -0.32590482, 1.1972883, -0.19454344, -1.4975348, 0
339, 3152828178, 0.91883606, -0.20354296, -0.11070192, -0.3194645, 0.85295564, -0.5202462, -1.158988, 0
340, 3152844845, 0.92138165, -0.19883509, -0.1165297, -0.31295875, 0.74721, 0.041406, -1.7544823, 0
341, 3152861512, 0.92244613, -0.19815479, -0.12079803, -0.3086056, 0.8895667, 0.5637655, -2.0237164, 0
342, 3152878179, 0.92220134, -0.20172817, -0.12394971, -0.30575928, 0.9177855, 0.4291251, -1.9194474, 0
343, 3152894846, 0.92095363, -0.2084899, -0.12611647, -0.30409348, 0.92586476, 0.4248838, -1.7908278, 0
344, 3152911513, 0.9187306, -0.21740769, -0.12732954, -0.3040674, 1.0327228, 0.459355, -1.873642, 0
345, 3152928180, 0.915452, -0.22840711, -0.12760189, -0.30577403, 1.2231961, 0.57719016, -1.9780607, 0
346, 3152944847, 0.9111752, -0.24118519, -0.12723345, -0.30887386, 1.2587594, 0.41057888, -2.0540524, 0
347, 3152961514, 0.906007, -0.25491777, -0.12654655, -0.31329885, 1.3340808, 0.2656779, -2.1724234, 0
348, 3152978181, 0.89997464, -0.26899612, -0.12575248, -0.31917846, 1.600378, 0.146153, -2.2020912, 0
349, 3152994848, 0.8931283, -0.28305188, -0.12486121, -0.3265198, 1.9008493, -0.009146597, -2.318303, 0
350, 3153011515, 0.8854956, -0.29686123, -0.124046914, -0.3352395, 2.1456516, -0.22274955, -2.4187865, 0
351, 3153028182, 0.87722033, -0.31066847, -0.12357512, -0.34452954, 2.4007125, -0.46296418, -2.4651642, 0
352, 3153044849, 0.86819255, -0.32436317, -0.1234897, -0.35465837, 2.6099584, -0.65455467, -2.3584824, 0
353, 3153061516, 0.8585657, -0.33719474, -0.12330427, -0.36600965, 3.035208, -0.9080748, -2.3242283, 0
354, 3153078183, 0.8485742, -0.3485612, -0.12267904, -0.37865356, 3.3191898, -1.2422394, -2.588839, 0
355, 3153094850, 0.8376784, -0.35908076, -0.122177854, -0.39297646, 3.6756608, -1.6162134, -2.9859252, 0
356, 3153111517, 0.82496655, -0.37030005, -0.12240842, -0.40905514, 4.220925, -2.217531, -3.0878534, 0
357, 3153128184, 0.81011957, -0.38255006, -0.12446602, -0.42646432, 4.4297, -2.9945507, -2.4719071, 0
358, 3153144851, 0.7935323, -0.3945604, -0.12976904, -0.44473672, 4.469733, -3.6518972, -1.4078455, 0
359, 3153161518, 0.77613765, -0.40444076, -0.14009269, -0.46304864, 3.9575794, -4.1160765, 0.09297466, 0
360, 3153178185, 0.75932807, -0.41004825, -0.15723038, -0.48016858, 2.680966, -3.7811096, 1.3972979, 0
361, 3153194852, 0.7440265, -0.41055065, -0.1813133, -0.49497512, 1.8191128, -3.1868596, 2.0583038, 0
362, 3153211519, 0.73048884, -0.40655836, -0.21116982, -0.5064638, 1.6126521, -2.662527, 2.500722, 0
363, 3153228186, 0.7184304, -0.39919993, -0.2448768, -0.51432925, 1.6759424, -1.9016445, 2.9753084, 0
364, 3153244853, 0.7069805, -0.38965562, -0.2803475, -0.5193788, 1.8573858, -1.0992993, 3.391591, 0
365, 3153261520, 0.69528157, -0.37929723, -0.31533325, -0.5227657, 1.7813064, -0.32724845, 3.6391687, 0
366, 3153278187, 0.6827791, -0.369713, -0.34743503, -0.52575254, 1.5423228, 0.3260093, 3.785489, 0
367, 3153294854, 0.6693982, -0.36240777, -0.37426093, -0.5296201, 1.2004546, 0.7261654, 3.7218866, 0
368, 3153311521, 0.65537375, -0.35850307, -0.3940694, -0.5354175, 0.70813173, 0.85756, 3.4429474, 0
369, 3153328188, 0.64078534, -0.35870332, -0.40634793, -0.5436997, -0.1102985, 0.9194219, 2.7846622, 0
370, 3153344855, 0.62577844, -0.36255303, -0.41245693, -0.5539295, -1.1629649, 0.8265049, 1.8852863, 0
371, 3153361522, 0.61022097, -0.36904472, -0.4144441, -0.5653976, -1.9440082, 0.8021339, 1.195219, 0
372, 3153378189, 0.5944234, -0.37676963, -0.4142862, -0.5771258, -2.7840075, 0.88605833, 0.6529608, 0
373, 3153394856, 0.57910234, -0.38417137, -0.41394934, -0.58796316, -3.58094, 1.1480227, 0.3725052, 0
374, 3153411523, 0.56488633, -0.38978598, -0.41504553, -0.5972517, -4.1463675, 1.4995565, 0.17348957, 0
375, 3153428190, 0.55244595, -0.39310673, -0.41844678, -0.604297, -4.5450745, 1.8155518, -0.05615139, 0
376, 3153444857, 0.5419469, -0.3941821, -0.4241559, -0.60910434, -4.856588, 2.2121253, -0.32932568, 0
377, 3153461524, 0.53300947, -0.39321825, -0.4319619, -0.6121203, -5.0740013, 2.5263715, -0.57037735, 0
378, 3153478191, 0.5253484, -0.39098364, -0.44146684, -0.6133923, -5.267116, 2.8391366, -0.61181736, 0
379, 3153494858, 0.518991, -0.3881447, -0.4519943, -0.6129397, -5.582439, 3.2034373, -0.82282066, 0
380, 3153511525, 0.51389784, -0.3850759, -0.46285695, -0.61105716, -5.709598, 3.5056522, -0.9355583, 0
381, 3153528192, 0.51014227, -0.38213614, -0.47344226, -0.60793173, -5.7824893, 3.7585998, -0.8933382, 0
382, 3153544859, 0.50821406, -0.37947497, -0.4830569, -0.60363495, -5.870015, 3.9870129, -0.7503195, 0
383, 3153561526, 0.508384, -0.37679672, -0.49117497, -0.59859747, -5.776414, 4.160671, -0.4663763, 0
384, 3153578193, 0.51080084, -0.37369817, -0.49756426, -0.593181, -5.5577865, 4.173485, -0.048707962, 0
385, 3153594860, 0.51570904, -0.370099, -0.5019914, -0.58743304, -5.279875, 4.015476, 0.60471535, 0
386, 3153611527, 0.52277136, -0.36604047, -0.5042049, -0.58181095, -4.9703374, 3.6707726, 1.0364122, 0
387, 3153628194, 0.53112334, -0.36177844, -0.50435776, -0.5767579, -4.713077, 3.1111622, 1.2695818, 0
388, 3153644861, 0.5403643, -0.35786328, -0.5027148, -0.5720314, -4.6273603, 2.4901247, 1.459198, 0
389, 3153661528, 0.55039376, -0.354532, -0.49954912, -0.5672975, -4.573037, 1.8410434, 1.7553902, 0
390, 3153678195, 0.5611124, -0.35144237, -0.49514854, -0.5625574, -4.385795, 1.1406211, 2.7185316, 0
391, 3153694862, 0.57237357, -0.3482746, -0.49023354, -0.557464, -4.26371, 0.6297929, 3.7381525, 0
392, 3153711529, 0.58385414, -0.3445531, -0.48555887, -0.55193484, -4.2219067, 0.16265865, 3.8892689, 0
393, 3153728196, 0.59550333, -0.34031895, -0.4814315, -0.5456961, -4.195978, -0.33343282, 3.71247, 0
394, 3153744863, 0.6074316, -0.33604068, -0.477942, -0.5382163, -4.1160455, -0.7624105, 3.3028278, 0
395, 3153761530, 0.62006474, -0.3322731, -0.47476053, -0.5288844, -3.9387162, -1.0485158, 2.7649555, 0
396, 3153778197, 0.6334021, -0.32873014, -0.47172195, -0.51789826, -3.5179965, -1.0413578, 2.4449978, 0
397, 3153794864, 0.6474147, -0.32459742, -0.4685989, -0.5058732, -2.91076, -1.1107081, 2.3211317, 0
398, 3153811531, 0.6623056, -0.31920627, -0.4648955, -0.49328753, -2.3027315, -1.2741213, 2.2091913, 0
399, 3153828198, 0.6781799, -0.31241006, -0.46023533, -0.4802678, -1.736303, -1.5769544, 1.9353704, 0
400, 3153844865, 0.6947276, -0.30443415, -0.4545454, -0.46697333, -1.132749, -1.905471, 1.4779968, 0
401, 3153861532, 0.71126527, -0.29569292, -0.4479145, -0.45391864, -0.49364623, -2.140104, 1.0043535, 0
402, 3153878199, 0.7271946, -0.28672695, -0.44064552, -0.44137162, 0.07153532, -2.380595, 0.52221966, 0
403, 3153894866, 0.7421234, -0.27786806, -0.43310001, -0.42949802, 0.4647422, -2.538592, 0.09678841, 0
404, 3153911533, 0.75566393, -0.26916876, -0.4257226, -0.41866738, 0.7657934, -2.6773584, -0.16396523, 0
405, 3153928200, 0.76765, -0.26050997, -0.4190674, -0.40894064, 0.9035916, -2.8196232, -0.37791634, 0
406, 3153944867, 0.77827597, -0.251749, -0.41341648, -0.3999975, 0.87003267, -3.0453184, -0.5082989, 0
407, 3153961534, 0.78779185, -0.24293545, -0.40853798, -0.39174643, 0.9188597, -3.260256, -0.5375061, 0
408, 3153978201, 0.796497, -0.23460984, -0.40366223, -0.38419995, 1.153102, -3.4247217, -0.5502176, 0
409, 3153994868, 0.8044449, -0.22784689, -0.39787215, -0.37769568, 1.3941363, -3.5643272, -0.59735584, 0
410, 3154011535, 0.81167865, -0.22331451, -0.39062226, -0.37245756, 1.6660897, -3.7521393, -0.6051903, 0
411, 3154028202, 0.8183004, -0.22129251, -0.38180813, -0.36829174, 1.8481833, -3.977633, -0.7732887, 0
412, 3154044869, 0.82444155, -0.2218071, -0.3715632, -0.36474735, 2.0635061, -4.16789, -1.0616894, 0
413, 3154061536, 0.83012086, -0.22477555, -0.360173, -0.36145905, 2.282067, -4.304114, -1.5199127, 0
414, 3154078203, 0.83519787, -0.23008786, -0.3481247, -0.3582109, 2.4315548, -4.3300705, -2.0301695, 0
415, 3154094870, 0.83970284, -0.237305, -0.33600637, -0.35452366, 2.4480143, -4.3398356, -2.4344397, 0
416, 3154111537, 0.8437594, -0.24558556, -0.32433155, -0.35009828, 2.4650333, -4.330867, -2.720848, 0
417, 3154128204, 0.8475437, -0.25387666, -0.31361705, -0.34476462, 2.5003245, -4.277639, -2.9205675, 0
418, 3154144871, 0.8513589, -0.26083392, -0.30469754, -0.33810544, 2.351928, -4.259798, -3.031961, 0
419, 3154161538, 0.85553753, -0.26497796, -0.29844907, -0.3298065, 2.3540227, -4.205644, -3.0538502, 0
420, 3154178205, 0.8603407, -0.26539332, -0.29560378, -0.3193753, 2.603221, -4.1037936, -2.8193378, 0
421, 3154194872, 0.865709, -0.26145136, -0.29636565, -0.30718148, 3.2360053, -3.7078538, -2.482123, 0
422, 3154211539, 0.8710325, -0.25347003, -0.3009036, -0.29413345, 3.9830303, -3.0649862, -1.9340949, 0
423, 3154228206, 0.87581635, -0.24181597, -0.30895743, -0.28110096, 4.8779745, -2.5327666, -0.9136276, 0
424, 3154244873, 0.8799094, -0.22638246, -0.32029724, -0.26818317, 4.7783804, -2.2245054, 0.17908764, 0
425, 3154261540, 0.8832999, -0.20645672, -0.3356584, -0.25395378, 2.779901, -2.0366302, 0.031057358, 0
426, 3154278207, 0.88570184, -0.1822729, -0.35540983, -0.23663162, 0.6862791, -1.6918181, -0.64075565, 0
427, 3154294874, 0.8868208, -0.15553662, -0.37776557, -0.21599191, -0.39328715, -0.873098, -0.6727619, 0
428, 3154311541, 0.886883, -0.12904523, -0.39897075, -0.1939333, -0.24546796, 0.39554718, 0.065304756, 0
429, 3154328208, 0.8866092, -0.10639255, -0.41543534, -0.17326409, 0.3282489, 1.7082186, 1.1243353, 0
430, 3154344875, 0.8867632, -0.08945325, -0.4259878, -0.15551685, 0.5016198, 2.2034502, 1.9282494, 0
431, 3154361542, 0.8876429, -0.07769329, -0.43173766, -0.14020805, 0.32642636, 1.8580364, 1.8367872, 0
432, 3154378209, 0.8887668, -0.0696686, -0.4351506, -0.12603778, 0.017535485, 1.3204573, 1.1283827, 0
433, 3154394876, 0.88964754, -0.06378236, -0.43782732, -0.11299598, 0.13999063, 1.1248647, 0.5737076, 0
434, 3154411543, 0.89009506, -0.05973541, -0.44029033, -0.10153137, 0.39605334, 1.1507708, 0.06316662, 0
435, 3154428210, 0.8898528, -0.057706878, -0.44324017, -0.091497995, 0.31857973, 0.9422573, -0.48088455, 0
436, 3154444877, 0.88868576, -0.056595653, -0.44742858, -0.0827308, -0.017100753, 0.52647924, -0.9702368, 0
437, 3154461544, 0.8866581, -0.054774184, -0.4530793, -0.07455428, -0.45625162, -0.06335209, -1.2233553, 0
438, 3154478211, 0.88418883, -0.05094264, -0.45963162, -0.065997526, -0.7525594, -0.5240996, -1.264473, 0
439, 3154494878, 0.88167286, -0.044675663, -0.46633273, -0.056505047, -0.9622597, -0.7493973, -1.1858892, 0
440, 3154511545, 0.8792848, -0.03629918, -0.47266248, -0.046181574, -1.1076624, -0.7603124, -1.223731, 0
441, 3154528212, 0.8769674, -0.026616342, -0.47850594, -0.03541125, -1.1609486, -0.6965651, -1.2473202, 0
442, 3154544879, 0.8746101, -0.016576175, -0.4839193, -0.02462858, -1.1052392, -0.68796444, -1.2109289, 0
443, 3154561546, 0.87209797, -0.006617064, -0.48908827, -0.014000657, -1.0588206, -0.85046196, -1.0938349, 0
444, 3154578213, 0.8693675, 0.003358055, -0.49414462, -0.003479261, -0.9423224, -1.0642618, -0.83483887, 0
445, 3154594880, 0.8663653, 0.013561372, -0.49917704, 0.0071884487, -0.8823375, -1.2948797, -0.48672104, 0
446, 3154611547, 0.86309034, 0.024150372, -0.5041502, 0.018071765, -0.8180706, -1.4538888, -0.16581154, 0
447, 3154628214, 0.85955894, 0.034788243, -0.5090148, 0.029227471, -0.84333336, -1.594519, 0.12335777, 0
448, 3154644881, 0.8558393, 0.04500839, -0.513675, 0.040660966, -0.8241839, -1.7053255, 0.28109455, 0
449, 3154661548, 0.8521293, 0.05433616, -0.51786536, 0.052352007, -0.75820243, -1.7738956, 0.4706688, 0
450, 3154678215, 0.84871715, 0.06246673, -0.5211751, 0.06446397, -0.67411286, -1.8692033, 0.67494583, 0
451, 3154694882, 0.8458465, 0.069444194, -0.523203, 0.07734168, -0.5355527, -1.8646549, 0.82169724, 0
452, 3154711549, 0.84351885, 0.075284064, -0.5239086, 0.09126799, -0.25221336, -1.6841995, 1.0488319, 0
453, 3154728216, 0.8415056, 0.08025055, -0.5236441, 0.1059569, -0.04441292, -1.356288, 1.3882465, 0
454, 3154744883, 0.83961415, 0.08469913, -0.5227438, 0.12089241, 0.1990517, -0.8131394, 1.922595, 0
455, 3154761550, 0.83769643, 0.08874044, -0.5214745, 0.13585342, 0.49324796, -0.29647502, 2.4980812, 0
456, 3154778217, 0.83564407, 0.09292497, -0.52000296, 0.15054251, 0.7042996, 0.12713651, 3.2242823, 0
457, 3154794884, 0.83345115, 0.09776463, -0.51834613, 0.16468264, 0.90895927, 0.58131427, 4.086584, 0
458, 3154811551, 0.83084875, 0.1038091, -0.516824, 0.17835039, 0.8136922, 0.39127105, 4.1990776, 0
459, 3154828218, 0.82764184, 0.11091178, -0.5156553, 0.19185793, 0.4657469, -0.3652358, 2.8073587, 0
460, 3154844885, 0.82426494, 0.117539234, -0.51431775, 0.20555037, 0.3005029, -0.6772692, 1.6511679, 0
461, 3154861552, 0.8216184, 0.12218082, -0.5115298, 0.21989606, 0.14154986, -0.6829418, 1.2646027, 0
462, 3154878219, 0.8203622, 0.12448563, -0.5063197, 0.23484331, 0.004138119, -0.046313897, 1.3129759, 0
463, 3154894886, 0.8205552, 0.12502915, -0.4987629, 0.24958837, 0.027070101, 0.776056, 1.3485117, 0
464, 3154911553, 0.82192993, 0.12496236, -0.48944667, 0.26317218, 0.25072566, 1.5230241, 1.1833458, 0
465, 3154928220, 0.82404214, 0.12496456, -0.47937283, 0.27484983, 0.57056284, 2.0244405, 0.74358654, 0
466, 3154944887, 0.8266935, 0.12499077, -0.46941027, 0.28392094, 0.896468, 2.243286, 0.16680145, 0
467, 3154961554, 0.82978475, 0.12471674, -0.4602003, 0.29003534, 1.2399601, 2.1918879, -0.42403984, 0
468, 3154978221, 0.83297104, 0.12381664, -0.45237526, 0.2935765, 1.493111, 1.9856793, -0.89090157, 0
469, 3154994888, 0.83590287, 0.12235447, -0.44624272, 0.29523703, 1.5975589, 1.5888453, -1.030879, 0
470, 3155011555, 0.8385586, 0.12203255, -0.44101194, 0.29569927, 1.6563206, 0.9584288, -0.58793163, 0
471, 3155028222, 0.8408455, 0.12458957, -0.4355779, 0.296193, 1.5352633, 0.38823876, -0.043061256, 0
472, 3155044889, 0.84268993, 0.1303225, -0.42940727, 0.2974915, 1.4111357, 0.07251621, 0.48805618, 0
473, 3155061556, 0.844247, 0.13856192, -0.42216334, 0.29971266, 1.3125521, -0.064968735, 1.0813379, 0
474, 3155078223, 0.8459622, 0.14762348, -0.4133344, 0.30283967, 1.165494, 0.018792747, 1.7457829, 0
475, 3155094890, 0.84849787, 0.15585382, -0.4022256, 0.3065577, 1.0309021, 0.41220504, 2.256319, 0
476, 3155111557, 0.85188663, 0.16203392, -0.3894843, 0.3103844, 0.89357173, 0.7420024, 2.1925287, 0
477, 3155128224, 0.8556688, 0.16586842, -0.37664983, 0.31377628, 0.75697917, 0.7699848, 1.9933424, 0
478, 3155144891, 0.8594661, 0.16843924, -0.364574, 0.3162817, 0.7372193, 0.71341836, 2.0510502, 0
479, 3155161558, 0.86328566, 0.17077108, -0.3527443, 0.31803858, 0.83039445, 0.54169124, 2.3779478, 0
480, 3155178225, 0.8671013, 0.17353708, -0.3400548, 0.3199768, 1.0727535, 0.32233486, 2.7057533, 0
481, 3155194892, 0.87065434, 0.1772026, -0.32591236, 0.3230219, 0.9784841, -0.062441807, 2.8360453, 0
482, 3155211559, 0.8740492, 0.18154798, -0.3104802, 0.3266228, 0.61225677, 0.086732194, 2.9365683, 0
483, 3155228226, 0.8777726, 0.18487923, -0.29436344, 0.3296775, 0.35110152, 0.31018123, 2.9111176, 0
484, 3155244893, 0.8819592, 0.18668877, -0.27779105, 0.3318575, 0.7631054, 0.1921789, 2.8857727, 0
485, 3155261560, 0.8862257, 0.18825595, -0.26045543, 0.33365908, 1.4388101, -0.12617552, 2.8407278, 0
486, 3155278227, 0.89007854, 0.19082536, -0.24213289, 0.33573696, 1.9142206, -0.36667567, 2.6663923, 0
487, 3155294894, 0.8934574, 0.19382219, -0.22340809, 0.33802015, 1.8580558, -0.19873655, 2.3754616, 0
488, 3155311561, 0.8967941, 0.19535625, -0.20522955, 0.3398219, 1.8278364, 0.13327384, 2.0688257, 0
489, 3155328228, 0.9005652, 0.19432913, -0.18777418, 0.34053093, 2.1534567, 0.35026962, 1.6498003, 0
490, 3155344895, 0.9046363, 0.19130404, -0.17060237, 0.34048927, 2.8960261, 0.23239447, 1.109436, 0
491, 3155361562, 0.90854234, 0.18734522, -0.15349181, 0.34043336, 3.3629901, 0.08497359, 0.36623, 0
492, 3155378229, 0.91206926, 0.18285419, -0.136774, 0.34057146, 3.5940893, 0.050077967, -0.27593803, 0
493, 3155394896, 0.91522396, 0.17778689, -0.12067, 0.3408779, 3.7223775, 0.23993424, -0.8248844, 0
494, 3155411563, 0.918066, 0.17164923, -0.10540703, 0.34144226, 3.845713, 0.50090027, -1.42488, 0
495, 3155428230, 0.9206291, 0.16418274, -0.09112711, 0.34232137, 4.1147423, 0.499164, -2.0981674, 0
496, 3155444897, 0.92271906, 0.15616243, -0.07732626, 0.3438391, 4.475228, 0.39036348, -2.8638835, 0
497, 3155461564, 0.9239711, 0.14835177, -0.06410674, 0.34664342, 4.356884, 0.01882236, -3.8309908, 0
498, 3155478231, 0.9241507, 0.14137077, -0.052286815, 0.35103834, 3.937049, -0.44293836, -4.603925, 0
499, 3155494898, 0.9234259, 0.13526028, -0.042244174, 0.35666037, 3.4351091, -0.6724457, -5.0656323, 0
500, 3155511565, 0.9220072, 0.12970819, -0.0338191, 0.36323088, 3.2021322, -0.77348584, -5.402288, 0
501, 3155528232, 0.9198639, 0.12506084, -0.026347548, 0.3708345, 3.331822, -0.7646618, -5.661248, 0
502, 3155544899, 0.9169573, 0.12199772, -0.019142006, 0.37939596, 3.5761573, -0.9411858, -5.983347, 0
503, 3155561566, 0.91304505, 0.12195111, -0.011139214, 0.3890432, 3.7795541, -1.1209236, -6.36226, 0
504, 3155578233, 0.9078332, 0.12546124, -0.0025180844, 0.40011743, 3.5917728, -1.0708987, -6.7468495, 0
505, 3155594900, 0.90151155, 0.13133234, 0.005178718, 0.41231537, 2.8767047, -0.63031906, -6.9027348, 0
506, 3155611567, 0.8946495, 0.13771883, 0.010135366, 0.42489427, 2.2128716, -0.2360976, -6.804139, 0
507, 3155628234, 0.887669, 0.14359808, 0.011338675, 0.4373751, 1.962541, 0.09050419, -6.375701, 0
508, 3155644901, 0.8805907, 0.1493864, 0.0090918, 0.44962582, 1.7904278, 0.23842055, -5.5781255, 0
509, 3155661568, 0.87320983, 0.155761, 0.004073487, 0.46176672, 1.396167, 0.29199755, -4.5070605, 0
510, 3155678235, 0.8656105, 0.16267, -0.0029419167, 0.47355056, 0.87784344, 0.4447858, -3.3198252, 0
511, 3155694902, 0.8580165, 0.16960298, -0.01100751, 0.48468888, 0.52169716, 0.72823966, -2.202139, 0
512, 3155711569, 0.85050404, 0.1759601, -0.019331453, 0.49528703, 0.2805243, 0.8093601, -1.3449516, 0
513, 3155728236, 0.8431587, 0.18092854, -0.027725728, 0.50555074, 0.11156308, 0.99986756, -0.7449646, 0
514, 3155744903, 0.8361473, 0.1840291, -0.03637989, 0.5154316, -0.033690542, 1.07525, -0.33124924, 0
515, 3155761570, 0.8295242, 0.18544763, -0.04587795, 0.52478164, -0.13793658, 1.0236979, -0.11758232, 0
516, 3155778237, 0.82332647, 0.18570565, -0.05648526, 0.53334635, -0.08498454, 1.033916, 0.053700447, 0
517, 3155794904, 0.8175997, 0.18513769, -0.06824451, 0.54092455, 0.3755166, 1.1360211, 0.24704075, 0
518, 3155811571, 0.8118946, 0.18408047, -0.08111563, 0.5480546, 0.8533056, 1.0573099, 0.4867506, 0
519, 3155828238, 0.8058043, 0.1825772, -0.09547803, 0.55518544, 1.1133243, 1.0633097, 0.9730425, 0
520, 3155844905, 0.7994612, 0.17993625, -0.11126494, 0.5622336, 1.597699, 1.3917, 1.7009678, 0
521, 3155861572, 0.79268897, 0.17524125, -0.12921214, 0.5694214, 2.3292565, 1.6132993, 2.253212, 0
522, 3155878239, 0.78458035, 0.16780922, -0.1504289, 0.5776216, 3.4295075, 1.9184854, 3.023632, 0
523, 3155894906, 0.7740641, 0.15540937, -0.17730378, 0.58756953, 4.061555, 2.3167841, 3.8861656, 0
524, 3155911573, 0.760229, 0.13629144, -0.21129066, 0.59902817, 3.9932547, 2.3611436, 5.1189823, 0
525, 3155928240, 0.743827, 0.11161275, -0.2495462, 0.6099119, 3.9428918, 2.9116278, 7.352747, 0
526, 3155944907, 0.72497386, 0.08257368, -0.28698096, 0.62067586, 3.345504, 3.674372, 8.918991, 0
527, 3155961574, 0.70312923, 0.05093558, -0.32027623, 0.63280326, 3.602085, 4.4354777, 9.852079, 0
528, 3155978241, 0.6784891, 0.022231648, -0.34682265, 0.6472049, 2.4773712, 4.7406225, 9.340935, 0
529, 3155994908, 0.65007293, -0.0023942823, -0.37258136, 0.66225713, 0.26885435, 4.4213552, 7.9713287, 0
530, 3156011575, 0.6178753, -0.02416796, -0.40031752, 0.676309, -2.6144094, 3.6536102, 7.2046814, 0
531, 3156028242, 0.58481777, -0.04495755, -0.42534485, 0.68923926, -5.627778, 3.1408067, 6.3941555, 0
532, 3156044909, 0.55391806, -0.066758916, -0.44724455, 0.69906527, -7.9179535, 1.6801696, 3.615693, 0
533, 3156061576, 0.52597594, -0.08822481, -0.4666927, 0.7055251, -8.509553, 0.29040676, 1.0494003, 0
534, 3156078243, 0.49805358, -0.10818772, -0.4871026, 0.7092044, -8.1773405, -0.677355, -2.0217967, 0
535, 3156094910, 0.47048253, -0.124834836, -0.5102366, 0.7090296, -7.756223, -1.4422994, -3.256114, 0
536, 3156111577, 0.44545475, -0.13673076, -0.5321302, 0.70690465, -7.487806, -1.7905926, -3.2329001, 0
537, 3156128244, 0.42409855, -0.1438931, -0.54788524, 0.70658267, -7.518909, -2.167778, -2.979179, 0
538, 3156144911, 0.40779653, -0.1476184, -0.55477625, 0.7100254, -7.4656467, -2.3820064, -2.9161658, 0
539, 3156161578, 0.39584523, -0.15010132, -0.5550856, 0.7160016, -7.210908, -2.8846848, -3.9107108, 0
540, 3156178245, 0.38613784, -0.15321007, -0.5547122, 0.7209165, -6.4891834, -3.5278833, -5.011305, 0
541, 3156194912, 0.37800565, -0.1572381, -0.557684, 0.7220653, -5.8085556, -3.7480369, -5.3180285, 0
542, 3156211579, 0.3713681, -0.16145776, -0.56372076, 0.7198873, -4.9757876, -3.4283867, -4.4387794, 0
543, 3156228246, 0.36716205, -0.16538796, -0.56923556, 0.7168066, -4.5518494, -2.7556393, -2.284883, 0
544, 3156244913, 0.36755478, -0.17199491, -0.5706072, 0.71395427, -5.8311, -2.4902327, -1.1550837, 0
545, 3156261580, 0.3716333, -0.1823471, -0.5686357, 0.7108402, -4.1649656, -2.4064763, -0.8946409, 0
546, 3156278247, 0.37613592, -0.19444795, -0.5672685, 0.70634294, -2.9376137, -2.1866531, -1.1857176, 0
547, 3156294914, 0.38045245, -0.20461269, -0.56798595, 0.7005594, -1.8371341, -1.7690936, -0.91705036, 0
548, 3156311581, 0.38539538, -0.21241254, -0.5693146, 0.6944309, -1.8853922, -0.84647214, 0.21521378, 0
549, 3156328248, 0.39242107, -0.21865667, -0.56872857, 0.6890173, -1.6939986, 0.06452897, 1.0908632, 0
550, 3156344915, 0.40012577, -0.22580189, -0.5658381, 0.68464744, -1.5381511, 0.18556415, 1.3847561, 0
551, 3156361582, 0.40663475, -0.23536779, -0.5612464, 0.68136215, -0.8070065, -0.09309628, 0.85717773, 0
552, 3156378249, 0.41098776, -0.24569297, -0.55722904, 0.6783963, -0.38446417, -0.36571804, 0.07323456, 0
553, 3156394916, 0.41366193, -0.255336, -0.5549415, 0.67507744, -0.2681364, -0.48740074, -0.34424305, 0
554, 3156411583, 0.41625205, -0.26310268, -0.5531673, 0.67195165, -0.49544194, -0.22523211, -0.019515991, 0
555, 3156428250, 0.4206651, -0.26853585, -0.54944676, 0.67010415, -0.8323723, -0.008885199, -0.024394989, 0
556, 3156444917, 0.42552626, -0.27370483, -0.54469097, 0.6688249, -0.92807263, -0.18756112, -0.32335854, 0
557, 3156461584, 0.43028322, -0.27886462, -0.53906894, 0.66820467, -0.8933408, -0.2990058, -0.14683151, 0
558, 3156478251, 0.43473488, -0.28358388, -0.5333219, 0.66794866, -1.0613642, -0.41865486, -0.7270918, 0
559, 3156494918, 0.43820378, -0.28910267, -0.53004175, 0.665924, -1.7119422, -0.37420404, -1.1036463, 0
560, 3156511585, 0.44162515, -0.29469287, -0.52863324, 0.66232336, -1.5035249, -0.46347937, -0.7886944, 0
561, 3156528252, 0.44497818, -0.29959434, -0.5281494, 0.6582536, -1.501386, -0.27974704, -0.4315672, 0
562, 3156544919, 0.44730395, -0.3039006, -0.52868813, 0.6542586, -1.4703183, -0.43039632, -0.6982527, 0
563, 3156561586, 0.44605806, -0.30897003, -0.5316233, 0.65034467, -1.7674061, -0.7404287, -0.8941641, 0
564, 3156578253, 0.44304457, -0.31327376, -0.53622645, 0.64655554, -2.2749004, -0.5921842, 0.09552574, 0
565, 3156594920, 0.44213027, -0.3156357, -0.5398109, 0.6430404, -3.4044209, -0.41536072, 0.40666962, 0
566, 3156611587, 0.44453338, -0.31811795, -0.5411935, 0.63898575, -4.472461, -0.63614583, -0.17948914, 0
567, 3156628254, 0.44934708, -0.3214319, -0.54101825, 0.63409, -5.1590743, -1.2800424, -0.35334778, 0
568, 3156644921, 0.45618278, -0.3247023, -0.5392127, 0.6290606, -5.7719564, -1.9239403, -0.2058773, 0
569, 3156661588, 0.46540144, -0.32709783, -0.5345847, 0.6250037, -6.320061, -2.1911929, 9.889603E-4, 0
570, 3156678255, 0.4782716, -0.32733923, -0.525987, 0.6224508, -6.44796, -2.2085004, 0.16213322, 0
571, 3156694922, 0.49419263, -0.32368147, -0.5140603, 0.6218905, -5.987438, -2.5572495, -0.29506397, 0
572, 3156711589, 0.5108165, -0.31552872, -0.50142413, 0.62296396, -5.533636, -2.4747934, -0.71541595, 0
573, 3156728256, 0.5292126, -0.30236644, -0.48887637, 0.62410754, -5.5281577, -1.6934403, 0.20629978, 0
574, 3156744923, 0.55173916, -0.28278232, -0.47394633, 0.6252958, -4.901511, -1.1055907, 1.4475479, 0
575, 3156761590, 0.578413, -0.25551862, -0.45327374, 0.6282464, -3.4904802, -0.5766789, 2.9277058, 0
576, 3156778257, 0.6073902, -0.21900994, -0.42490217, 0.6344855, -1.9486103, -0.40489393, 3.2277594, 0
577, 3156794924, 0.635541, -0.17478703, -0.3902396, 0.64284676, -0.92771894, 0.3521965, 3.169238, 0
578, 3156811591, 0.6621752, -0.12724662, -0.35245925, 0.6489277, -0.54414964, 1.1658716, 3.0852423, 0
579, 3156828258, 0.6881096, -0.08060622, -0.31254324, 0.6498666, 0.15106437, 1.2647983, 3.7196894, 0
580, 3156844925, 0.7132826, -0.033528958, -0.2687577, 0.6464324, 2.4809601, 0.77137995, 4.796921, 0
581, 3156861592, 0.73565024, 0.01814026, -0.21879634, 0.640796, 4.3584304, -0.32444313, 4.1493416, 0
582, 3156878259, 0.75207376, 0.07376943, -0.16735737, 0.6331956, 4.219156, -0.9493561, 2.4192781, 0
583, 3156894926, 0.7628392, 0.12600106, -0.12291048, 0.6221696, 2.449211, -0.8786907, 1.9257755, 0
584, 3156911593, 0.7721686, 0.16804598, -0.091556855, 0.6059171, 2.5549078, -0.69887626, 2.9517374, 0
585, 3156928260, 0.781659, 0.19761543, -0.06967672, 0.58745605, 4.558875, -0.556814, 3.6642027, 0
586, 3156944927, 0.78995234, 0.21799877, -0.050157096, 0.5709099, 6.6953816, -0.6744078, 2.877285, 0
587, 3156961594, 0.79528713, 0.23456065, -0.027600417, 0.55833673, 8.257803, -1.1402775, 1.1273384, 0
588, 3156978261, 0.79729676, 0.25081056, -0.002020123, 0.5490081, 7.931801, -1.6131711, -0.44653606, 0
589, 3156994928, 0.79697204, 0.26642933, 0.021739673, 0.54164565, 6.796345, -1.8158203, -1.3327637, 0
590, 3157011595, 0.7959176, 0.27900168, 0.039795984, 0.5358089, 5.7811894, -1.8782811, -1.6128407, 0
591, 3157028262, 0.7949477, 0.28775874, 0.052589107, 0.53149736, 5.9070992, -1.7267518, -2.0432782, 0
592, 3157044929, 0.7934119, 0.29453954, 0.06307473, 0.52893037, 6.3229938, -1.5531499, -2.6709652, 0
593, 3157061596, 0.790619, 0.30076337, 0.07309672, 0.5283199, 6.397155, -1.4372958, -3.3809104, 0
594, 3157078263, 0.7864917, 0.30688688, 0.083986595, 0.5293388, 6.345589, -1.2291057, -4.0340796, 0
595, 3157094930, 0.78079426, 0.31298986, 0.09610177, 0.5321317, 6.066903, -0.8848173, -4.74577, 0
596, 3157111597, 0.77362937, 0.31887937, 0.107930265, 0.5368114, 5.7114067, -0.57681644, -5.284739, 0
597, 3157128264, 0.7655048, 0.32476452, 0.1186179, 0.5426434, 5.6716213, -0.17588569, -5.5733657, 0
598, 3157144931, 0.7568821, 0.33103493, 0.12766322, 0.54886204, 6.0305223, 0.43165863, -5.754316, 0
599, 3157161598, 0.7475142, 0.33786482, 0.13524373, 0.55568063, 6.294936, 1.0567547, -5.911813, 0
600, 3157178265, 0.7368986, 0.34452263, 0.14061363, 0.5643709, 6.139998, 1.6459762, -5.899438, 0
601, 3157194932, 0.7254715, 0.34936947, 0.1428847, 0.5755152, 5.9053574, 2.0703604, -5.5706024, 0
602, 3157211599, 0.71363044, 0.35136032, 0.14245626, 0.5890547, 5.5134153, 2.6760485, -5.061353, 0
603, 3157228266, 0.7013902, 0.35049206, 0.13939996, 0.60479474, 5.1071825, 3.1088524, -4.5321684, 0
604, 3157244933, 0.6886419, 0.347236, 0.13353392, 0.6223906, 4.628148, 3.3139904, -3.863163, 0
605, 3157261600, 0.675591, 0.34157678, 0.12388168, 0.64152753, 4.091315, 3.477081, -2.911499, 0
606, 3157278267, 0.6629175, 0.33295944, 0.10940147, 0.6615977, 3.4830058, 3.5381632, -1.7815971, 0
607, 3157294934, 0.65081227, 0.32029152, 0.08909379, 0.68258417, 2.7053955, 3.429004, -0.4020872, 0
608, 3157311601, 0.6390704, 0.30286658, 0.061366357, 0.7043415, 1.7826294, 2.9866776, 0.9823513, 0
609, 3157328268, 0.627829, 0.2800555, 0.02518119, 0.7257875, 1.0371859, 2.4164824, 2.4871273, 0
610, 3157344935, 0.61727715, 0.25026578, -0.020970972, 0.74558574, 0.042116713, 1.63315, 4.0608644, 0
611, 3157361602, 0.6069374, 0.21220864, -0.07652255, 0.7620634, -0.5399745, 1.2017753, 5.297715, 0
612, 3157378269, 0.59487194, 0.16939428, -0.13703877, 0.773728, -0.16387947, 1.0184605, 6.3315372, 0
613, 3157394936, 0.5792607, 0.12591887, -0.19813012, 0.78060734, 0.028686324, 0.7929256, 8.011467, 0
614, 3157411603, 0.5587509, 0.08210932, -0.25644282, 0.7844071, -0.7170072, 0.28167138, 9.788433, 0
615, 3157428270, 0.53316957, 0.03689037, -0.31237942, 0.7853601, -2.122753, -0.34903762, 10.262835, 0
616, 3157444937, 0.5042787, -0.00723684, -0.36482257, 0.7826604, -2.6933646, -0.94276714, 11.166143, 0
617, 3157461604, 0.47353387, -0.04749747, -0.41071245, 0.777706, -4.024739, -1.8289926, 11.7142105, 0
618, 3157478271, 0.44141072, -0.08452982, -0.44920602, 0.7721575, -5.9293923, -2.4606533, 10.849329, 0
619, 3157494938, 0.4086022, -0.11903058, -0.48159346, 0.7661239, -7.4578857, -2.845045, 9.417265, 0
620, 3157511605, 0.375428, -0.15239409, -0.5104249, 0.75848424, -8.579152, -2.8031008, 7.9647827, 0
621, 3157528272, 0.34205872, -0.18528543, -0.5360919, 0.74918115, -9.300013, -2.5422907, 6.344057, 0
622, 3157544939, 0.3091475, -0.21676904, -0.55818456, 0.7388306, -9.521617, -2.5235949, 4.197097, 0
623, 3157561606, 0.27784133, -0.24534982, -0.5754716, 0.72900087, -9.652731, -2.4533124, 2.1231651, 0
624, 3157578273, 0.2488122, -0.27104807, -0.58872235, 0.71974546, -9.426321, -2.1433117, -0.32084656, 0
625, 3157594940, 0.22156928, -0.29475927, -0.5998926, 0.7100385, -8.916103, -1.8715266, -2.4584522, 0
626, 3157611607, 0.19536282, -0.31667772, -0.61041504, 0.6992452, -8.223434, -1.8558781, -4.2571077, 0
627, 3157628274, 0.1710832, -0.33661708, -0.619826, 0.68792224, -7.951224, -1.7606161, -4.98904, 0
628, 3157644941, 0.14991507, -0.35505435, -0.6269693, 0.67703277, -7.7013507, -1.6316851, -5.872399, 0
629, 3157661608, 0.13268128, -0.37346298, -0.6310491, 0.66685843, -7.3993845, -1.325407, -6.6586113, 0
630, 3157678275, 0.11968858, -0.39238727, -0.6325062, 0.6569968, -6.519274, -1.2019823, -7.7134504, 0
631, 3157694942, 0.110325836, -0.41131583, -0.63265157, 0.6468394, -5.810569, -1.0676637, -8.107909, 0
632, 3157711609, 0.10463579, -0.42962846, -0.6318605, 0.63657284, -5.226493, -0.8721492, -8.327347, 0
633, 3157728276, 0.102654815, -0.4471186, -0.6305326, 0.62608105, -4.7457833, -0.65030086, -8.522865, 0
634, 3157744943, 0.10461831, -0.46370554, -0.6289021, 0.6152367, -4.3251696, -0.4037272, -8.439544, 0
635, 3157761610, 0.10983895, -0.4791766, -0.62731946, 0.6039847, -3.851173, -0.15928394, -8.207111, 0
636, 3157778277, 0.118089646, -0.4935725, -0.6259949, 0.59209245, -3.554733, 0.19185089, -7.926059, 0
637, 3157794944, 0.12994626, -0.50676495, -0.62471163, 0.57969004, -3.5065026, 0.6439919, -7.329673, 0
638, 3157811611, 0.14604239, -0.518547, -0.6225305, 0.5676604, -3.5065079, 1.143212, -6.6520476, 0
639, 3157828278, 0.1667361, -0.52869534, -0.61926794, 0.5560479, -3.3625538, 1.8213538, -6.0638313, 0
640, 3157844945, 0.19045916, -0.53732926, -0.6154834, 0.54422843, -2.9077172, 2.2976782, -5.8259106, 0
641, 3157861612, 0.21615814, -0.54455954, -0.6118372, 0.53140163, -2.7412128, 2.7900805, -5.473125, 0
642, 3157878279, 0.24433123, -0.5505228, -0.60841215, 0.51678175, -2.1738572, 3.6607807, -5.223827, 0
643, 3157894946, 0.27461216, -0.55547464, -0.60483587, 0.5002116, -1.69182, 4.3606367, -4.2509046, 0
644, 3157911613, 0.30790493, -0.55817646, -0.59963846, 0.48380688, -1.4183913, 4.7559023, -2.880364, 0
645, 3157928280, 0.34545526, -0.5563207, -0.59181064, 0.47003204, -1.3968987, 4.7666054, -1.6123123, 0
646, 3157944947, 0.38638723, -0.5489569, -0.58239245, 0.45844552, -0.7796684, 4.932416, -1.1418142, 0
647, 3157961614, 0.4280997, -0.5374968, -0.5729074, 0.44677407, -0.6804311, 5.1331253, -0.048443794, 0
648, 3157978281, 0.47066966, -0.5223965, -0.56269205, 0.4346858, -1.0773218, 5.1012025, 2.0899706, 0
649, 3157994948, 0.5173616, -0.50071305, -0.5491498, 0.4243345, -1.7343779, 4.6292405, 4.6754694, 0
650, 3158011615, 0.5684708, -0.47148916, -0.5313143, 0.41502517, -0.8216466, 4.5766087, 4.7747793, 0
651, 3158028282, 0.6177199, -0.43983683, -0.5119374, 0.40359333, 0.1876588, 4.07051, 5.624818, 0
652, 3158044949, 0.6650842, -0.40490386, -0.49026147, 0.39161405, 0.90909964, 2.6846757, 7.942669, 0
653, 3158061616, 0.710898, -0.36288399, -0.46504223, 0.382984, 2.0584726, 0.985837, 8.956223, 0
654, 3158078283, 0.75469357, -0.31233513, -0.43521506, 0.3787796, 3.05886, -0.1190582, 9.319244, 0
655, 3158094950, 0.7960221, -0.2529666, -0.40097302, 0.37627006, 3.8450327, -0.9851805, 8.10993, 0
656, 3158111617, 0.83188826, -0.18905811, -0.36662146, 0.37122697, 3.7631128, -1.8251914, 6.4202003, 0
657, 3158128284, 0.8604176, -0.12417281, -0.3360408, 0.36241034, 3.0799384, -2.5297863, 5.7806644, 0
658, 3158144951, 0.8807784, -0.061952468, -0.3115637, 0.35117167, 2.0488033, -2.6267712, 5.974393, 0
659, 3158161618, 0.8944353, -0.0068254196, -0.29191518, 0.3387129, 1.4687059, -2.480638, 7.601532, 0
660, 3158178285, 0.9048139, 0.040458694, -0.27365237, 0.32371473, 1.8431531, -3.5314844, 9.125927, 0
661, 3158194952, 0.9133994, 0.08049893, -0.25409767, 0.30766538, 2.703244, -4.8408074, 9.611574, 0
662, 3158211619, 0.9203408, 0.11199533, -0.23312806, 0.29339913, 3.2857494, -5.5853333, 9.674618, 0
663, 3158228286, 0.92622846, 0.13462162, -0.21043025, 0.28230944, 4.10245, -6.121479, 9.048237, 0
664, 3158244953, 0.93173695, 0.14979076, -0.18597203, 0.27357915, 4.6419687, -6.077929, 8.413982, 0
665, 3158261620, 0.9370032, 0.15798956, -0.1605027, 0.26703006, 4.6747384, -5.614284, 7.412693, 0
666, 3158278287, 0.9419554, 0.16011162, -0.1346677, 0.26258507, 5.2513027, -5.5532537, 5.9399767, 0
667, 3158294954, 0.94623464, 0.1591716, -0.10807088, 0.26005203, 6.148057, -5.7423286, 4.476158, 0
668, 3158311621, 0.9491457, 0.15848564, -0.080511175, 0.25985512, 6.830518, -5.7559156, 3.231988, 0
669, 3158328288, 0.9504111, 0.1590742, -0.051945735, 0.2621407, 7.1911306, -5.525822, 1.9016933, 0
670, 3158344955, 0.9500167, 0.16120444, -0.021638146, 0.2664863, 7.751532, -5.329359, 0.76954556, 0
671, 3158361622, 0.9477782, 0.16476342, 0.010819705, 0.27286327, 7.8378468, -4.903656, -0.42037964, 0
672, 3158378289, 0.9435836, 0.16895051, 0.044743516, 0.2812571, 7.5919995, -4.2715397, -1.6241989, 0
673, 3158394956, 0.9373793, 0.17361756, 0.07970187, 0.29125002, 7.627496, -3.753204, -2.7758598, 0
674, 3158411623, 0.9292565, 0.17791405, 0.114788175, 0.30274528, 6.9268336, -3.1596153, -3.9825892, 0
675, 3158428290, 0.9195743, 0.18075481, 0.14868157, 0.31560498, 6.4066997, -2.6767411, -5.010999, 0
676, 3158444957, 0.90846235, 0.18228361, 0.18101133, 0.32970527, 5.9808087, -2.278108, -6.0101795, 0
677, 3158461624, 0.8959268, 0.18270026, 0.21151593, 0.34525186, 5.259603, -1.7579955, -6.879676, 0
678, 3158478291, 0.88217634, 0.18157355, 0.23941988, 0.36259598, 4.4252014, -1.2262617, -7.4291086, 0
679, 3158494958, 0.867447, 0.17875643, 0.26443452, 0.381652, 3.7933295, -0.7969864, -7.849802, 0
680, 3158511625, 0.8519331, 0.17444263, 0.28681314, 0.4018954, 3.0982118, -0.31737852, -8.137302, 0
681, 3158528292, 0.8360831, 0.16828227, 0.30591455, 0.4231599, 2.085378, 0.09542847, -8.016753, 0
682, 3158544959, 0.820455, 0.16032934, 0.32080063, 0.445238, 1.3224417, 0.08686521, -7.756981, 0
683, 3158561626, 0.80531085, 0.15126202, 0.3313355, 0.46777442, 0.78507495, 0.087030105, -7.5173855, 0
684, 3158578293, 0.79045624, 0.14239916, 0.33877, 0.49003917, 0.91105205, 0.22734495, -7.5189986, 0
685, 3158594960, 0.77555364, 0.13521986, 0.34476334, 0.5112459, 0.8477106, 0.40098852, -7.4476233, 0
686, 3158611627, 0.7608294, 0.12984097, 0.34913662, 0.5313996, 0.4397481, 0.5522172, -7.042572, 0
687, 3158628294, 0.74691933, 0.12506802, 0.35074577, 0.550862, 0.15284128, 1.0357511, -6.602453, 0
688, 3158644961, 0.7339669, 0.11961421, 0.3492186, 0.570117, -0.018047722, 1.4430022, -6.317251, 0
689, 3158661628, 0.7217609, 0.113305256, 0.34390873, 0.58987457, 0.07299268, 1.4186822, -6.0303535, 0
690, 3158678295, 0.7101504, 0.10652455, 0.33486885, 0.610085, 0.46654525, 1.5043449, -5.852377, 0
691, 3158694962, 0.69834805, 0.10077768, 0.3232068, 0.6306292, 1.3286848, 1.8939681, -5.3513584, 0
692, 3158711629, 0.6856753, 0.09662012, 0.30955175, 0.6516853, 1.6134642, 2.5734453, -4.0921865, 0
693, 3158728296, 0.67229503, 0.092375465, 0.29346356, 0.67332554, 1.1966002, 3.1512215, -2.2178917, 0
694, 3158744963, 0.6584665, 0.08652598, 0.27203602, 0.6963717, 0.721124, 3.3023543, 0.43209648, 0
695, 3158761630, 0.64537185, 0.075616986, 0.23993528, 0.721256, -0.66630757, 3.4375725, 3.1703835, 0
696, 3158778297, 0.6337024, 0.055700917, 0.19308443, 0.74702, -1.1388506, 3.227104, 4.6055317, 0
697, 3158794964, 0.6220966, 0.028699387, 0.13565424, 0.7705661, -0.22791582, 3.464188, 5.310048, 0
698, 3158811631, 0.6080893, -0.0016161107, 0.073031254, 0.7905018, 0.71208525, 3.9172533, 6.2385254, 0
699, 3158828298, 0.5894666, -0.031704724, 0.011473411, 0.8070898, 1.0197092, 4.4056106, 7.494919, 0
700, 3158844965, 0.56610906, -0.058395494, -0.04347186, 0.8211105, 0.63554406, 4.577202, 9.029724, 0
701, 3158861632, 0.53927606, -0.08146, -0.09094943, 0.8332321, -1.417376, 3.8818407, 10.039782, 0
702, 3158878299, 0.51040393, -0.104493715, -0.13486786, 0.8428413, -3.9541092, 2.5519023, 9.965399, 0
703, 3158894966, 0.4809175, -0.12922856, -0.17739128, 0.84885395, -5.090694, 1.9505486, 10.067635, 0
704, 3158911633, 0.4503385, -0.15421967, -0.21797743, 0.8519973, -5.9432845, 0.9365296, 9.327337, 0
705, 3158928300, 0.417729, -0.1783677, -0.25638926, 0.8532023, -6.694256, 0.54118353, 8.545633, 0
706, 3158944967, 0.38319838, -0.20181529, -0.29340768, 0.8522578, -7.6396093, -0.22187327, 6.9523544, 0
707, 3158961634, 0.34736207, -0.22512554, -0.32980496, 0.84846246, -8.07382, -0.6484292, 5.5488005, 0
708, 3158978301, 0.3111723, -0.24792273, -0.36412618, 0.84209263, -8.227981, -0.93096966, 4.062525, 0
709, 3158994968, 0.27498594, -0.26927546, -0.39598063, 0.8337115, -8.01371, -1.2568464, 2.6804924, 0
710, 3159011635, 0.23989338, -0.2884091, -0.42337868, 0.8246356, -8.077602, -1.2858539, 1.6805859, 0
711, 3159028302, 0.20703739, -0.3055666, -0.44582865, 0.8154775, -8.069477, -1.5413091, 0.3505497, 0
712, 3159044969, 0.17759271, -0.32149273, -0.4631984, 0.80656844, -7.888561, -1.6944308, -0.88059616, 0
713, 3159061636, 0.15251757, -0.33654076, -0.4746835, 0.7988468, -7.4133506, -1.8463367, -1.9471846, 0
714, 3159078303, 0.13140623, -0.35052577, -0.48172152, 0.7923448, -6.4676924, -2.4285483, -3.353015, 0
715, 3159094970, 0.11291052, -0.3627721, -0.486682, 0.7866323, -5.5861807, -2.8556979, -4.3173885, 0
716, 3159111637, 0.09687344, -0.37323496, -0.49041936, 0.7815382, -5.216183, -3.0142734, -4.916296, 0
717, 3159128304, 0.08374385, -0.38278496, -0.49331555, 0.776598, -4.94224, -3.1697087, -5.441601, 0
718, 3159144971, 0.07419638, -0.39234313, -0.49506062, 0.7716727, -4.626542, -3.2040596, -5.8460436, 0
719, 3159161638, 0.067941785, -0.40196827, -0.4955406, 0.7669727, -4.056005, -3.3073573, -6.134387, 0
720, 3159178305, 0.06367183, -0.41092256, -0.4959283, 0.76232904, -3.4906437, -3.4159842, -6.359208, 0
721, 3159194972, 0.061659336, -0.41902244, -0.49634475, 0.757801, -3.5377963, -3.254428, -6.2831073, 0
722, 3159211639, 0.06286432, -0.42665455, -0.49605936, 0.7536188, -3.5874462, -3.1491966, -6.3394046, 0
723, 3159228306, 0.067592755, -0.43414596, -0.4946636, 0.7498391, -3.6307878, -3.011467, -6.219729, 0
724, 3159244973, 0.075975016, -0.4414455, -0.49192944, 0.746566, -3.4975545, -2.8138838, -6.301543, 0
725, 3159261640, 0.08688632, -0.44842288, -0.4893514, 0.74290305, -3.0218053, -2.8039644, -6.5910645, 0
726, 3159278307, 0.09932935, -0.45506808, -0.4884129, 0.7379034, -2.8017254, -2.6086915, -6.656166, 0
727, 3159294974, 0.1138748, -0.46131554, -0.4887516, 0.7316722, -2.7351737, -2.136844, -6.5927563, 0
728, 3159311641, 0.1313808, -0.46695888, -0.48961413, 0.72454715, -2.6763206, -1.5529008, -6.629103, 0
729, 3159328308, 0.15174973, -0.47173864, -0.49064356, 0.7167325, -2.610957, -0.865839, -6.811437, 0
730, 3159344975, 0.17407443, -0.47534063, -0.49177086, 0.7084581, -2.5096488, -0.18891639, -6.5781913, 0
731, 3159361642, 0.19817577, -0.477285, -0.49340972, 0.69962424, -2.6272533, 0.44074413, -6.252654, 0
732, 3159378309, 0.22386207, -0.47737607, -0.49547344, 0.690294, -2.829179, 1.1248332, -5.799222, 0
733, 3159394976, 0.2513285, -0.47597644, -0.4976589, 0.6801604, -3.2383218, 2.009311, -5.4556, 0
734, 3159411643, 0.28040877, -0.47348955, -0.50036174, 0.6684449, -3.2957525, 2.9299793, -5.141971, 0
735, 3159428310, 0.3100618, -0.47097436, -0.50400406, 0.6542375, -3.1814587, 3.8958702, -4.567417, 0
736, 3159444977, 0.33995575, -0.46871653, -0.507651, 0.6379869, -2.813814, 4.7571087, -3.7340193, 0
737, 3159461644, 0.37037402, -0.46559978, -0.50978583, 0.6214181, -2.448248, 5.3980794, -2.802703, 0
738, 3159478311, 0.40218353, -0.46006885, -0.5096588, 0.6056688, -2.196258, 5.839628, -2.2179499, 0
739, 3159494978, 0.43542576, -0.45212606, -0.50827414, 0.5896149, -1.6067983, 6.1079698, -1.9379349, 0
740, 3159511645, 0.4690311, -0.4427464, -0.5063619, 0.57235026, -1.0086739, 6.4819846, -1.552969, 0
741, 3159528312, 0.5025451, -0.4320528, -0.50335824, 0.55444664, -0.3715572, 6.553763, -0.9581766, 0
742, 3159544979, 0.5361356, -0.4183823, -0.4989369, 0.53719515, 0.28249332, 6.350678, -0.36790276, 0
743, 3159561646, 0.5691914, -0.4012707, -0.49477348, 0.5198116, 0.6151434, 6.595905, 0.07389164, 0
744, 3159578313, 0.6009288, -0.3823988, -0.49179652, 0.50079346, 0.99297017, 7.1862807, 0.37734413, 0
745, 3159594980, 0.6310817, -0.36317477, -0.48930672, 0.48002177, 1.535091, 7.4821944, 1.1688805, 0
746, 3159611647, 0.66008914, -0.34301305, -0.48540747, 0.459354, 2.215967, 7.4067984, 1.9829874, 0
747, 3159628314, 0.6888244, -0.31967312, -0.47873357, 0.44062018, 2.9172769, 6.6258216, 2.3907118, 0
748, 3159644981, 0.7178294, -0.28979284, -0.46929416, 0.42486, 3.3608878, 5.4831896, 2.5389004, 0
749, 3159661648, 0.7457481, -0.2523444, -0.45923442, 0.41144595, 3.5842943, 4.9315486, 2.317483, 0
750, 3159678315, 0.7700344, -0.21109943, -0.45185483, 0.39788583, 3.5231006, 5.1564054, 2.5974693, 0
751, 3159694982, 0.79029477, -0.16942355, -0.4474741, 0.3827515, 3.5159018, 5.6068797, 3.4111261, 0
752, 3159711649, 0.8072375, -0.12869938, -0.44516474, 0.36556044, 3.6990192, 5.3505273, 4.1816597, 0
753, 3159728316, 0.821434, -0.08903563, -0.44422677, 0.34638584, 3.9014633, 4.4895496, 4.567504, 0
754, 3159744983, 0.83297986, -0.049034834, -0.44416448, 0.32628182, 4.2590456, 3.0038855, 5.056409, 0
755, 3159761650, 0.84092885, -0.0060715443, -0.44515514, 0.3076373, 4.461655, 1.311117, 5.6300125, 0
756, 3159778317, 0.8441623, 0.041389585, -0.44764206, 0.29205376, 4.399477, 0.057572313, 6.4830074, 0
757, 3159794984, 0.8426591, 0.09316283, -0.45088002, 0.27920526, 4.013576, -0.9170965, 7.2418365, 0
758, 3159811651, 0.8371774, 0.1460534, -0.45389518, 0.267924, 3.329264, -1.7965463, 7.8226757, 0
759, 3159828318, 0.8289996, 0.19602774, -0.45646107, 0.25686157, 2.154331, -2.8801067, 7.76412, 0
760, 3159844985, 0.81969655, 0.2387122, -0.45985043, 0.24424079, 1.0544993, -3.9183207, 7.8434525, 0
761, 3159861652, 0.8110661, 0.27048257, -0.46566936, 0.22839656, 0.16788729, -4.9934916, 7.4944344, 0
762, 3159878319, 0.8046861, 0.29005256, -0.47428492, 0.20834069, -0.26889414, -5.931242, 6.8470917, 0
763, 3159894986, 0.8004289, 0.29927048, -0.48538852, 0.18479884, -0.7146246, -7.173534, 5.923149, 0
764, 3159911653, 0.7971059, 0.30341467, -0.4969508, 0.16001157, -1.0080501, -8.790189, 5.211936, 0
765, 3159928320, 0.7938828, 0.30812702, -0.50571144, 0.138079, -1.4782664, -10.042951, 4.335374, 0
766, 3159944987, 0.7910931, 0.31465045, -0.5103335, 0.121360555, -2.3672624, -10.265621, 3.3230257, 0
767, 3159961654, 0.789474, 0.32163307, -0.5112886, 0.108945385, -3.2011745, -10.084022, 2.5425377, 0
768, 3159978321, 0.7888609, 0.32942426, -0.5091752, 0.09960311, -3.786401, -10.279098, 2.0585184, 0
769, 3159994988, 0.78872764, 0.33866078, -0.5046538, 0.09243562, -4.378659, -10.239499, 1.7581673, 0
770, 3160011655, 0.7891542, 0.3482202, -0.49846756, 0.08666395, -4.7815037, -10.010341, 1.4870892, 0
771, 3160028322, 0.79043406, 0.35710213, -0.49088824, 0.0819925, -4.6523714, -10.256335, 1.310667, 0
772, 3160044989, 0.7927194, 0.36596638, -0.48102814, 0.07923799, -4.182481, -10.818351, 1.4309368, 0
773, 3160061656, 0.79577637, 0.37633482, -0.46765816, 0.08006187, -3.5777493, -11.272227, 1.7018442, 0
774, 3160078323, 0.7994544, 0.38715672, -0.45146522, 0.08463768, -3.2027576, -10.474241, 1.7919312, 0
775, 3160094990, 0.80408597, 0.39532244, -0.43455318, 0.09127704, -2.5999877, -9.525706, 1.5629253, 0
776, 3160111657, 0.80951965, 0.40150875, -0.4167787, 0.09882314, -1.5118864, -9.517749, 1.3627396, 0
777, 3160128324, 0.8145476, 0.40876415, -0.39702246, 0.10862364, -0.46624312, -9.591847, 1.0928459, 0
778, 3160144991, 0.8187469, 0.4176704, -0.37492472, 0.12098906, 0.30959898, -9.020954, 1.0878744, 0
779, 3160161658, 0.8222755, 0.42758742, -0.35037768, 0.13516492, 1.09002, -8.352556, 0.77171326, 0
780, 3160178325, 0.8256403, 0.43625742, -0.32464296, 0.15035492, 1.7789427, -7.504324, 0.46764088, 0
781, 3160194992, 0.82925385, 0.4421372, -0.29887295, 0.16592062, 2.9119594, -7.023603, 0.067873, 0
782, 3160211659, 0.8325615, 0.44653693, -0.272603, 0.18203205, 4.1888714, -6.58121, -0.30244923, 0
783, 3160228326, 0.83475655, 0.45078906, -0.24592273, 0.19873288, 5.487208, -6.206061, -0.8903971, 0
784, 3160244993, 0.8353756, 0.45577148, -0.21894306, 0.21560597, 6.54588, -5.610925, -1.1918097, 0
785, 3160261660, 0.8346654, 0.46092722, -0.19203977, 0.2323837, 7.604812, -4.8625326, -1.4984064, 0
786, 3160278327, 0.8331099, 0.4648994, -0.16627936, 0.24929847, 8.324758, -3.8875408, -1.7114964, 0
787, 3160294994, 0.83157367, 0.46603093, -0.14279462, 0.26629305, 9.193932, -3.090575, -1.9470181, 0
788, 3160311661, 0.8302855, 0.46427473, -0.121245086, 0.28350797, 10.001919, -2.339451, -2.2608252, 0
789, 3160328328, 0.8285516, 0.4606105, -0.101051584, 0.3018787, 10.965211, -1.6273493, -2.9177933, 0
790, 3160344995, 0.82537496, 0.4561498, -0.08185304, 0.32246768, 11.48912, -0.7500764, -3.308947, 0
791, 3160361662, 0.8202601, 0.45113546, -0.063964024, 0.34577528, 11.394982, 0.41220057, -3.0990634, 0
792, 3160378329, 0.81349427, 0.4451482, -0.04772729, 0.37120652, 10.9994545, 1.5481325, -2.6778111, 0
793, 3160394996, 0.80574816, 0.4376656, -0.03260585, 0.3976903, 10.565744, 2.6801078, -2.353598, 0
794, 3160411663, 0.7972489, 0.42853174, -0.018641965, 0.4247459, 10.17847, 3.7314167, -2.2185965, 0
795, 3160428330, 0.7877764, 0.41781777, -0.0069615496, 0.45253754, 9.714006, 4.602312, -1.7951231, 0
796, 3160444997, 0.7772104, 0.405561, 0.0014146641, 0.48110747, 9.307876, 5.4215903, -0.97770786, 0
797, 3160461664, 0.7657651, 0.39109373, 0.006368112, 0.51050085, 8.697452, 6.3552823, 0.004983902, 0
798, 3160478331, 0.75364393, 0.3733371, 0.008459274, 0.5408982, 7.8972034, 7.3202863, 1.0303078, 0
799, 3160494998, 0.74091226, 0.3512198, 0.0072913487, 0.57240057, 6.6016498, 8.171997, 1.9734449, 0
800, 3160511665, 0.7276726, 0.32451534, 0.0016346965, 0.60430264, 4.937785, 8.716405, 2.8321295, 0
801, 3160528332, 0.7140868, 0.2935366, -0.010291733, 0.6354623, 2.8500288, 8.805534, 3.6492462, 0
802, 3160544999, 0.699941, 0.25852212, -0.031482734, 0.6650261, 0.40679938, 8.323692, 4.279969, 0
803, 3160561666, 0.68451154, 0.21907488, -0.0654383, 0.69222087, -2.2509782, 7.7884607, 4.4868994, 0
804, 3160578333, 0.6670593, 0.17355093, -0.11544032, 0.7152534, -4.092616, 7.625511, 4.2212486, 0
805, 3160595000, 0.64549106, 0.12240235, -0.1795044, 0.7322152, -4.6356444, 7.8364215, 3.7729254, 0
806, 3160611667, 0.61727446, 0.069569655, -0.253089, 0.7416739, -4.3362694, 7.4307904, 4.1119576, 0
807, 3160628334, 0.5803692, 0.020030852, -0.32679987, 0.74563664, -4.596442, 7.3031664, 6.528328, 0
808, 3160645001, 0.53656876, -0.025293682, -0.39184523, 0.746936, -6.5680165, 6.9492164, 9.17111, 0
809, 3160661668, 0.49020213, -0.06779012, -0.44406492, 0.7469369, -10.568097, 5.783642, 8.906176, 0
810, 3160678335, 0.44335452, -0.10891891, -0.4874862, 0.74426645, -13.06021, 3.7204769, 6.1859646, 0
811, 3160695002, 0.39659727, -0.14700769, -0.5257612, 0.7380221, -14.049144, 1.6639669, 3.8249092, 0
812, 3160711669, 0.3507142, -0.18101962, -0.5594883, 0.72883904, -14.734886, 0.053890537, 1.4633942, 0
813, 3160728336, 0.3062231, -0.21144064, -0.58886397, 0.71746874, -14.892281, -1.2628953, 0.10978603, 0
814, 3160745003, 0.26479748, -0.238813, -0.6131194, 0.7049377, -14.947267, -2.3032453, -1.6939526, 0
815, 3160761670, 0.22694954, -0.26348072, -0.6327588, 0.69187427, -14.40908, -3.1662595, -3.6033483, 0
816, 3160778337, 0.19233835, -0.28542867, -0.6489713, 0.6785093, -13.778501, -3.8379374, -5.4895067, 0
817, 3160795004, 0.160792, -0.30452868, -0.66287744, 0.6648336, -13.169044, -4.6729245, -6.954396, 0
818, 3160811671, 0.13388625, -0.3212443, -0.67343026, 0.65220404, -12.92986, -5.317583, -7.6160564, 0
819, 3160828338, 0.11283873, -0.3370805, -0.6804476, 0.64080983, -12.016121, -5.764011, -8.776584, 0
820, 3160845005, 0.09708479, -0.35308102, -0.6848112, 0.6300349, -10.779258, -5.7425494, -9.763849, 0
821, 3160861672, 0.08647028, -0.36931947, -0.68730533, 0.6194669, -9.642759, -5.202804, -10.399212, 0
822, 3160878339, 0.081329465, -0.3852663, -0.68899155, 0.6084801, -8.588294, -4.4154835, -11.010259, 0
823, 3160895006, 0.081433505, -0.40044942, -0.68998444, 0.59743804, -7.9655404, -3.5885527, -11.040079, 0
824, 3160911673, 0.086787835, -0.4144807, -0.6898472, 0.58718514, -7.624793, -2.8086414, -10.844653, 0
825, 3160928340, 0.097769655, -0.42750224, -0.6885291, 0.57759225, -7.6071205, -1.7667158, -10.763478, 0
826, 3160945007, 0.11479774, -0.4400993, -0.6860856, 0.56782275, -7.5539975, -0.3361695, -10.812025, 0
827, 3160961674, 0.13677737, -0.45258448, -0.68322694, 0.55647296, -7.2896786, 1.1171457, -10.577078, 0
828, 3160978341, 0.16355138, -0.46460497, -0.6796484, 0.54357445, -7.254667, 2.7025478, -9.837955, 0
829, 3160995008, 0.19577588, -0.47522175, -0.674668, 0.5297743, -7.035702, 4.3510246, -8.828762, 0
830, 3161011675, 0.23372829, -0.48333862, -0.6676743, 0.5157206, -6.6672034, 6.115524, -7.4673014, 0
831, 3161028342, 0.27677613, -0.4880797, -0.6584275, 0.50164574, -5.7882566, 7.7576957, -6.398931, 0
832, 3161045009, 0.3222046, -0.4891345, -0.64844245, 0.48626745, -4.61023, 8.932506, -5.437605, 0
833, 3161061676, 0.3684932, -0.48643377, -0.63903224, 0.46822512, -3.5547554, 10.037093, -3.7912292, 0
834, 3161078343, 0.41540682, -0.47937155, -0.6296145, 0.44858408, -3.039616, 10.438235, -1.0939312, 0
835, 3161095010, 0.46323544, -0.46668386, -0.6187286, 0.4298791, -2.7362688, 10.405173, 1.6588917, 0
836, 3161111677, 0.5112582, -0.44903514, -0.60668504, 0.41099596, -1.9373741, 10.657525, 3.2888327, 0
837, 3161128344, 0.5579422, -0.42855576, -0.59462816, 0.38917816, -1.0974611, 10.635376, 5.088022, 0
838, 3161145011, 0.60170805, -0.40747634, -0.58322734, 0.36298513, -0.088340364, 9.940982, 7.4750633, 0
839, 3161161678, 0.6427978, -0.38643062, -0.57050014, 0.3346847, 0.94253, 8.326682, 9.935015, 0
840, 3161178345, 0.68363285, -0.36279982, -0.5534945, 0.30768183, 2.374733, 6.255324, 11.869072, 0
841, 3161195012, 0.7251662, -0.33308825, -0.5315921, 0.28389794, 4.083754, 3.9071853, 12.778675, 0
842, 3161211679, 0.76509213, -0.29837656, -0.50770926, 0.26045868, 5.540698, 1.8682173, 12.014027, 0
843, 3161228346, 0.8008445, -0.26245746, -0.48393944, 0.23573062, 6.3036246, -0.46008956, 11.849062, 0
844, 3161245013, 0.8332107, -0.22424415, -0.45902425, 0.21159673, 7.2220955, -3.8735547, 11.767321, 0
845, 3161261680, 0.8617288, -0.18197392, -0.43335184, 0.19109516, 7.723291, -7.40248, 10.795559, 0
846, 3161278347, 0.8855115, -0.13511732, -0.40875545, 0.17473821, 7.6634893, -10.028603, 9.6734085, 0
847, 3161295014, 0.9039019, -0.08840174, -0.3867112, 0.16000935, 7.150469, -11.659889, 8.840033, 0
848, 3161311681, 0.91809577, -0.04334006, -0.36519966, 0.14782786, 6.6920214, -13.474981, 7.9865265, 0
849, 3161328348, 0.928788, -0.0012809797, -0.3430809, 0.140174, 6.0890994, -14.29755, 6.2707176, 0
850, 3161345015, 0.9366991, 0.036103155, -0.32030654, 0.13673654, 5.8164873, -15.189517, 5.0948353, 0
851, 3161361682, 0.9424687, 0.07051123, -0.2964153, 0.13755326, 6.229891, -16.250895, 4.0774097, 0
852, 3161378349, 0.94602656, 0.10662815, -0.27037644, 0.14339752, 7.035707, -17.101288, 3.1115007, 0
853, 3161395016, 0.94693375, 0.1471582, -0.24084379, 0.15380952, 7.4708123, -16.134193, 1.656929, 0
854, 3161411683, 0.9453387, 0.18589842, -0.20951678, 0.16697662, 6.3665586, -13.178963, 0.31076527, 0
855, 3161428350, 0.9431624, 0.21401857, -0.17928217, 0.1802793, 5.507329, -10.734689, -0.1898756, 0
856, 3161445017, 0.94196886, 0.22956301, -0.15126856, 0.19265357, 5.3440847, -9.64461, -0.87462616, 0
857, 3161461684, 0.94158524, 0.23637304, -0.12461077, 0.20498629, 6.2138634, -9.435526, -1.6607838, 0
858, 3161478351, 0.9407737, 0.23954867, -0.09750799, 0.21921536, 7.204185, -8.809526, -2.3901072, 0
859, 3161495018, 0.93856, 0.24131827, -0.06970795, 0.23667213, 8.157837, -7.6447377, -2.9658828, 0
860, 3161511685, 0.93428, 0.24353491, -0.042017825, 0.25699836, 8.972548, -6.527863, -3.4898272, 0
861, 3161528352, 0.9281064, 0.24622978, -0.0148999095, 0.27887174, 8.907113, -5.347332, -3.925727, 0
862, 3161545019, 0.9206921, 0.2471299, 0.009909309, 0.30192113, 8.572945, -3.898151, -4.2181973, 0
863, 3161561686, 0.91228616, 0.24576701, 0.031206647, 0.32612976, 8.930823, -3.078426, -4.5465026, 0
864, 3161578353, 0.902318, 0.24427947, 0.05055532, 0.35156238, 9.37734, -1.9687613, -4.580958, 0
865, 3161595020, 0.89051056, 0.24329312, 0.068634, 0.37827325, 9.377576, -0.75303954, -4.492894, 0
866, 3161611687, 0.876848, 0.24229228, 0.085707165, 0.40631077, 9.038769, 0.846666, -4.1228185, 0
867, 3161628354, 0.86155266, 0.24071406, 0.101315305, 0.43534, 8.681693, 2.2756662, -3.747851, 0
868, 3161645021, 0.84484994, 0.23829356, 0.11571776, 0.4648183, 8.307792, 3.4888458, -3.6507225, 0
869, 3161661688, 0.82684577, 0.23433797, 0.12806877, 0.49498695, 7.3950343, 4.576048, -3.2213478, 0
870, 3161678355, 0.80760545, 0.22861533, 0.1370101, 0.5260595, 6.284828, 5.5453153, -2.587182, 0
871, 3161695022, 0.78727937, 0.22184314, 0.14287934, 0.55728287, 5.393652, 6.323848, -1.9489341, 0
872, 3161711689, 0.76617336, 0.21473011, 0.14701052, 0.58758754, 4.486779, 6.9424243, -1.2976036, 0
873, 3161728356, 0.74452215, 0.2078727, 0.14985304, 0.61645895, 3.5682101, 7.4814863, -0.66419125, 0
874, 3161745023, 0.721975, 0.2019635, 0.15190352, 0.6441195, 2.6846879, 7.9443746, 0.22771263, 0
875, 3161761690, 0.69859684, 0.19673432, 0.15245137, 0.67083436, 1.4917402, 8.2276945, 1.2056952, 0
876, 3161778357, 0.6749084, 0.19088845, 0.15002456, 0.69681776, 0.2617215, 8.417268, 2.002492, 0
877, 3161795024, 0.65088433, 0.1831306, 0.14353272, 0.7226432, -0.89349204, 8.4172125, 2.3377085, 0
878, 3161811691, 0.6261868, 0.17264616, 0.13104536, 0.7489408, -2.0936654, 8.310945, 2.5068016, 0
879, 3161828358, 0.60063183, 0.1600762, 0.112868264, 0.7751644, -3.1031635, 7.999981, 2.624486, 0
880, 3161845025, 0.5743031, 0.14618191, 0.089232475, 0.80052876, -4.0262794, 7.7016797, 2.8656006, 0
881, 3161861692, 0.5482472, 0.1320722, 0.066316836, 0.82315606, -4.094058, 8.167221, 3.5101671, 0
882, 3161878359, 0.5210678, 0.11842764, 0.04756082, 0.84392124, -5.1142507, 7.515344, 3.689146, 0
883, 3161895026, 0.49174994, 0.105819836, 0.029520229, 0.86377925, -5.9814324, 6.459456, 3.484457, 0
884, 3161911693, 0.46033892, 0.09364038, 0.00823293, 0.88275343, -7.180126, 5.6770315, 3.212902, 0
885, 3161928360, 0.4270642, 0.08153797, -0.019708397, 0.90032285, -7.8265395, 4.6376505, 2.7678833, 0
886, 3161945027, 0.3925859, 0.07017361, -0.053647753, 0.9154649, -8.174995, 4.1245203, 2.6395197, 0
887, 3161961694, 0.35709202, 0.05976936, -0.08972458, 0.92782784, -8.336636, 4.0391316, 3.1190462, 0
888, 3161978361, 0.32053417, 0.049216736, -0.12279924, 0.93795395, -8.935162, 3.5005863, 3.8789377, 0
889, 3161995028, 0.28325295, 0.03751452, -0.15205292, 0.9461725, -9.450859, 2.19205, 3.7268105, 0
890, 3162011695, 0.24594125, 0.025405094, -0.17931412, 0.9522163, -9.546323, 0.7940259, 3.070324, 0
891, 3162028362, 0.2085741, 0.014163225, -0.20637125, 0.9558813, -9.453554, -0.23579985, 2.5756903, 0
892, 3162045029, 0.17154491, 0.004168408, -0.23269266, 0.9572935, -9.544884, -0.9495571, 2.4727468, 0
893, 3162061696, 0.1355466, -0.0053088833, -0.25796902, 0.95658404, -9.441969, -1.919774, 2.3114243, 0
894, 3162078363, 0.10069444, -0.015156504, -0.28140658, 0.9541715, -9.099631, -2.945225, 1.9034004, 0
895, 3162095030, 0.06693916, -0.02499733, -0.3038027, 0.9500527, -8.479612, -3.8548515, 1.4679041, 0
896, 3162111697, 0.03435082, -0.034953214, -0.32423618, 0.9447069, -8.187306, -4.550804, 1.5165148, 0
897, 3162128364, 0.0030806176, -0.045079026, -0.34313333, 0.9382005, -7.5782995, -5.6209574, 0.8767929, 0
898, 3162145031, -0.027025586, -0.054740842, -0.36242694, 0.93001163, -6.8284845, -6.473701, 0.32980156, 0
899, 3162161698, -0.055860072, -0.06356028, -0.38374686, 0.9195542, -6.104897, -6.9906917, 0.13265419, 0
900, 3162178365, -0.08332155, -0.07209722, -0.4069098, 0.9067998, -5.8004003, -7.1754704, 0.2528677, 0
901, 3162195032, -0.109402664, -0.08119696, -0.4305367, 0.8922322, -5.431988, -7.3840795, 0.12635517, 0
902, 3162211699, -0.13341962, -0.09145138, -0.45314437, 0.8766402, -5.2218976, -7.356526, -0.09240818, 0
903, 3162228366, -0.15530443, -0.10253709, -0.47419566, 0.8605272, -4.742914, -7.2592773, -0.77856445, 0
904, 3162245033, -0.17551674, -0.114515744, -0.49348927, 0.84412694, -4.5942497, -7.0067043, -1.1524544, 0
905, 3162261700, -0.19361003, -0.12795651, -0.5103688, 0.8280506, -4.1812334, -6.8398066, -2.0781589, 0
906, 3162278367, -0.20961477, -0.14244068, -0.5252331, 0.812345, -3.7719805, -6.478587, -2.4727535, 0
907, 3162295034, -0.22289707, -0.1583352, -0.53737414, 0.79779565, -3.810125, -6.324594, -2.8991055, 0
908, 3162311701, -0.2335183, -0.17531393, -0.54769814, 0.7840682, -3.3513217, -5.954176, -3.7639203, 0
909, 3162328368, -0.24245869, -0.19224615, -0.5580319, 0.76997256, -2.8586345, -5.470369, -4.4386644, 0
910, 3162345035, -0.2502026, -0.20881753, -0.5684854, 0.75539416, -2.6444411, -4.9878335, -4.801285, 0
911, 3162361702, -0.25601688, -0.22559977, -0.5780146, 0.7412565, -2.7282193, -4.6474476, -4.8046765, 0
912, 3162378369, -0.2595222, -0.24249594, -0.58629775, 0.72808033, -2.3655963, -4.3315463, -5.1793485, 0
913, 3162395036, -0.26115045, -0.25897133, -0.59403825, 0.7154402, -2.2056875, -4.070816, -5.5655837, 0
914, 3162411703, -0.2606621, -0.27548298, -0.60138834, 0.70320576, -2.1446824, -3.7123811, -6.0153694, 0
915, 3162428370, -0.25799137, -0.29235944, -0.60819936, 0.6914201, -1.9883636, -3.290083, -6.3242474, 0
916, 3162445037, -0.25361866, -0.3093456, -0.6142183, 0.68023574, -1.684426, -2.905931, -6.541478, 0
917, 3162461704, -0.24769196, -0.32563406, -0.62010217, 0.6693925, -1.5102663, -2.6376603, -6.687577, 0
918, 3162478371, -0.24012095, -0.3413413, -0.62622464, 0.6585384, -1.3596952, -2.376884, -6.867709, 0
919, 3162495038, -0.23071642, -0.3569324, -0.6325452, 0.64750123, -1.5045522, -2.2566178, -6.80147, 0
920, 3162511705, -0.21900964, -0.3729602, -0.6383471, 0.63674986, -1.5483694, -2.028877, -6.858162, 0
921, 3162528372, -0.20440084, -0.38947934, -0.6432765, 0.62667656, -1.6078146, -1.7344356, -6.9826164, 0
922, 3162545039, -0.18764254, -0.40543458, -0.64864975, 0.61617255, -1.1480579, -1.3102686, -7.32491, 0
923, 3162561706, -0.16970295, -0.4203541, -0.65550256, 0.60400474, -1.1790638, -0.81981564, -7.4832625, 0
924, 3162578373, -0.15107007, -0.4342419, -0.6643754, 0.589253, -1.2715322, -0.22359478, -7.5381637, 0
925, 3162595040, -0.13129765, -0.44750124, -0.67440593, 0.5724354, -2.2903125, 0.3654947, -7.000676, 0
926, 3162611707, -0.10888789, -0.4608205, -0.68357587, 0.5554404, -3.2034762, 1.0889698, -6.618498, 0
927, 3162628374, -0.08371536, -0.47410658, -0.691473, 0.5385924, -3.2696354, 1.9178028, -6.358389, 0
928, 3162645041, -0.056944363, -0.48700115, -0.6991646, 0.5203442, -3.1430798, 2.9263685, -5.9546385, 0
929, 3162661708, -0.029712632, -0.49938273, -0.7068815, 0.50005454, -3.2135823, 3.7915308, -5.3846354, 0
930, 3162678375, -0.0021740422, -0.5112119, -0.71376836, 0.47874257, -3.6179345, 4.4327154, -4.6716585, 0
931, 3162695042, 0.026500091, -0.52258086, -0.7194955, 0.45665678, -3.480101, 5.3345523, -4.2674456, 0
932, 3162711709, 0.056195356, -0.53359497, -0.724143, 0.43328673, -3.071713, 6.0041, -3.5117083, 0
933, 3162728376, 0.08695971, -0.54374045, -0.72708654, 0.4100385, -2.9669123, 6.2175307, -2.5228195, 0
934, 3162745043, 0.11851415, -0.55228204, -0.72861147, 0.38738367, -2.3589091, 6.7891073, -1.6824627, 0
935, 3162761710, 0.1498999, -0.5594937, -0.72919726, 0.36437657, -2.0947948, 7.6207967, -0.6704836, 0
936, 3162778377, 0.18106411, -0.5651047, -0.7282911, 0.34273383, -2.25705, 7.3288345, 0.49349594, 0
937, 3162795044, 0.21289021, -0.5681501, -0.7255301, 0.3247942, -2.3178575, 6.7621145, 0.8186531, 0
938, 3162811711, 0.24521726, -0.56916624, -0.7219991, 0.30763227, -1.0690901, 7.3383284, 0.5759325, 0
939, 3162828378, 0.27548975, -0.57000434, -0.71898156, 0.28682363, -0.2535276, 7.514728, 1.3317032, 0
940, 3162845045, 0.30473056, -0.5705249, -0.7153378, 0.26445094, -0.93314826, 7.217953, 3.7435732, 0
941, 3162861712, 0.33404306, -0.56911075, -0.70999366, 0.24584386, -1.3849654, 6.2493625, 5.199504, 0
942, 3162878379, 0.36341253, -0.5648722, -0.7035906, 0.23197608, -1.4108338, 5.611946, 5.161145, 0
943, 3162895046, 0.3926836, -0.5584431, -0.69663554, 0.22054851, -1.4091074, 5.2093806, 4.382533, 0
944, 3162911713, 0.4223778, -0.5504959, -0.68924385, 0.20855708, -1.0182616, 4.955624, 3.906683, 0
945, 3162928380, 0.45185894, -0.5419087, -0.6814363, 0.19443505, -0.5944814, 4.4507074, 4.145997, 0
946, 3162945047, 0.48137465, -0.53244245, -0.6726702, 0.17972249, -0.5350015, 3.9567113, 4.9736986, 0
947, 3162961714, 0.5131245, -0.519424, -0.6625216, 0.16723928, -1.0508999, 2.9687996, 5.9649696, 0
948, 3162978381, 0.54769224, -0.5006619, -0.6511733, 0.1592047, -1.3692931, 2.0461318, 6.306181, 0
949, 3162995048, 0.5837232, -0.47668073, -0.639039, 0.15386303, -1.1393998, 1.8413504, 6.0618114, 0
950, 3163011715, 0.6203994, -0.44919074, -0.6256277, 0.14806788, -0.60205805, 1.6894499, 6.263523, 0
951, 3163028382, 0.65805745, -0.41886094, -0.6096482, 0.14087866, -0.15458603, 1.1164094, 7.2720795, 0
952, 3163045049, 0.6975858, -0.38361615, -0.59004813, 0.13437939, 0.45879164, -0.24347132, 8.002129, 0
953, 3163061716, 0.7377872, -0.34185892, -0.5671441, 0.130966, 1.4368646, -1.7581265, 7.8295097, 0
954, 3163078383, 0.77689296, -0.29245138, -0.5419439, 0.13118033, 2.68299, -3.006086, 7.4630013, 0
955, 3163095050, 0.81201553, -0.23624888, -0.5167842, 0.13324252, 3.8224792, -3.956622, 6.310587, 0
956, 3163111717, 0.84003067, -0.17673177, -0.49499005, 0.13454062, 4.061086, -4.8041935, 5.245801, 0
957, 3163128384, 0.8598284, -0.11790395, -0.478848, 0.13228846, 3.6968153, -5.3906503, 4.581621, 0
958, 3163145051, 0.8715971, -0.06440118, -0.46949628, 0.12548438, 3.1924243, -6.18209, 4.611841, 0
959, 3163161718, 0.87683845, -0.017325079, -0.4660716, 0.11676153, 2.6815014, -7.975925, 5.2830276, 0
960, 3163178385, 0.87809306, 0.02499447, -0.46503365, 0.10987898, 2.1175206, -9.164512, 5.5870647, 0
961, 3163195052, 0.87760365, 0.062418982, -0.46341616, 0.105655454, 1.026739, -8.91875, 5.525237, 0
962, 3163211719, 0.8769943, 0.095089614, -0.459405, 0.10386509, 0.25447622, -7.8084526, 5.0452347, 0
963, 3163228386, 0.8772379, 0.11922208, -0.45387936, 0.1011694, -0.94434804, -6.0975976, 4.6772556, 0
964, 3163245053, 0.8794438, 0.13497575, -0.44606864, 0.0968749, -1.1941909, -6.258659, 4.8020134, 0
965, 3163261720, 0.8837539, 0.14646697, -0.43461198, 0.092955224, -0.6350763, -6.326563, 4.320902, 0
966, 3163278387, 0.88976276, 0.15717177, -0.41877064, 0.09084313, 0.0076226857, -6.997433, 3.9214258, 0
967, 3163295054, 0.8965169, 0.17026824, -0.39859763, 0.09158532, 0.7791796, -6.9710836, 3.3179464, 0
968, 3163311721, 0.90295434, 0.18530463, -0.3761786, 0.09395318, 1.1443921, -6.1022, 2.3658037, 0
969, 3163328388, 0.90854746, 0.20141487, -0.35313275, 0.09629482, 1.594465, -6.0628705, 1.9218903, 0
970, 3163345055, 0.9126893, 0.22134781, -0.32916263, 0.09827193, 2.1911235, -6.534275, 1.6990604, 0
971, 3163361722, 0.9144657, 0.24689744, -0.3046736, 0.099849075, 2.4927073, -6.8910966, 1.4355583, 0
972, 3163378389, 0.913563, 0.27724537, -0.27991384, 0.10093517, 2.761991, -6.3544035, 1.2469044, 0
973, 3163395056, 0.9106654, 0.3090379, -0.25474665, 0.10144078, 3.3225927, -6.1605597, 1.0026379, 0
974, 3163411723, 0.9064225, 0.3403047, -0.22838205, 0.10214964, 4.10824, -6.0309143, 0.36107922, 0
975, 3163428390, 0.9010044, 0.36993256, -0.20098354, 0.10463604, 4.6964006, -6.1166806, -0.4439373, 0
976, 3163445057, 0.89495605, 0.3964464, -0.17309682, 0.10919352, 5.1619887, -5.8703203, -0.63914967, 0
977, 3163461724, 0.88861793, 0.4197827, -0.1450141, 0.11451433, 5.748352, -5.4299874, -0.8899622, 0
978, 3163478391, 0.8825779, 0.43936503, -0.11771833, 0.118991405, 6.0050597, -4.7442627, -1.329462, 0
979, 3163495058, 0.8763803, 0.45636964, -0.09196382, 0.12340548, 6.3057866, -4.452548, -2.1628094, 0
980, 3163511725, 0.8705398, 0.46994215, -0.06885957, 0.12874436, 6.6070814, -3.8286695, -2.6022553, 0
981, 3163528392, 0.86585766, 0.47911218, -0.047419816, 0.13599783, 7.136635, -3.2997303, -3.2063055, 0
982, 3163545059, 0.86237854, 0.48406377, -0.025978874, 0.14598845, 7.832171, -2.845213, -4.3303165, 0
983, 3163561726, 0.8591446, 0.4862777, -0.0043371515, 0.15933529, 8.146764, -2.5573392, -5.2059083, 0
984, 3163578393, 0.85482514, 0.48755562, 0.016890472, 0.1768618, 8.017816, -2.0488565, -5.5323358, 0
985, 3163595060, 0.84952706, 0.48746833, 0.035937145, 0.19846609, 7.328768, -1.1860484, -4.832989, 0
986, 3163611727, 0.8439112, 0.48539734, 0.05339015, 0.22215924, 7.515434, -0.4090897, -4.040499, 0
987, 3163628394, 0.83823174, 0.48125884, 0.07072801, 0.24648923, 7.502546, 0.164413, -3.898982, 0
988, 3163645061, 0.83178437, 0.4764613, 0.08855784, 0.27070072, 7.874128, 0.672966, -4.5194273, 0
989, 3163661728, 0.82292885, 0.4734303, 0.106956065, 0.2953206, 8.239512, 1.2921413, -4.931434, 0
990, 3163678395, 0.81007814, 0.47399086, 0.12691244, 0.32093838, 8.715038, 2.2231193, -5.4227157, 0
991, 3163695062, 0.79263484, 0.47826925, 0.14849539, 0.34776425, 8.6570425, 3.5210466, -5.1903334, 0
992, 3163711729, 0.7711691, 0.4842893, 0.17075366, 0.37630707, 8.066067, 4.82701, -4.5450583, 0
993, 3163728396, 0.74667174, 0.48925564, 0.19162044, 0.40791383, 7.0989485, 6.1798573, -3.591876, 0
994, 3163745063, 0.72050637, 0.49067953, 0.208245, 0.44355413, 5.9907866, 6.94924, -2.2487884, 0
995, 3163761730, 0.69412524, 0.4870658, 0.22012953, 0.48218465, 5.335289, 7.6929564, -1.0016985, 0
996, 3163778397, 0.66769063, 0.478813, 0.2286721, 0.5221479, 4.6098037, 8.19624, -0.43080902, 0
997, 3163795064, 0.640701, 0.46703494, 0.23493421, 0.56230634, 3.594265, 8.768102, 0.026268959, 0
998, 3163811731, 0.6125736, 0.45288587, 0.23901033, 0.60209954, 2.4764528, 9.154897, -0.1451664, 0
999, 3163828398, 0.58334124, 0.43784282, 0.24107052, 0.6402291, 1.5866306, 9.283954, -0.058250427, 0
1000, 3163845065, 0.5526644, 0.423415, 0.24176484, 0.6758947, 0.9094808, 9.612046, 0.0729332, 0
1001, 3163861732, 0.5205942, 0.41027564, 0.24187525, 0.7086281, 0.09606042, 9.802499, 0.45670986, 0
1002, 3163878399, 0.4882937, 0.39762622, 0.24117355, 0.7384442, -0.9832975, 9.834134, 1.3590822, 0
1003, 3163895066, 0.45712966, 0.3838182, 0.23786993, 0.76624787, -2.3532724, 9.362462, 2.2800236, 0
1004, 3163911733, 0.42789683, 0.36774752, 0.23045301, 0.7928174, -3.442115, 9.064598, 2.8256378, 0
1005, 3163928400, 0.3991516, 0.3499885, 0.22037116, 0.818306, -4.069398, 9.321086, 3.0576086, 0
1006, 3163945067, 0.36872122, 0.33166647, 0.20964435, 0.8426702, -5.1698904, 9.164577, 3.3202772, 0
1007, 3163961734, 0.33638856, 0.31306577, 0.199438, 0.865482, -6.3864007, 8.498184, 3.7366304, 0
1008, 3163978401, 0.30332932, 0.29398304, 0.18906426, 0.88646597, -7.8490868, 7.149663, 4.40899, 0
1009, 3163995068, 0.27055296, 0.27454972, 0.17626122, 0.9057358, -9.023236, 5.2078776, 4.8650265, 0
1010, 3164011735, 0.23935822, 0.25501987, 0.15658477, 0.92366433, -9.904048, 2.5131662, 5.1189356, 0
1011, 3164028402, 0.21065988, 0.236094, 0.12641874, 0.94016075, -9.977839, 0.9725985, 4.7650414, 0
1012, 3164045069, 0.18324766, 0.21751806, 0.08954782, 0.95451, -10.242835, 0.6431182, 4.648548, 0
1013, 3164061736, 0.1551929, 0.19872276, 0.0506689, 0.9663637, -10.471259, 0.18617819, 4.3294497, 0
1014, 3164078403, 0.12591168, 0.18065211, 0.011150709, 0.97539145, -10.458711, -1.2713177, 3.9514942, 0
1015, 3164095070, 0.09617599, 0.16437928, -0.027243482, 0.9813202, -10.421388, -2.2082613, 3.9580526, 0
1016, 3164111737, 0.06680697, 0.14961696, -0.061433554, 0.98457074, -10.403998, -3.0423834, 4.051586, 0
1017, 3164128404, 0.03792363, 0.13525155, -0.09068321, 0.9859246, -10.434754, -4.8156986, 3.50459, 0
1018, 3164145071, 0.009452695, 0.12205627, -0.118060015, 0.98543215, -9.913418, -6.505837, 2.8964434, 0
1019, 3164161738, -0.018096814, 0.110409595, -0.14722873, 0.98275524, -9.257307, -8.225713, 2.0120459, 0
1020, 3164178405, -0.04449728, 0.10042344, -0.17990653, 0.977533, -8.571599, -9.026756, 1.3137474, 0
1021, 3164195072, -0.06966197, 0.091971785, -0.21434957, 0.9699199, -7.889228, -9.265117, 1.0128813, 0
1022, 3164211739, -0.09306495, 0.08344005, -0.24645144, 0.96106213, -7.55627, -9.441288, 0.74422455, 0
1023, 3164228406, -0.1144927, 0.07426029, -0.2750699, 0.9516908, -6.6652536, -9.782698, -0.006020546, 0
1024, 3164245073, -0.1338539, 0.06489954, -0.30066648, 0.9420577, -5.8417506, -9.995149, -0.65035915, 0
1025, 3164261740, -0.15057747, 0.05504373, -0.3238443, 0.9324289, -5.2564774, -10.005081, -1.0350752, 0
1026, 3164278407, -0.16451918, 0.04440947, -0.34546122, 0.9228325, -4.238366, -10.176219, -1.8252559, 0
1027, 3164295074, -0.17543824, 0.033127747, -0.366069, 0.9133013, -3.4789512, -9.888873, -2.5256872, 0
1028, 3164311741, -0.18314292, 0.021064233, -0.38550314, 0.90410405, -3.0621119, -9.373745, -2.7866244, 0
1029, 3164328408, -0.1875095, 0.007946847, -0.4032547, 0.89563644, -2.7769668, -8.811113, -3.2153363, 0
1030, 3164345075, -0.18868107, -0.006061009, -0.41914997, 0.88807553, -2.82954, -8.204873, -3.1034417, 0
1031, 3164361742, -0.18609244, -0.021703647, -0.433199, 0.8816117, -3.0106995, -7.6346474, -3.3642092, 0
1032, 3164378409, -0.17980662, -0.039051663, -0.44600463, 0.8759146, -3.0894315, -6.997205, -4.1102667, 0
1033, 3164395076, -0.17051168, -0.05684717, -0.45912242, 0.87000155, -3.2913835, -6.0277123, -4.583252, 0
1034, 3164411743, -0.1585427, -0.07493878, -0.47097984, 0.8645393, -3.9259863, -5.09902, -4.655929, 0
1035, 3164428410, -0.14439256, -0.09280298, -0.4811053, 0.85969657, -4.273007, -4.3487477, -4.9040027, 0
1036, 3164445077, -0.12852697, -0.10969707, -0.49066803, 0.8548064, -4.4601283, -3.834064, -5.2519917, 0
1037, 3164461744, -0.1109938, -0.12553187, -0.5004933, 0.8493707, -4.793469, -3.476479, -5.4207573, 0
1038, 3164478411, -0.09188828, -0.14093232, -0.5108203, 0.8430654, -5.074344, -3.0104024, -5.3188972, 0
1039, 3164495078, -0.07097406, -0.15687537, -0.5206191, 0.836248, -5.494488, -2.3601267, -5.1526027, 0
1040, 3164511745, -0.047830272, -0.17387348, -0.52870905, 0.8294268, -5.681855, -1.66199, -5.3239646, 0
1041, 3164528412, -0.022832952, -0.19131257, -0.5356107, 0.82219285, -5.6259456, -0.9479549, -5.6810493, 0
1042, 3164545079, 0.00387053, -0.20867151, -0.54147696, 0.8143992, -5.846308, -0.21686557, -5.795017, 0
1043, 3164561746, 0.03259096, -0.2256155, -0.5461252, 0.8060923, -5.929118, 0.68450564, -5.7536407, 0
1044, 3164578413, 0.06370738, -0.24223553, -0.5486187, 0.7976735, -6.0090384, 1.7545635, -5.507171, 0
1045, 3164595080, 0.09731792, -0.25873992, -0.54830617, 0.7892686, -5.6965437, 2.8703601, -5.536075, 0
1046, 3164611747, 0.13210505, -0.27450797, -0.5464413, 0.7801265, -4.7502313, 3.673306, -5.9062343, 0
1047, 3164628414, 0.16679174, -0.28872615, -0.54460806, 0.7695595, -4.1383586, 4.398225, -5.536507, 0
1048, 3164645081, 0.20146015, -0.3002811, -0.542416, 0.7583087, -3.8012445, 5.114572, -4.4898405, 0
1049, 3164661748, 0.23673171, -0.30811417, -0.5378695, 0.74814576, -3.699562, 5.591245, -3.610714, 0
1050, 3164678415, 0.27266833, -0.31188983, -0.53091955, 0.7392586, -3.4765162, 5.6388845, -3.2521358, 0
1051, 3164695082, 0.30849, -0.3119913, -0.52361107, 0.7302935, -3.181474, 5.5151577, -3.1462884, 0
1052, 3164711749, 0.34351957, -0.30934602, -0.51696634, 0.72044927, -3.4816985, 5.6466627, -2.2829442, 0
1053, 3164728416, 0.37846562, -0.3046984, -0.5095103, 0.7101578, -3.653663, 5.9325686, -1.4001722, 0
1054, 3164745083, 0.4144597, -0.29801378, -0.49932873, 0.7000598, -3.6117222, 6.456448, -0.6095352, 0
1055, 3164761750, 0.4517833, -0.28934145, -0.48591623, 0.6899715, -3.1275961, 6.6073904, -1.0580282, 0
1056, 3164778417, 0.48940924, -0.2793299, -0.47077912, 0.67883897, -2.45921, 6.7738786, -1.90764, 0
1057, 3164795084, 0.5262472, -0.26700255, -0.45576662, 0.6663725, -1.0854397, 6.5948024, -1.1820993, 0
1058, 3164811751, 0.562623, -0.24807899, -0.43879515, 0.65526545, -0.28875706, 6.4279637, 1.1418924, 0
1059, 3164828418, 0.5997349, -0.21934359, -0.41573444, 0.6475904, 0.40633604, 6.5562778, 2.9110708, 0
1060, 3164845085, 0.6383979, -0.17835313, -0.38251343, 0.64367974, 1.6345466, 6.3197436, 3.8261213, 0
1061, 3164861752, 0.6759467, -0.12466199, -0.34023982, 0.64171195, 2.40116, 5.0751667, 2.9462023, 0
1062, 3164878419, 0.7088918, -0.058695957, -0.29098418, 0.63981044, 3.0478373, 4.430914, 2.5790663, 0
1063, 3164895086, 0.73429465, 0.018055858, -0.2365152, 0.6360406, 2.8453715, 4.3843913, 2.2214441, 0
1064, 3164911753, 0.7502994, 0.09986066, -0.18202108, 0.62765366, 1.0535674, 4.285718, 1.7062893, 0
1065, 3164928420, 0.7577059, 0.1777874, -0.13689694, 0.6128089, -1.5051425, 3.7411735, 2.923995, 0
1066, 3164945087, 0.7616286, 0.24237195, -0.10924893, 0.59096885, -2.829751, 2.9522073, 5.6446714, 0
1067, 3164961754, 0.7670316, 0.28973955, -0.10035287, 0.5635998, -0.29196078, 1.9071915, 8.139059, 0
1068, 3164978421, 0.77267426, 0.3275552, -0.10017784, 0.534461, 5.8147836, 0.06448706, 8.862614, 0
1069, 3164995088, 0.7742951, 0.36598116, -0.09593624, 0.50727, 9.744003, -1.9011194, 7.933136, 0
1070, 3165011755, 0.7702469, 0.40645772, -0.085428156, 0.4839582, 9.891647, -3.5984797, 6.731943, 0
1071, 3165028422, 0.7628905, 0.4433963, -0.07402987, 0.4646711, 8.274524, -4.5497613, 6.367321, 0
1072, 3165045089, 0.75558776, 0.47199303, -0.0649663, 0.4495453, 7.388677, -5.455575, 6.1024475, 0
1073, 3165061756, 0.7491252, 0.49293867, -0.05707156, 0.43882528, 7.5018487, -6.2905765, 4.848447, 0
1074, 3165078423, 0.74287045, 0.5094221, -0.048509043, 0.43160316, 7.228332, -6.8702774, 3.8066816, 0
1075, 3165095090, 0.7357218, 0.52414405, -0.03712522, 0.42732897, 7.516789, -6.9205976, 2.7778082, 0
1076, 3165111757, 0.7270259, 0.53822786, -0.022804504, 0.42570627, 6.758898, -6.644252, 1.8550634, 0
1077, 3165128424, 0.717531, 0.5509254, -0.007612523, 0.42611513, 5.893251, -6.2035475, 1.1803226, 0
1078, 3165145091, 0.7087377, 0.5606288, 0.006180455, 0.4281939, 5.0320125, -5.8524165, 0.8284044, 0
1079, 3165161758, 0.7012952, 0.5668353, 0.018692814, 0.4318976, 4.729968, -5.476232, -0.15862083, 0
1080, 3165178425, 0.6942136, 0.5712788, 0.030857287, 0.43675807, 4.665681, -5.0616274, -0.91045666, 0
1081, 3165195092, 0.6869974, 0.57500386, 0.04286502, 0.44223255, 4.580559, -4.7534657, -1.4475813, 0
1082, 3165211759, 0.67922294, 0.5786478, 0.055257455, 0.44807532, 4.6516237, -4.314993, -1.613347, 0
1083, 3165228426, 0.67173445, 0.5809473, 0.06753107, 0.45465887, 3.9128697, -4.1062922, -1.242899, 0
1084, 3165245093, 0.66545546, 0.5806892, 0.07934759, 0.46224988, 3.8514152, -3.438003, -1.8157377, 0
1085, 3165261760, 0.65923977, 0.5796985, 0.090619326, 0.47025827, 4.16735, -2.7880068, -2.274301, 0
1086, 3165278427, 0.65211546, 0.57912487, 0.10172865, 0.47855297, 4.161178, -2.2473247, -2.4879436, 0
1087, 3165295094, 0.6438681, 0.57918674, 0.11268497, 0.48711464, 4.0120716, -1.8469728, -2.5409565, 0
1088, 3165311761, 0.6351267, 0.57911193, 0.1223894, 0.4962524, 3.6423833, -1.6171438, -1.7216921, 0
1089, 3165328428, 0.6272303, 0.5775034, 0.13045748, 0.5060187, 3.3614006, -1.5487676, -0.94120026, 0
1090, 3165345095, 0.6205898, 0.57407856, 0.13753419, 0.51612836, 3.582729, -1.1236452, -0.8716755, 0
1091, 3165361762, 0.61402696, 0.5698175, 0.14437471, 0.5267228, 3.6767347, -0.85509866, -0.5491333, 0
1092, 3165378429, 0.6069997, 0.56464434, 0.15167132, 0.5382619, 3.6509852, -0.31064656, -0.39976883, 0
1093, 3165395096, 0.59903365, 0.55856055, 0.16025002, 0.5509, 3.3179247, 0.07607174, -0.23890686, 0
1094, 3165411763, 0.5902576, 0.55170965, 0.16932817, 0.56439567, 2.6926808, 0.21501589, -0.23279572, 0
1095, 3165428430, 0.58119893, 0.54451686, 0.1776241, 0.57806635, 2.2907932, 0.1932388, -0.1720705, 0
1096, 3165445097, 0.57202643, 0.53762823, 0.18515038, 0.59115374, 2.382749, 0.45680147, -0.24133968, 0
1097, 3165461764, 0.5622626, 0.53112996, 0.19291958, 0.6037763, 2.1521232, 0.6115672, 0.15861034, 0
1098, 3165478431, 0.55242777, 0.5242537, 0.20093575, 0.6161237, 1.8053269, 0.71353716, 0.4092598, 0
1099, 3165495098, 0.5429094, 0.5170747, 0.20876613, 0.62793475, 1.659371, 0.7906223, 0.50653076, 0
1100, 3165511765, 0.53366286, 0.5098841, 0.21598184, 0.6391993, 1.588632, 0.89160526, 0.84601974, 0
1101, 3165528432, 0.52488196, 0.50232697, 0.2226436, 0.6500756, 1.5240852, 0.9576728, 0.94542027, 0
1102, 3165545099, 0.5163396, 0.4945216, 0.22940199, 0.6604684, 1.5940388, 1.2861005, 0.7676134, 0
1103, 3165561766, 0.50750864, 0.48683068, 0.23643915, 0.67046964, 1.6423973, 1.5814617, 0.7168331, 0
1104, 3165578433, 0.4985376, 0.47868958, 0.24315198, 0.6805849, 1.2694453, 1.5843074, 1.2094812, 0
1105, 3165595100, 0.49027064, 0.46956614, 0.24902016, 0.69074845, 1.1410707, 1.734246, 1.2942076, 0
1106, 3165611767, 0.48271126, 0.4599644, 0.2536846, 0.700763, 1.2059267, 1.6809782, 1.6223955, 0
1107, 3165628434, 0.47512582, 0.4501581, 0.2583373, 0.71054685, 1.4445409, 2.3693724, 1.6422911, 0
1108, 3165645101, 0.46712023, 0.43946898, 0.26342112, 0.7206088, 0.94469404, 2.256728, 2.4252586, 0
1109, 3165661768, 0.45998248, 0.4266565, 0.26678658, 0.7315786, 0.3240484, 1.6224815, 2.9710083, 0
1110, 3165678435, 0.45473805, 0.41089445, 0.26757056, 0.7434963, 0.011369657, 1.6343353, 2.425809, 0
1111, 3165695102, 0.44928232, 0.39430368, 0.26911083, 0.7551497, 0.10130714, 2.4488647, 0.9508028, 0
1112, 3165711769, 0.4416991, 0.3797804, 0.27201062, 0.76595086, -0.011256783, 2.4992785, 0.62693405, 0
1113, 3165728436, 0.43289837, 0.3673206, 0.27575517, 0.7756516, -0.53084314, 2.2834177, 1.2633991, 0
1114, 3165745103, 0.42478415, 0.3549279, 0.27901027, 0.7846909, -0.8469002, 2.2225144, 1.6866713, 0
1115, 3165761770, 0.4173597, 0.34131575, 0.28049037, 0.7941295, -1.2329562, 2.2329018, 1.9147091, 0
1116, 3165778437, 0.409636, 0.32633185, 0.2808795, 0.80424786, -1.7079402, 2.3660898, 1.9632025, 0
1117, 3165795104, 0.40160483, 0.31047952, 0.2799811, 0.81481814, -2.3139422, 2.0641708, 2.3893595, 0
1118, 3165811771, 0.3938809, 0.29377732, 0.27782977, 0.8254486, -2.999643, 1.5157834, 2.9134712, 0
1119, 3165828438, 0.38705435, 0.27547365, 0.27365175, 0.8363131, -3.8497443, 0.80637014, 3.1727924, 0
1120, 3165845105, 0.3811941, 0.2551941, 0.26820892, 0.8471321, -3.9255679, 1.1488283, 1.5030527, 0
1121, 3165861772, 0.37363243, 0.23524977, 0.2650416, 0.8572115, -4.018361, 1.3932016, 0.26645374, 0
1122, 3165878439, 0.36346483, 0.21735664, 0.26526216, 0.8661912, -4.5955176, 0.915539, 0.10507774, 0
1123, 3165895106, 0.352691, 0.20078789, 0.26749134, 0.8739242, -5.4570565, -0.32406315, 0.498847, 0
1124, 3165911773, 0.34366962, 0.18471007, 0.2686755, 0.8806752, -5.7988887, -1.3622974, 0.426507, 0
1125, 3165928440, 0.3366776, 0.16920945, 0.2677977, 0.8867371, -5.792917, -1.4378103, -0.05983162, 0
1126, 3165945107, 0.33006594, 0.15466343, 0.26782393, 0.89185643, -5.700915, -1.0844827, -0.7221203, 0
1127, 3165961774, 0.3230108, 0.14109084, 0.26998323, 0.89602935, -5.8829017, -1.6372002, -1.0997143, 0
1128, 3165978441, 0.31636086, 0.12825769, 0.27286953, 0.89944965, -6.0795636, -2.4410622, -1.381259, 0
1129, 3165995108, 0.31097883, 0.11624304, 0.27448487, 0.9024631, -6.147895, -3.029697, -1.5238142, 0
1130, 3166011775, 0.30697656, 0.1051411, 0.2743334, 0.90523696, -6.0491495, -3.2179303, -1.7207956, 0
1131, 3166028442, 0.30425343, 0.09490984, 0.27344248, 0.90755343, -5.940592, -3.4360538, -1.7310305, 0
1132, 3166045109, 0.3030872, 0.08529203, 0.27179566, 0.9093913, -5.8074627, -3.9387372, -1.8283348, 0
1133, 3166061776, 0.3040584, 0.07646274, 0.2689887, 0.9106859, -5.4410553, -4.202347, -2.164382, 0
1134, 3166078443, 0.30683434, 0.069063894, 0.26482558, 0.9115658, -5.1326475, -3.9219654, -2.466926, 0
1135, 3166095110, 0.310725, 0.06317363, 0.2601212, 0.9120296, -5.1482186, -3.6283543, -2.4910316, 0
1136, 3166111777, 0.31553113, 0.058038108, 0.25434846, 0.9123488, -5.1271734, -3.851363, -2.370863, 0
1137, 3166128444, 0.3216547, 0.053461872, 0.24801336, 0.9122343, -4.8330173, -3.8016698, -2.454239, 0
1138, 3166145111, 0.32920164, 0.05025179, 0.2426834, 0.91115725, -4.4536557, -3.1908388, -2.7469225, 0
1139, 3166161778, 0.3379968, 0.0487898, 0.23882708, 0.90903306, -4.306326, -2.8723736, -2.8941145, 0
1140, 3166178445, 0.3478014, 0.049164157, 0.2357742, 0.90610677, -4.135178, -2.3309848, -3.0494285, 0
1141, 3166195112, 0.3581902, 0.051312104, 0.23348528, 0.9025261, -4.055419, -1.7916865, -3.0668864, 0
1142, 3166211779, 0.3689373, 0.054761276, 0.23138322, 0.8985267, -4.107259, -1.6314245, -2.7624202, 0
1143, 3166228446, 0.38023636, 0.05881338, 0.22870365, 0.8942359, -4.187813, -1.3916707, -2.465167, 0
1144, 3166245113, 0.3922059, 0.063250184, 0.22572047, 0.88950896, -3.9318419, -0.7386745, -2.4804502, 0
1145, 3166261780, 0.40449917, 0.068334356, 0.22308314, 0.8842775, -3.9156532, -0.323415, -2.4615808, 0
1146, 3166278447, 0.41708177, 0.07386763, 0.22020544, 0.87869126, -3.9477005, -0.05904092, -2.3385024, 0
1147, 3166295114, 0.43010372, 0.079381116, 0.21673521, 0.87277555, -3.74955, 0.16049205, -2.3033338, 0
1148, 3166311781, 0.44353524, 0.08497538, 0.21286188, 0.866457, -3.595306, 0.276951, -2.283214, 0
1149, 3166328448, 0.4572553, 0.09087418, 0.20872863, 0.8597056, -3.514633, 0.5499434, -2.3438163, 0
1150, 3166345115, 0.47122648, 0.09747578, 0.20388292, 0.8525714, -3.4723418, 0.5352444, -2.2264094, 0
1151, 3166361782, 0.48556298, 0.104958974, 0.19863272, 0.8448426, -3.3617456, 0.9186743, -2.0892825, 0
1152, 3166378449, 0.500298, 0.11345104, 0.19353753, 0.8362869, -3.3584142, 1.1761923, -1.7785845, 0
1153, 3166395116, 0.515532, 0.123040155, 0.18871912, 0.82672536, -3.2751505, 1.4607859, -1.5418282, 0
1154, 3166411783, 0.5309868, 0.13357115, 0.18358324, 0.81640106, -3.2618015, 1.5533558, -1.2111912, 0
1155, 3166428450, 0.54651767, 0.1446794, 0.17782333, 0.8054609, -3.1006696, 1.7673427, -1.0243807, 0
1156, 3166445117, 0.5617674, 0.15659381, 0.17115115, 0.7941065, -2.8239079, 1.907268, -0.6130781, 0
1157, 3166461784, 0.57657856, 0.16952977, 0.16441576, 0.7821676, -2.4643776, 2.1968925, -0.048454285, 0
1158, 3166478451, 0.5908889, 0.18338323, 0.15859921, 0.7694602, -2.1824262, 2.377244, 0.48959637, 0
1159, 3166495118, 0.60465324, 0.19741979, 0.15360941, 0.7561918, -2.025902, 2.2546759, 0.83160305, 0
1160, 3166511785, 0.617731, 0.2116964, 0.14935543, 0.74248785, -1.6988207, 2.1995265, 1.0445976, 0
1161, 3166528452, 0.63014567, 0.22724684, 0.14627466, 0.7279293, -0.8937763, 2.4613154, 1.0602951, 0
1162, 3166545119, 0.6418569, 0.24488124, 0.14367977, 0.71232796, -0.61868376, 2.4891229, 1.5819206, 0
1163, 3166561786, 0.6533018, 0.2631999, 0.13994041, 0.69594634, -0.2561351, 2.3312607, 1.9626112, 0
1164, 3166578453, 0.6646011, 0.28045806, 0.13419577, 0.67944247, 0.14691372, 1.9358766, 2.3752184, 0
