DeviceTag:,Xsens DOT 4,,,,,,,,,,,,,,,,,
FirmwareVersion:,1.3.0,,,,,,,,,,,,,,,,,
AppVersion:,2020.1.1,,,,,,,,,,,,,,,,,
Measurement Mode:,Sensor fusion Mode - Orientation (Quaternion),,,,,,,,,,,,,,,,,
StartTime:,2020-08-24 09:00:44.170 +0200,,,,,,,,,,,,,,,,,
© Xsens Technologies B. V. 2005-2020,,,,,,,,,,,,,,,,,,,
PacketCounter,SampleTimeFine,Quat_W,Quat_X,Quat_Y,Quat_Z
1, 158776589, 0.9954559, -0.019756803, 0.06785509, -0.06381875
2, 158793256, 0.99540806, -0.019462377, 0.06799783, -0.064499766
3, 158809923, 0.99534637, -0.019354373, 0.06839643, -0.065062225
4, 158826590, 0.9952908, -0.019414349, 0.06876542, -0.06550471
5, 158843257, 0.995224, -0.019318108, 0.0693776, -0.06590054
6, 158859924, 0.995178, -0.018996285, 0.06987476, -0.06616294
7, 158876591, 0.9951479, -0.018870207, 0.070189774, -0.06631807
8, 158893258, 0.9951376, -0.018790567, 0.07027016, -0.066410094
9, 158909925, 0.99512655, -0.018675452, 0.07042741, -0.06644267
10, 158926592, 0.9951118, -0.018498488, 0.070591666, -0.06653728
11, 158943259, 0.9951029, -0.01837406, 0.07061813, -0.066677816
12, 158959926, 0.9950893, -0.018329434, 0.070686534, -0.06681953
13, 158976593, 0.99505657, -0.018421192, 0.07100688, -0.06694208
14, 158993260, 0.9950382, -0.018591389, 0.07121399, -0.06694826
15, 159009927, 0.99504775, -0.018683814, 0.07113886, -0.06685978
16, 159026594, 0.9950414, -0.018694915, 0.07102252, -0.067075886
17, 159043261, 0.99503756, -0.018738924, 0.07094232, -0.067203544
18, 159059928, 0.9950949, -0.018824665, 0.07078095, -0.06649894
19, 159076595, 0.99509513, -0.01878648, 0.070524685, -0.06677653
20, 159093262, 0.9950755, -0.018686103, 0.070369154, -0.06726033
21, 159109929, 0.9950984, -0.018712886, 0.07008122, -0.06721379
22, 159126596, 0.99510056, -0.018768212, 0.06984549, -0.06741168
23, 159143263, 0.9951658, -0.01882752, 0.0697135, -0.06656304
24, 159159930, 0.9951438, -0.018737832, 0.06967906, -0.0669519
25, 159176597, 0.995158, -0.018657649, 0.06942459, -0.06702832
26, 159193264, 0.9952087, -0.018694183, 0.068926066, -0.066779494
27, 159209931, 0.9952387, -0.018652428, 0.06816438, -0.06712635
28, 159226598, 0.99533314, -0.01858621, 0.06736695, -0.06654606
29, 159243265, 0.9954296, -0.018504417, 0.06652507, -0.065970756
30, 159259932, 0.9954986, -0.0184791, 0.06580042, -0.065662056
31, 159276599, 0.9956131, -0.018488074, 0.065210864, -0.06450078
32, 159293266, 0.9957622, -0.018437477, 0.064840324, -0.062556736
33, 159309933, 0.99584687, -0.018332595, 0.06487519, -0.061192278
34, 159326600, 0.99590415, -0.018293597, 0.06487077, -0.06026571
35, 159343267, 0.9960051, -0.018320505, 0.06457526, -0.058891285
36, 159359934, 0.9960892, -0.018307338, 0.064010024, -0.05808446
37, 159376601, 0.99602455, -0.018184233, 0.063458554, -0.059813224
38, 159393268, 0.9960754, -0.018131599, 0.06302812, -0.05943616
39, 159409935, 0.9960405, -0.01801209, 0.06280185, -0.060290672
40, 159426602, 0.9959897, -0.01784586, 0.062461603, -0.06152237
41, 159443269, 0.99602187, -0.017726641, 0.06218069, -0.061318412
42, 159459936, 0.9960587, -0.017619336, 0.06226445, -0.060663227
43, 159476603, 0.99607015, -0.017384661, 0.062277704, -0.06052977
44, 159493270, 0.9960563, -0.017138008, 0.06228316, -0.060820043
45, 159509937, 0.9961326, -0.016834794, 0.06193932, -0.06000155
46, 159526604, 0.996108, -0.016432347, 0.061745226, -0.06071693
47, 159543271, 0.9960797, -0.016044157, 0.061767925, -0.061261162
48, 159559938, 0.99606746, -0.015769156, 0.062017433, -0.061279107
49, 159576605, 0.99607766, -0.015471978, 0.062361605, -0.060836438
50, 159593272, 0.99603534, -0.0150456745, 0.062519506, -0.06146943
51, 159609939, 0.9960076, -0.014682734, 0.062535994, -0.061987836
52, 159626606, 0.9959485, -0.014344577, 0.06252724, -0.06301914
53, 159643273, 0.9958504, -0.014026805, 0.062562555, -0.06458636
54, 159659940, 0.9958224, -0.013857134, 0.06281638, -0.06480602
55, 159676607, 0.995766, -0.013729352, 0.06342619, -0.06510707
56, 159693274, 0.9957923, -0.0137306, 0.06364331, -0.06448993
57, 159709941, 0.9958004, -0.013658874, 0.063449755, -0.06456834
58, 159726608, 0.9957104, -0.0134120155, 0.06304086, -0.066384435
59, 159743275, 0.99572366, -0.013234579, 0.06277447, -0.066473514
60, 159759942, 0.9957093, -0.013015634, 0.06294523, -0.066570066
61, 159776609, 0.99568284, -0.012867207, 0.063167706, -0.06678413
62, 159793276, 0.9957302, -0.0127852, 0.06269035, -0.06654195
63, 159809943, 0.99582535, -0.012744725, 0.061817363, -0.06594091
64, 159826610, 0.995874, -0.01271835, 0.06110002, -0.065878436
65, 159843277, 0.9958737, -0.012774314, 0.060506538, -0.06641943
66, 159859944, 0.9959284, -0.012920239, 0.059789695, -0.06621936
67, 159876611, 0.9959351, -0.013110696, 0.059518702, -0.06632661
68, 159893278, 0.9959284, -0.013341463, 0.059702773, -0.0662138
69, 159909945, 0.99585104, -0.013588421, 0.0600462, -0.06701275
70, 159926612, 0.9957771, -0.013874495, 0.06029908, -0.06782115
71, 159943279, 0.99568665, -0.014127039, 0.060434643, -0.06896695
72, 159959946, 0.9956129, -0.014475419, 0.060610298, -0.069798656
73, 159976613, 0.9955285, -0.014908884, 0.060837284, -0.07070833
74, 159993280, 0.9954669, -0.015606739, 0.061248284, -0.07106899
75, 160009947, 0.99547, -0.016532943, 0.061435077, -0.070654675
76, 160026614, 0.9954143, -0.017552434, 0.06146714, -0.07116321
77, 160043281, 0.99537885, -0.018724069, 0.061456185, -0.07137017
78, 160059948, 0.99536407, -0.019917145, 0.061682124, -0.07105987
79, 160076615, 0.9953287, -0.020959066, 0.061741553, -0.07120132
80, 160093282, 0.9953715, -0.02185031, 0.061154056, -0.070841685
81, 160109949, 0.9954015, -0.022400357, 0.06011208, -0.071140215
82, 160126616, 0.99552053, -0.022779582, 0.05931742, -0.07001008
83, 160143283, 0.9956505, -0.022879973, 0.059136316, -0.06826067
84, 160159950, 0.9956914, -0.022774309, 0.05939991, -0.06746646
85, 160176617, 0.99577206, -0.022617355, 0.059191626, -0.06650674
86, 160193284, 0.9958069, -0.022431169, 0.058747433, -0.06644232
87, 160209951, 0.995812, -0.022263395, 0.05841258, -0.06671698
88, 160226618, 0.9958676, -0.022285532, 0.058042314, -0.0662
89, 160243285, 0.99587053, -0.02215264, 0.057604086, -0.06658102
90, 160259952, 0.9958937, -0.021889245, 0.057765283, -0.066180624
91, 160276619, 0.99592835, -0.02155582, 0.058359124, -0.065240845
92, 160293286, 0.995919, -0.021248128, 0.05910139, -0.06481552
93, 160309953, 0.9959191, -0.020995826, 0.059634697, -0.06440641
94, 160326620, 0.9959528, -0.020664027, 0.059910037, -0.063732676
95, 160343287, 0.99599063, -0.020276781, 0.060421653, -0.06277537
96, 160359954, 0.99603117, -0.020036664, 0.06070554, -0.06193041
97, 160376621, 0.99608886, -0.020004269, 0.060710404, -0.061002187
98, 160393288, 0.99610484, -0.019951873, 0.060424466, -0.06104061
99, 160409955, 0.9961591, -0.019997738, 0.06007377, -0.06048645
100, 160426622, 0.99620557, -0.020059094, 0.059849877, -0.059918847
101, 160443289, 0.9961831, -0.020052541, 0.060247194, -0.05989742
102, 160459956, 0.9962019, -0.020082824, 0.061126493, -0.058669925
103, 160476623, 0.99619853, -0.020002645, 0.061890062, -0.0579494
104, 160493290, 0.99621725, -0.019731423, 0.062026665, -0.057574235
105, 160509957, 0.9962949, -0.019458594, 0.061745025, -0.056615908
106, 160526624, 0.99633163, -0.01931796, 0.06124619, -0.056561038
107, 160543291, 0.996373, -0.019410077, 0.060522128, -0.056582246
108, 160559958, 0.9964287, -0.019547515, 0.06007881, -0.05602303
109, 160576625, 0.99638844, -0.019589258, 0.06039556, -0.056380484
110, 160593292, 0.99635124, -0.019853257, 0.060973693, -0.056324836
111, 160609959, 0.9962385, -0.020201067, 0.061240066, -0.057886768
112, 160626626, 0.99618334, -0.020705914, 0.061188016, -0.05870374
113, 160643293, 0.99615574, -0.021265263, 0.061266936, -0.058889363
114, 160659960, 0.9960909, -0.021797217, 0.061924342, -0.059104063
115, 160676627, 0.99597704, -0.022280116, 0.06315295, -0.059542052
116, 160693294, 0.9959028, -0.022680543, 0.06399396, -0.059735067
117, 160709961, 0.9958582, -0.022970418, 0.064474806, -0.059849214
118, 160726628, 0.9958522, -0.023203757, 0.06467051, -0.05964818
119, 160743295, 0.99585354, -0.02344368, 0.06472571, -0.05947082
120, 160759962, 0.9958579, -0.023713116, 0.06447664, -0.059561983
121, 160776629, 0.995899, -0.023994403, 0.06386433, -0.05942179
122, 160793296, 0.9959425, -0.024348471, 0.06340415, -0.059041392
123, 160809963, 0.99594826, -0.02466657, 0.063166276, -0.05906745
124, 160826630, 0.9959321, -0.024956495, 0.063226864, -0.059151392
125, 160843297, 0.99588656, -0.02525189, 0.06351486, -0.05948534
126, 160859964, 0.9958468, -0.025569044, 0.06376502, -0.05974343
127, 160876631, 0.99582994, -0.025850806, 0.06368332, -0.059993405
128, 160893298, 0.99578995, -0.026013605, 0.0634193, -0.060858812
129, 160909965, 0.9957901, -0.0261198, 0.06329433, -0.060940795
130, 160926632, 0.9957581, -0.026134867, 0.06315828, -0.061594546
131, 160943299, 0.9957648, -0.026147181, 0.06284938, -0.06179658
132, 160959966, 0.9957867, -0.026030574, 0.06234822, -0.06200043
133, 160976633, 0.9958288, -0.025860682, 0.061745785, -0.061998397
134, 160993300, 0.99585426, -0.02556626, 0.061062355, -0.062387407
135, 161009967, 0.995883, -0.02528857, 0.06060413, -0.06249036
136, 161026634, 0.995899, -0.025067557, 0.060140252, -0.06277058
137, 161043301, 0.99594855, -0.024829896, 0.059737932, -0.062463004
138, 161059968, 0.99591553, -0.024523549, 0.059915397, -0.062937394
139, 161076635, 0.99588823, -0.024312638, 0.060341805, -0.063043796
140, 161093302, 0.9959027, -0.024195055, 0.06066238, -0.06255037
141, 161109969, 0.99594396, -0.024068085, 0.060702957, -0.061900694
142, 161126636, 0.9959941, -0.02390709, 0.06064229, -0.06121204
143, 161143303, 0.9960187, -0.023725053, 0.06065361, -0.060870726
144, 161159970, 0.9960375, -0.02355456, 0.06074734, -0.06053421
145, 161176637, 0.9960591, -0.023480883, 0.060707092, -0.06024723
146, 161193304, 0.99607825, -0.023319397, 0.06020851, -0.060493663
147, 161209971, 0.9961266, -0.023227626, 0.05955726, -0.06037784
148, 161226638, 0.99607176, -0.022970406, 0.05953429, -0.061393563
149, 161243305, 0.99597776, -0.022649616, 0.06089688, -0.061700832
150, 161259972, 0.99582964, -0.022366175, 0.062896594, -0.062187266
151, 161276639, 0.9956953, -0.022152577, 0.06445359, -0.06281721
152, 161293306, 0.9955947, -0.022183158, 0.06549448, -0.06332252
153, 161309973, 0.995515, -0.022387542, 0.066091284, -0.06388088
154, 161326640, 0.99540263, -0.022511864, 0.0669385, -0.064702295
155, 161343307, 0.99528396, -0.022554925, 0.06821246, -0.06517823
156, 161359974, 0.9951658, -0.022571178, 0.06956158, -0.06555093
157, 161376641, 0.99507344, -0.022618463, 0.07055615, -0.065872744
158, 161393308, 0.9950002, -0.022593625, 0.07096073, -0.066550195
159, 161409975, 0.9950066, -0.022422008, 0.07101273, -0.06645791
160, 161426642, 0.9950286, -0.022122953, 0.071177796, -0.06605001
161, 161443309, 0.99505186, -0.021704221, 0.0712935, -0.06571112
162, 161459976, 0.9951535, -0.02146505, 0.070674285, -0.06491494
163, 161476643, 0.9952731, -0.021323778, 0.0695244, -0.06436864
164, 161493310, 0.99538845, -0.021243501, 0.0683608, -0.06385543
165, 161509977, 0.99550796, -0.021309879, 0.06716827, -0.06323324
166, 161526644, 0.9956167, -0.0215948, 0.06617751, -0.06246557
167, 161543311, 0.9956906, -0.021912891, 0.0656363, -0.06174227
168, 161559978, 0.9957426, -0.022277886, 0.06557594, -0.060830154
169, 161576645, 0.99574524, -0.022660136, 0.06562576, -0.06059103
170, 161593312, 0.99573964, -0.023133254, 0.06545384, -0.060690664
171, 161609979, 0.99571747, -0.02379146, 0.0652815, -0.060985234
172, 161626646, 0.99569947, -0.0246214, 0.064971544, -0.061278854
173, 161643313, 0.9956844, -0.02559804, 0.0645047, -0.06161637
174, 161659980, 0.99572265, -0.026684359, 0.063677534, -0.06139795
175, 161676647, 0.9957647, -0.027819024, 0.06284308, -0.061071567
176, 161693314, 0.99572796, -0.029015545, 0.06224842, -0.06172036
177, 161709981, 0.9956891, -0.030520428, 0.061943732, -0.061927322
178, 161726648, 0.99560845, -0.03231255, 0.06190477, -0.062350087
179, 161743315, 0.9955008, -0.034506075, 0.06202681, -0.06277135
180, 161759982, 0.99540335, -0.037068024, 0.06250022, -0.062386677
181, 161776649, 0.9952467, -0.04003902, 0.06276683, -0.06278039
182, 161793316, 0.99514747, -0.04358605, 0.062488116, -0.062267743
183, 161809983, 0.9950173, -0.04755756, 0.061883144, -0.062043212
184, 161826650, 0.99486876, -0.051814597, 0.06151471, -0.061379187
185, 161843317, 0.9946693, -0.056537572, 0.061195888, -0.06075882
186, 161859984, 0.9944472, -0.06182198, 0.060157534, -0.06028438
187, 161876651, 0.99419004, -0.067387514, 0.05893073, -0.059770487
188, 161893318, 0.9938441, -0.07316579, 0.05841655, -0.05923377
189, 161909985, 0.9933765, -0.07920659, 0.05896475, -0.058759168
190, 161926652, 0.99283856, -0.085712925, 0.05926707, -0.05841554
191, 161943319, 0.9922369, -0.09278656, 0.058882557, -0.058218863
192, 161959986, 0.9915747, -0.10005411, 0.05831105, -0.05803912
193, 161976653, 0.99075437, -0.10755904, 0.058876485, -0.05805677
194, 161993320, 0.98983437, -0.11538748, 0.05937547, -0.058208935
195, 162009987, 0.9888498, -0.12358424, 0.059168547, -0.05832884
196, 162026654, 0.9877386, -0.13179545, 0.05983391, -0.058499787
197, 162043321, 0.98648953, -0.139985, 0.061810017, -0.05849768
198, 162059988, 0.98506415, -0.14864102, 0.064153925, -0.058643956
199, 162076655, 0.9834995, -0.15759055, 0.06645217, -0.058977943
200, 162093322, 0.98188484, -0.16635083, 0.06862587, -0.05933034
201, 162109989, 0.9802272, -0.17495681, 0.0707543, -0.05948664
202, 162126656, 0.97858524, -0.1837428, 0.07135565, -0.059313793
203, 162143323, 0.97703344, -0.19283403, 0.06894646, -0.05888179
204, 162159990, 0.9756, -0.20163263, 0.0647328, -0.057955455
205, 162176657, 0.9740344, -0.21003516, 0.062217306, -0.05719553
206, 162193324, 0.97227615, -0.21819079, 0.062181626, -0.05661778
207, 162209991, 0.97032887, -0.22651261, 0.06331517, -0.056082405
208, 162226658, 0.96837807, -0.23493902, 0.06328681, -0.055157952
209, 162243325, 0.9664586, -0.243163, 0.06276347, -0.0537611
210, 162259992, 0.96445817, -0.25093445, 0.06406624, -0.052421317
211, 162276659, 0.9622766, -0.25844413, 0.06783258, -0.05127586
212, 162293326, 0.9598857, -0.26642796, 0.071569055, -0.05013512
213, 162309993, 0.95748806, -0.27484253, 0.07274168, -0.048860036
214, 162326660, 0.9552884, -0.28281966, 0.07208796, -0.04733552
215, 162343327, 0.953075, -0.29035568, 0.07221209, -0.046120957
216, 162359994, 0.950757, -0.2977353, 0.07336689, -0.04508217
217, 162376661, 0.94824505, -0.30552977, 0.074382335, -0.04416176
218, 162393328, 0.94574887, -0.31346002, 0.073778965, -0.04311466
219, 162409995, 0.94335014, -0.32100752, 0.07268094, -0.041980088
220, 162426662, 0.94100493, -0.3280546, 0.07218127, -0.040988207
221, 162443329, 0.9386541, -0.33475506, 0.07251593, -0.040111974
222, 162459996, 0.93622124, -0.34156358, 0.07271489, -0.039201286
223, 162476663, 0.93373525, -0.34853253, 0.07214629, -0.038192194
224, 162493330, 0.93121463, -0.35538325, 0.07174743, -0.037344243
225, 162509997, 0.9286213, -0.3619834, 0.07254388, -0.036990553
226, 162526664, 0.92577475, -0.3687744, 0.07454866, -0.037271135
227, 162543331, 0.9228233, -0.3757861, 0.075942636, -0.037613813
228, 162559998, 0.91995, -0.3828731, 0.0755031, -0.0374119
229, 162576665, 0.9170671, -0.3899424, 0.074546725, -0.03709461
230, 162593332, 0.91415673, -0.39689636, 0.07377197, -0.03672399
231, 162609999, 0.91116095, -0.40389073, 0.07309323, -0.036270905
232, 162626666, 0.9080121, -0.41123918, 0.071675204, -0.03548408
233, 162643333, 0.90487605, -0.41869313, 0.06881862, -0.03405168
234, 162660000, 0.90167254, -0.4261844, 0.06565989, -0.032284956
235, 162676667, 0.89848685, -0.43345755, 0.062437933, -0.030619603
236, 162693334, 0.8953122, -0.44090265, 0.056956936, -0.02787369
237, 162710001, 0.89199656, -0.44869703, 0.049347598, -0.024047302
238, 162726668, 0.8887889, -0.45583567, 0.04292743, -0.020630281
239, 162743335, 0.88532704, -0.4628175, 0.04022749, -0.019438822
240, 162760002, 0.8813317, -0.47026742, 0.04123616, -0.020064749
241, 162776669, 0.8771418, -0.47793382, 0.04221015, -0.020493614
242, 162793336, 0.87300444, -0.48557347, 0.041108236, -0.019800536
243, 162810003, 0.86907315, -0.49289966, 0.037961517, -0.017910972
244, 162826670, 0.86517555, -0.5000889, 0.03381687, -0.015455007
245, 162843337, 0.8611027, -0.5074096, 0.029571801, -0.012771734
246, 162860004, 0.85681254, -0.51492226, 0.025143104, -0.009750526
247, 162876671, 0.85242975, -0.5224149, 0.020197071, -0.006185937
248, 162893338, 0.8478474, -0.5299858, 0.016163956, -0.0029195284
249, 162910005, 0.8430573, -0.5376654, 0.013050025, -7.7546574E-5
250, 162926672, 0.8380706, -0.54545075, 0.010814902, 0.002086165
251, 162943339, 0.83290946, -0.5533233, 0.008849638, 0.004129515
252, 162960006, 0.8278417, -0.56087255, 0.008436508, 0.0053832596
253, 162976673, 0.8227515, -0.56829697, 0.009372152, 0.0055564735
254, 162993340, 0.81748754, -0.5758208, 0.01080828, 0.0052831285
255, 163010007, 0.8122232, -0.58320993, 0.0113096265, 0.00563218
256, 163026674, 0.80695397, -0.5904697, 0.011432827, 0.0063344617
257, 163043341, 0.80171365, -0.5975414, 0.012614869, 0.006367296
258, 163060008, 0.7965658, -0.60432386, 0.015806265, 0.005088056
259, 163076675, 0.79152775, -0.6107621, 0.021172768, 0.0023217988
260, 163093342, 0.78669256, -0.6167136, 0.027890008, -0.0012256133
261, 163110009, 0.78209776, -0.6222298, 0.03370389, -0.0041806307
262, 163126676, 0.7776878, -0.62743974, 0.038509667, -0.006181018
263, 163143343, 0.7733529, -0.63246274, 0.04306471, -0.007866047
264, 163160010, 0.7689858, -0.63741505, 0.047590304, -0.009915739
265, 163176677, 0.76450336, -0.64245474, 0.05144692, -0.011833152
266, 163193344, 0.7600813, -0.64746284, 0.053883065, -0.012843097
267, 163210011, 0.7559357, -0.6521249, 0.055782914, -0.013517059
268, 163226678, 0.75198436, -0.65649414, 0.05765579, -0.014521627
269, 163243345, 0.7480829, -0.6607379, 0.059588447, -0.015712297
270, 163260012, 0.74423057, -0.6648794, 0.06147153, -0.01665643
271, 163276679, 0.74052715, -0.66883945, 0.063057944, -0.01723324
272, 163293346, 0.7369892, -0.6726423, 0.06405394, -0.017217956
273, 163310013, 0.7336282, -0.676242, 0.06483767, -0.016809091
274, 163326680, 0.73056316, -0.67947495, 0.065778024, -0.0162684
275, 163343347, 0.7277614, -0.6824766, 0.06600955, -0.015232158
276, 163360014, 0.7252537, -0.6852145, 0.06558218, -0.013681903
277, 163376681, 0.7231193, -0.6874907, 0.06559907, -0.012328631
278, 163393348, 0.7211537, -0.6894341, 0.066875964, -0.012074933
279, 163410015, 0.71930856, -0.6911781, 0.068637095, -0.012531419
280, 163426682, 0.7177032, -0.69269896, 0.07009363, -0.0125390645
281, 163443349, 0.7164206, -0.69399023, 0.070614636, -0.011522213
282, 163460016, 0.7154129, -0.6950347, 0.07072469, -0.010458587
283, 163476683, 0.71474963, -0.69560826, 0.07181022, -0.010277823
284, 163493350, 0.7141017, -0.69611824, 0.07322771, -0.010771275
285, 163510017, 0.71341497, -0.696731, 0.07404808, -0.011047169
286, 163526684, 0.7128034, -0.6973537, 0.07411409, -0.010787202
287, 163543351, 0.7125357, -0.6976655, 0.073807806, -0.010408657
288, 163560018, 0.71248794, -0.6977278, 0.073715955, -0.010147786
289, 163576685, 0.7124932, -0.6977132, 0.073823415, -0.009993767
290, 163593352, 0.7123709, -0.6978426, 0.07381982, -0.009703308
291, 163610019, 0.7123493, -0.69792813, 0.073292874, -0.009119352
292, 163626686, 0.71246684, -0.697863, 0.072816476, -0.008725476
293, 163643353, 0.71243805, -0.69785035, 0.073185384, -0.008995719
294, 163660020, 0.71224946, -0.697904, 0.0743642, -0.010044009
295, 163676687, 0.712019, -0.698015, 0.07537063, -0.011105102
296, 163693354, 0.7119063, -0.6980857, 0.075705625, -0.011589609
297, 163710021, 0.7118618, -0.69815403, 0.075493045, -0.01160658
298, 163726688, 0.71184903, -0.6981555, 0.07557062, -0.011792052
299, 163743355, 0.7117446, -0.69823736, 0.07575529, -0.01206467
300, 163760022, 0.71160626, -0.6983848, 0.0756926, -0.012084777
301, 163776689, 0.71155196, -0.6984655, 0.075494796, -0.011842008
302, 163793356, 0.71165717, -0.6983898, 0.07527763, -0.011366362
303, 163810023, 0.7116661, -0.69838333, 0.07529002, -0.011104787
304, 163826690, 0.7114276, -0.69859594, 0.07554566, -0.0112847695
305, 163843357, 0.71119106, -0.6988238, 0.07563721, -0.01147393
306, 163860024, 0.71104974, -0.69896626, 0.07562901, -0.011611457
307, 163876691, 0.7109915, -0.6990462, 0.075436674, -0.011619513
308, 163893358, 0.7109646, -0.6990822, 0.07537225, -0.011507693
309, 163910025, 0.710855, -0.69919294, 0.07539412, -0.011407108
310, 163926692, 0.7107339, -0.6993803, 0.07490301, -0.0106888125
311, 163943359, 0.71075344, -0.6995152, 0.07364755, -0.009170966
312, 163960026, 0.71088195, -0.6995579, 0.07218196, -0.0074624787
313, 163976693, 0.7109395, -0.69967616, 0.07060348, -0.005803056
314, 163993360, 0.71090394, -0.69989216, 0.06891947, -0.004114041
315, 164010027, 0.7110517, -0.6999064, 0.06731076, -0.0024416787
316, 164026694, 0.71117896, -0.6998587, 0.066487454, -0.0013668938
317, 164043361, 0.7111586, -0.6998692, 0.06660288, -9.1002753E-4
318, 164060028, 0.71112406, -0.6998915, 0.06673981, -6.9598353E-4
319, 164076695, 0.71118295, -0.6998522, 0.066526584, -2.8972366E-4
320, 164093362, 0.71135753, -0.6997098, 0.06615675, 3.287985E-4
321, 164110029, 0.7114353, -0.69962895, 0.06617014, 8.4993977E-4
322, 164126696, 0.7113855, -0.6996503, 0.06647378, 0.0013043873
323, 164143363, 0.7114532, -0.6995603, 0.066686496, 0.001676002
324, 164160030, 0.71151894, -0.6995056, 0.06654555, 0.0021104838
325, 164176697, 0.7116399, -0.6994167, 0.06616364, 0.0027400362
326, 164193364, 0.71181786, -0.6992512, 0.06597896, 0.0031535632
327, 164210031, 0.71194965, -0.6990916, 0.06624362, 0.0032360204
328, 164226698, 0.7119532, -0.69903374, 0.06681295, 0.0032696635
329, 164243365, 0.7119766, -0.6989812, 0.06709562, 0.0035965156
330, 164260032, 0.71210563, -0.69885874, 0.06698093, 0.0039844806
331, 164276699, 0.7122758, -0.6987142, 0.066653304, 0.0043793274
332, 164293366, 0.7124983, -0.6985208, 0.06627247, 0.004811399
333, 164310033, 0.7126783, -0.69838095, 0.06577722, 0.00520322
334, 164326700, 0.71294206, -0.698153, 0.06530963, 0.0055492898
335, 164343367, 0.7131236, -0.6979509, 0.065489694, 0.005527605
336, 164360034, 0.71321934, -0.6977805, 0.06627474, 0.0053348327
337, 164376701, 0.7132526, -0.6976801, 0.06699126, 0.0050325966
338, 164393368, 0.7132062, -0.6977138, 0.06717486, 0.0044725826
339, 164410035, 0.71335435, -0.6976065, 0.0667477, 0.0039530736
340, 164426702, 0.71368057, -0.69733965, 0.06606854, 0.0035406593
341, 164443369, 0.713952, -0.69712025, 0.06545881, 0.0033555094
342, 164460036, 0.71417475, -0.69692034, 0.065156505, 0.0033554735
343, 164476703, 0.7144143, -0.6966719, 0.06519164, 0.003264765
344, 164493370, 0.7147074, -0.696343, 0.06549668, 0.0031949705
345, 164510037, 0.7150433, -0.6959347, 0.06618539, 0.0027545688
346, 164526704, 0.7153584, -0.69555473, 0.06679241, 0.002212346
347, 164543371, 0.71581393, -0.6950703, 0.06696519, 0.0018510972
348, 164560038, 0.7165129, -0.6943293, 0.067189865, 0.0012912
349, 164576705, 0.7176692, -0.6930654, 0.06790656, 3.795395E-4
350, 164593372, 0.71914715, -0.6915032, 0.068194345, -6.8028667E-4
351, 164610039, 0.7209501, -0.68977463, 0.06664265, -9.166167E-4
352, 164626706, 0.7232153, -0.68766814, 0.0638132, -5.028858E-4
353, 164643373, 0.72588766, -0.6850852, 0.061196532, -6.47071E-4
354, 164660040, 0.7289237, -0.6820585, 0.058864895, -0.0012707247
355, 164676707, 0.73250294, -0.6784573, 0.055976514, -0.0013461616
356, 164693374, 0.73661524, -0.6742608, 0.05262817, -8.5109554E-4
357, 164710041, 0.7410664, -0.6696058, 0.049482327, -5.0291757E-4
358, 164726708, 0.7457639, -0.6645764, 0.04663075, -2.9131165E-4
359, 164743375, 0.75075686, -0.659104, 0.04411533, -2.1434895E-4
360, 164760042, 0.7561845, -0.65302014, 0.04183259, -2.7220708E-4
361, 164776709, 0.76196986, -0.6463915, 0.039748464, -4.295535E-4
362, 164793376, 0.7680797, -0.639249, 0.037605815, -4.968099E-4
363, 164810043, 0.7744732, -0.6316065, 0.035554152, -6.995368E-4
364, 164826710, 0.7810641, -0.6235571, 0.03339061, -7.826207E-4
365, 164843377, 0.7878595, -0.6150417, 0.031634275, -8.8429963E-4
366, 164860044, 0.7947304, -0.6061966, 0.03046396, -0.0012248668
367, 164876711, 0.8016601, -0.5970232, 0.029995281, -0.0021906856
368, 164893378, 0.80865633, -0.5875297, 0.029544516, -0.003359097
369, 164910045, 0.8158168, -0.57756305, 0.029062862, -0.004385813
370, 164926712, 0.8231199, -0.56709313, 0.029147845, -0.00543525
371, 164943379, 0.8303462, -0.5563875, 0.030179638, -0.006886332
372, 164960046, 0.83732533, -0.5457561, 0.031124996, -0.008252837
373, 164976713, 0.84427035, -0.5349291, 0.03122184, -0.009152896
374, 164993380, 0.85132754, -0.5236214, 0.031098027, -0.0097708525
375, 165010047, 0.85846245, -0.5117892, 0.031653937, -0.0105917435
376, 165026714, 0.86534995, -0.49992517, 0.033210985, -0.011893456
377, 165043381, 0.8719818, -0.48819855, 0.033834897, -0.01285897
378, 165060048, 0.8785926, -0.47624052, 0.033088386, -0.013233075
379, 165076715, 0.8852613, -0.46379223, 0.032045666, -0.013502443
380, 165093382, 0.8917832, -0.4510704, 0.032364447, -0.014518822
381, 165110049, 0.89797866, -0.43848687, 0.03333778, -0.015882554
382, 165126716, 0.9039699, -0.42598754, 0.03304227, -0.016774816
383, 165143383, 0.9098325, -0.41333783, 0.032399625, -0.017525187
384, 165160050, 0.91558206, -0.4004167, 0.03231388, -0.018219
385, 165176717, 0.9211007, -0.3875219, 0.032275755, -0.018941885
386, 165193384, 0.9264243, -0.37474763, 0.030524554, -0.019247936
387, 165210051, 0.9316725, -0.36174944, 0.027431538, -0.01927565
388, 165226718, 0.93675715, -0.3484608, 0.025981579, -0.019657377
389, 165243385, 0.94154066, -0.33517307, 0.027105613, -0.02063086
390, 165260052, 0.94596493, -0.3221832, 0.029442646, -0.021950642
391, 165276719, 0.9502122, -0.30931085, 0.030158853, -0.022672629
392, 165293386, 0.9543683, -0.2962903, 0.029548286, -0.022802498
393, 165310053, 0.95836896, -0.28305593, 0.02964885, -0.02300728
394, 165326720, 0.96205103, -0.2699147, 0.03218624, -0.02383606
395, 165343387, 0.9653915, -0.25728473, 0.034866616, -0.024660042
396, 165360054, 0.9685823, -0.24482735, 0.035841756, -0.024967728
397, 165376721, 0.9716062, -0.23250058, 0.036022015, -0.025046898
398, 165393388, 0.9743449, -0.220511, 0.037187792, -0.025378639
399, 165410055, 0.9768428, -0.20885909, 0.03858164, -0.025837274
400, 165426722, 0.9791464, -0.1976452, 0.039045896, -0.026155788
401, 165443389, 0.9812729, -0.18680821, 0.038923886, -0.02629323
402, 165460056, 0.98315036, -0.1763492, 0.04003131, -0.026718132
403, 165476723, 0.98480666, -0.16634567, 0.041616093, -0.027440261
404, 165493390, 0.98631376, -0.15683745, 0.042271357, -0.028293569
405, 165510057, 0.9877472, -0.14743268, 0.04210997, -0.029087199
406, 165526724, 0.9890145, -0.13829404, 0.042838246, -0.0298358
407, 165543391, 0.99009794, -0.12964836, 0.04422384, -0.030686133
408, 165560058, 0.9910626, -0.12143709, 0.045236178, -0.031651374
409, 165576725, 0.9919624, -0.1134787, 0.04555501, -0.032530054
410, 165593392, 0.9927372, -0.105937086, 0.046224445, -0.033372335
411, 165610059, 0.99337524, -0.098944105, 0.0474578, -0.034111537
412, 165626726, 0.99395937, -0.0922742, 0.048073173, -0.034917627
413, 165643393, 0.99449986, -0.08582336, 0.048192807, -0.035805322
414, 165660060, 0.9950033, -0.07944388, 0.048201695, -0.036523588
415, 165676727, 0.99543345, -0.073458776, 0.048458267, -0.036983807
416, 165693394, 0.9957887, -0.067990474, 0.04883456, -0.037379798
417, 165710061, 0.9961173, -0.062822916, 0.048760056, -0.03776727
418, 165726728, 0.99645144, -0.057816677, 0.04786399, -0.03809138
419, 165743395, 0.9967486, -0.05292224, 0.047126453, -0.03835417
420, 165760062, 0.9969571, -0.048254162, 0.04747565, -0.0386599
421, 165776729, 0.9971133, -0.04414869, 0.04787694, -0.039039146
422, 165793396, 0.9972574, -0.04052725, 0.047608905, -0.03960363
423, 165810063, 0.9973856, -0.03719632, 0.047146615, -0.04019447
424, 165826730, 0.9974971, -0.033995423, 0.046850126, -0.040608693
425, 165843397, 0.99758273, -0.030952338, 0.046882853, -0.040902045
426, 165860064, 0.9976499, -0.02830798, 0.046992075, -0.04104962
427, 165876731, 0.9977404, -0.026137063, 0.046323843, -0.041049413
428, 165893398, 0.9978254, -0.02428142, 0.045637026, -0.040894024
429, 165910065, 0.99784935, -0.022964906, 0.04598686, -0.04067889
430, 165926732, 0.9978335, -0.022427322, 0.046874985, -0.04035003
431, 165943399, 0.99780744, -0.022436403, 0.04772822, -0.039986193
432, 165960066, 0.99779844, -0.022824287, 0.048216842, -0.03940175
433, 165976733, 0.9978067, -0.023448175, 0.04826237, -0.038766433
434, 165993400, 0.9978206, -0.024335658, 0.04786936, -0.0383443
435, 166010067, 0.99785095, -0.025157588, 0.046843342, -0.038293608
436, 166026734, 0.9979461, -0.025909113, 0.044379774, -0.038246743
437, 166043401, 0.99806154, -0.026502041, 0.04146597, -0.03809788
438, 166060068, 0.9981189, -0.027073877, 0.039903488, -0.037863154
439, 166076735, 0.9981154, -0.027854282, 0.039737683, -0.037560713
440, 166093402, 0.9981056, -0.028745478, 0.03962104, -0.03727315
441, 166110069, 0.9981234, -0.029541843, 0.03890573, -0.03692364
442, 166126736, 0.9981645, -0.030136198, 0.037697766, -0.036587868
443, 166143403, 0.99822277, -0.030496344, 0.03612156, -0.036283333
444, 166160070, 0.99829245, -0.030843943, 0.034083933, -0.036045577
445, 166176737, 0.99836516, -0.030976208, 0.032049526, -0.035783045
446, 166193404, 0.9984156, -0.030843087, 0.03091032, -0.035493203
447, 166210071, 0.99844337, -0.030639747, 0.03061442, -0.03514277
448, 166226738, 0.9984346, -0.030623848, 0.031203343, -0.034888797
449, 166243405, 0.9984241, -0.030686839, 0.031623866, -0.034751173
450, 166260072, 0.9984175, -0.030712401, 0.031706147, -0.034842078
451, 166276739, 0.9984108, -0.030654961, 0.03182107, -0.034979943
452, 166293406, 0.9983879, -0.030678788, 0.032416992, -0.035068408
453, 166310073, 0.9983646, -0.030828333, 0.03292329, -0.035127558
454, 166326740, 0.9983525, -0.030999707, 0.033088632, -0.035165444
455, 166343407, 0.9983472, -0.031135872, 0.033174943, -0.03511293
456, 166360074, 0.9983292, -0.031254712, 0.033805657, -0.034917686
457, 166376741, 0.9982972, -0.031397752, 0.03478877, -0.034738712
458, 166393408, 0.99828005, -0.031567138, 0.035394374, -0.034462385
459, 166410075, 0.99827164, -0.03170899, 0.035759684, -0.034203984
460, 166426742, 0.99826777, -0.031819955, 0.03600071, -0.033955727
461, 166443409, 0.99826616, -0.03185843, 0.036279827, -0.033669487
462, 166460076, 0.9982446, -0.03191242, 0.037037767, -0.033433557
463, 166476743, 0.9982276, -0.032023408, 0.03760197, -0.033203863
464, 166493410, 0.99821395, -0.0322333, 0.03788721, -0.033083666
465, 166510077, 0.99817145, -0.032635372, 0.03870524, -0.0330238
466, 166526744, 0.9980962, -0.033027302, 0.0403755, -0.032910675
467, 166543411, 0.99802226, -0.033255666, 0.04221591, -0.032613352
468, 166560078, 0.99795187, -0.033270687, 0.04422719, -0.032078426
469, 166576745, 0.9978441, -0.03324907, 0.047160275, -0.03126577
470, 166593412, 0.9977112, -0.03296311, 0.05075302, -0.030170346
471, 166610079, 0.9975733, -0.03239997, 0.054502197, -0.028762504
472, 166626746, 0.997405, -0.031737734, 0.05865112, -0.02713291
473, 166643413, 0.99716336, -0.03102763, 0.063745566, -0.025284221
474, 166660080, 0.99684715, -0.030427154, 0.06950575, -0.023218462
475, 166676747, 0.996495, -0.0301879, 0.07513678, -0.021001771
476, 166693414, 0.9961269, -0.030430852, 0.08023906, -0.019160531
477, 166710081, 0.9957557, -0.030968592, 0.084849335, -0.017671611
478, 166726748, 0.9952063, -0.032057084, 0.091005825, -0.015963774
479, 166743415, 0.9944041, -0.03295437, 0.099391185, -0.014010381
480, 166760082, 0.9934184, -0.03368103, 0.10883017, -0.011896925
481, 166776749, 0.99240774, -0.034188386, 0.117736, -0.009822496
482, 166793416, 0.9912363, -0.034511775, 0.12729277, -0.007501445
483, 166810083, 0.9898082, -0.034599766, 0.13806242, -0.004663511
484, 166826750, 0.9880684, -0.034417495, 0.15011682, -0.0011631786
485, 166843417, 0.9860169, -0.03430927, 0.16304803, 0.0030191464
486, 166860084, 0.9835497, -0.03392339, 0.17724945, 0.007877993
487, 166876751, 0.98089343, -0.033398204, 0.1911954, 0.01331231
488, 166893418, 0.9782117, -0.032392014, 0.20417611, 0.01910294
489, 166910085, 0.9753242, -0.030898957, 0.21708204, 0.025763907
490, 166926752, 0.97198534, -0.029391866, 0.23084809, 0.03301188
491, 166943419, 0.96803594, -0.027843399, 0.24584337, 0.04113701
492, 166960086, 0.9636517, -0.02622598, 0.26115873, 0.049838684
493, 166976753, 0.9592977, -0.024142794, 0.27511126, 0.05898165
494, 166993420, 0.95509994, -0.021387925, 0.28750405, 0.06832337
495, 167010087, 0.95076764, -0.018614745, 0.2993059, 0.078170866
496, 167026754, 0.9462184, -0.016208854, 0.31078064, 0.088450655
497, 167043421, 0.9411562, -0.013583047, 0.32274294, 0.099386565
498, 167060088, 0.93571484, -0.010574924, 0.3348038, 0.1105999
499, 167076755, 0.9303399, -0.0072288103, 0.34576544, 0.121908754
500, 167093422, 0.9248431, -0.0032743225, 0.35614794, 0.13346711
501, 167110089, 0.9188751, 0.0010128054, 0.3668402, 0.14524521
502, 167126756, 0.912774, 0.00526856, 0.37695724, 0.15722379
503, 167143423, 0.90682435, 0.009372376, 0.38591602, 0.16926548
504, 167160090, 0.9006977, 0.013457887, 0.39438412, 0.18172503
505, 167176757, 0.8938655, 0.01790511, 0.4034786, 0.19465074
506, 167193424, 0.8866236, 0.022395905, 0.41262314, 0.20770024
507, 167210091, 0.87941116, 0.026860308, 0.42125726, 0.2201293
508, 167226758, 0.8722173, 0.03121065, 0.42933777, 0.2322335
509, 167243425, 0.86441237, 0.035644148, 0.43772542, 0.24478032
510, 167260092, 0.8559565, 0.04052727, 0.4463773, 0.25776643
511, 167276759, 0.8473902, 0.045795325, 0.4546842, 0.2703614
512, 167293426, 0.83917785, 0.050500743, 0.46177462, 0.282833
513, 167310093, 0.83101904, 0.055984907, 0.468129, 0.29517484
514, 167326760, 0.82271457, 0.06187178, 0.47420216, 0.3073194
515, 167343427, 0.8142528, 0.06820055, 0.4801629, 0.31903762
516, 167360094, 0.8057802, 0.07486922, 0.48591858, 0.33014575
517, 167376761, 0.79604733, 0.08008076, 0.49301022, 0.34181425
518, 167393428, 0.7846017, 0.08445146, 0.50171566, 0.35432988
519, 167410095, 0.77343214, 0.08996957, 0.50929254, 0.36650985
520, 167426762, 0.7639637, 0.097513825, 0.514486, 0.37703457
521, 167443429, 0.75473464, 0.105554074, 0.51953775, 0.38641247
522, 167460096, 0.74467975, 0.11289368, 0.5252278, 0.39603403
523, 167476763, 0.7339348, 0.119594, 0.53109556, 0.4061706
524, 167493430, 0.72325283, 0.12668702, 0.53652525, 0.41592845
525, 167510097, 0.714069, 0.13519798, 0.54038316, 0.42404372
526, 167526764, 0.70558286, 0.1445613, 0.5435929, 0.4310009
527, 167543431, 0.6961649, 0.15280963, 0.5477717, 0.43812078
528, 167560098, 0.6862799, 0.15986449, 0.55226433, 0.44549686
529, 167576765, 0.6764385, 0.1660607, 0.5566837, 0.45272318
530, 167593432, 0.6669841, 0.17305806, 0.559883, 0.4601241
531, 167610099, 0.65871745, 0.18082695, 0.56156474, 0.46694544
532, 167626766, 0.65191835, 0.18955067, 0.56210804, 0.4723427
533, 167643433, 0.64407945, 0.19667959, 0.5638825, 0.47803298
534, 167660100, 0.6354202, 0.20237252, 0.5662937, 0.4843536
535, 167676767, 0.6269916, 0.20724235, 0.5683123, 0.49087
536, 167693434, 0.61872256, 0.21097043, 0.5703768, 0.4973371
537, 167710101, 0.6115903, 0.21503867, 0.5713595, 0.50325346
538, 167726768, 0.60533285, 0.2186815, 0.5717743, 0.50874823
539, 167743435, 0.5991998, 0.22182843, 0.57177436, 0.5146125
540, 167760102, 0.5928462, 0.22421265, 0.5717079, 0.52097243
541, 167776769, 0.586654, 0.22655149, 0.5712555, 0.5274265
542, 167793436, 0.58178383, 0.2296023, 0.5700131, 0.5328184
543, 167810103, 0.576776, 0.23248012, 0.5688283, 0.5382535
544, 167826770, 0.57186407, 0.23543818, 0.56733835, 0.5437534
545, 167843437, 0.5670444, 0.2386319, 0.56611073, 0.548666
546, 167860104, 0.56213105, 0.24140534, 0.5653344, 0.5532896
547, 167876771, 0.55709153, 0.24399364, 0.56454927, 0.55803275
548, 167893438, 0.5525998, 0.24716783, 0.5633358, 0.5623117
549, 167910105, 0.5487384, 0.25102526, 0.5620184, 0.5656925
550, 167926772, 0.5438501, 0.25409055, 0.5614101, 0.5696346
551, 167943439, 0.53939956, 0.25767413, 0.5604671, 0.5731744
552, 167960106, 0.5355762, 0.26155287, 0.5593712, 0.5760662
553, 167976773, 0.531406, 0.26471847, 0.55844456, 0.57937175
554, 167993440, 0.5282809, 0.26866302, 0.55698943, 0.5818095
555, 168010107, 0.52483106, 0.2721279, 0.5559585, 0.5843022
556, 168026774, 0.52126914, 0.2751577, 0.5551562, 0.5868292
557, 168043441, 0.519293, 0.27944285, 0.5532107, 0.5883913
558, 168060108, 0.517397, 0.28298116, 0.55149883, 0.5899753
559, 168076775, 0.51508486, 0.2851832, 0.5504879, 0.59187955
560, 168093442, 0.5128013, 0.2866354, 0.5497765, 0.59381884
561, 168110109, 0.51105845, 0.2882658, 0.5489681, 0.5952782
562, 168126776, 0.50999224, 0.2900614, 0.5479047, 0.59629935
563, 168143443, 0.5094869, 0.292006, 0.54674596, 0.5968456
564, 168160110, 0.50866777, 0.29298842, 0.54601324, 0.59773266
565, 168176777, 0.5077818, 0.29357728, 0.5454423, 0.5987177
566, 168193444, 0.50741225, 0.2942668, 0.54460543, 0.59945375
567, 168210111, 0.5072657, 0.2951321, 0.54359305, 0.600071
568, 168226778, 0.5070207, 0.29581022, 0.5426111, 0.60083234
569, 168243445, 0.5065478, 0.29562402, 0.54215723, 0.60173184
570, 168260112, 0.50616896, 0.29511937, 0.5418639, 0.60256225
571, 168276779, 0.5057198, 0.2945919, 0.54160565, 0.6034289
572, 168293446, 0.504983, 0.29385108, 0.54122156, 0.6047506
573, 168310113, 0.5044247, 0.29341558, 0.5404979, 0.6060735
574, 168326780, 0.5039986, 0.29289836, 0.53969127, 0.6073956
575, 168343447, 0.5038986, 0.29213402, 0.53890043, 0.6085476
576, 168360114, 0.5040127, 0.29163155, 0.5381164, 0.6093875
577, 168376781, 0.5039759, 0.29115364, 0.53745914, 0.6102258
578, 168393448, 0.5038982, 0.2908214, 0.53679067, 0.61103636
579, 168410115, 0.50395375, 0.2903497, 0.536227, 0.6117095
580, 168426782, 0.5042828, 0.290128, 0.5356444, 0.6120539
581, 168443449, 0.5045159, 0.28995842, 0.53524935, 0.61228764
582, 168460116, 0.5045776, 0.28992108, 0.53484243, 0.61261004
583, 168476783, 0.5045069, 0.29028785, 0.5343502, 0.6129239
584, 168493450, 0.5040573, 0.29016528, 0.5342681, 0.6134232
585, 168510117, 0.5038155, 0.290217, 0.5341959, 0.6136603
586, 168526784, 0.50393516, 0.29099235, 0.53393835, 0.613419
587, 168543451, 0.50364995, 0.29139477, 0.5340359, 0.6133771
588, 168560118, 0.50302184, 0.29160002, 0.5342602, 0.61359966
589, 168576785, 0.5025932, 0.2921163, 0.53427285, 0.61369437
590, 168593452, 0.50247073, 0.29274634, 0.53413355, 0.6136156
591, 168610119, 0.502612, 0.29353926, 0.53383976, 0.6133768
592, 168626786, 0.5029342, 0.29448372, 0.53351843, 0.61293936
593, 168643453, 0.502738, 0.29481667, 0.5334015, 0.61304206
594, 168660120, 0.5024284, 0.29521966, 0.53320426, 0.6132734
595, 168676787, 0.50222534, 0.29564303, 0.5328961, 0.6135036
596, 168693454, 0.5020235, 0.2957149, 0.5326614, 0.61383784
597, 168710121, 0.5019082, 0.29546496, 0.53248096, 0.614209
598, 168726788, 0.50215036, 0.29542324, 0.5321787, 0.61429304
599, 168743455, 0.5023295, 0.29514253, 0.5320392, 0.61440223
600, 168760122, 0.50252336, 0.29473272, 0.53196657, 0.6145036
601, 168776789, 0.50274146, 0.29412284, 0.5321018, 0.6145003
602, 168793456, 0.5031547, 0.29339343, 0.53237504, 0.614274
603, 168810123, 0.504144, 0.29301602, 0.5324836, 0.61354864
604, 168826790, 0.505468, 0.29268613, 0.5326119, 0.6125045
605, 168843457, 0.50685704, 0.2919031, 0.532998, 0.61139303
606, 168860124, 0.50837153, 0.29053536, 0.53362083, 0.610243
607, 168876791, 0.5106025, 0.28933272, 0.53409797, 0.6085318
608, 168893458, 0.5136012, 0.28820875, 0.5343858, 0.6062851
609, 168910125, 0.51700944, 0.28654572, 0.5346542, 0.6039353
610, 168926792, 0.5208365, 0.2843715, 0.53490734, 0.6014454
611, 168943459, 0.5252912, 0.28226465, 0.5347373, 0.59870857
612, 168960126, 0.53031456, 0.280038, 0.53434175, 0.59567136
613, 168976793, 0.5360658, 0.27813005, 0.5333938, 0.5922571
614, 168993460, 0.5425319, 0.27602986, 0.5321661, 0.5884435
615, 169010127, 0.54979414, 0.27404994, 0.53063893, 0.58399117
616, 169026794, 0.55743366, 0.2715804, 0.5293123, 0.5790859
617, 169043461, 0.56572497, 0.26904637, 0.5277826, 0.5735982
618, 169060128, 0.5752135, 0.26712498, 0.5250957, 0.56749284
619, 169076795, 0.5856924, 0.2655059, 0.5215109, 0.56080085
620, 169093462, 0.5959518, 0.26332256, 0.5180365, 0.55420303
621, 169110129, 0.60617024, 0.26052055, 0.5145723, 0.54763335
622, 169126796, 0.61729497, 0.2583425, 0.51072323, 0.5397851
623, 169143463, 0.62998086, 0.25735095, 0.5058668, 0.5300881
624, 169160130, 0.64337236, 0.2564576, 0.4996676, 0.5202249
625, 169176797, 0.6559729, 0.25436163, 0.4930753, 0.51173884
626, 169193464, 0.6669468, 0.24977462, 0.48758614, 0.50502914
627, 169210131, 0.67715305, 0.24370095, 0.48319742, 0.4985923
628, 169226798, 0.6886597, 0.23862292, 0.47824872, 0.48998478
629, 169243465, 0.7021015, 0.23584935, 0.47126287, 0.4788944
630, 169260132, 0.71584564, 0.23344892, 0.46303335, 0.46761855
631, 169276799, 0.72812176, 0.22865254, 0.4550705, 0.45876762
632, 169293466, 0.73984164, 0.22239925, 0.44659156, 0.45136365
633, 169310133, 0.7519285, 0.21532618, 0.4378345, 0.44332758
634, 169326800, 0.764022, 0.20815173, 0.42994887, 0.4336907
635, 169343467, 0.77502954, 0.20045653, 0.42293224, 0.42458776
636, 169360134, 0.78643084, 0.19258548, 0.41407597, 0.41590694
637, 169376801, 0.7998017, 0.18655361, 0.4019536, 0.4049056
638, 169393468, 0.8141551, 0.18129003, 0.38845736, 0.39164567
639, 169410135, 0.8274879, 0.17520745, 0.37629277, 0.37811366
640, 169426802, 0.8393924, 0.16877109, 0.36507052, 0.36559576
641, 169443469, 0.8513562, 0.1624698, 0.351993, 0.35340837
642, 169460136, 0.8645411, 0.15715927, 0.33518112, 0.3398872
643, 169476803, 0.8791088, 0.15361905, 0.3142385, 0.32376423
644, 169493470, 0.8919531, 0.14860019, 0.29641527, 0.30736902
645, 169510137, 0.9023592, 0.1411691, 0.28247392, 0.2933049
646, 169526804, 0.9115978, 0.13151802, 0.26892126, 0.2817337
647, 169543471, 0.92141, 0.122019686, 0.25221366, 0.26926404
648, 169560138, 0.93238956, 0.11454557, 0.23065041, 0.25363272
649, 169576805, 0.9425975, 0.10826363, 0.20951785, 0.23641385
650, 169593472, 0.95141244, 0.10202354, 0.19025943, 0.21956128
651, 169610139, 0.9586783, 0.09432201, 0.17369832, 0.20461765
652, 169626806, 0.96500707, 0.0864082, 0.15698522, 0.19144432
653, 169643473, 0.9708906, 0.07759427, 0.14126837, 0.17718379
654, 169660140, 0.9756838, 0.06866919, 0.13000579, 0.16255532
655, 169676807, 0.9796578, 0.060559843, 0.12070456, 0.14843683
656, 169693474, 0.98313814, 0.051925648, 0.11235461, 0.13460897
657, 169710141, 0.9864889, 0.044158984, 0.10126056, 0.12098004
658, 169726808, 0.98945785, 0.037101757, 0.08961361, 0.10754551
659, 169743475, 0.99170464, 0.02958338, 0.08196643, 0.094490565
660, 169760142, 0.9934825, 0.022524271, 0.076242924, 0.08168511
661, 169776809, 0.9949676, 0.015862662, 0.070360534, 0.06954941
662, 169793476, 0.996165, 0.008659586, 0.06554421, 0.05730858
663, 169810143, 0.9972221, 0.0023201774, 0.05898803, 0.045420766
664, 169826810, 0.99810475, -0.003382187, 0.05155456, 0.03343212
665, 169843477, 0.99873215, -0.008748633, 0.044460144, 0.021931805
666, 169860144, 0.9990311, -0.013588772, 0.040371917, 0.011065995
667, 169876811, 0.99913454, -0.018054234, 0.03746435, 8.0033485E-4
668, 169893478, 0.9990874, -0.022301413, 0.035348848, -0.008807744
669, 169910145, 0.9988898, -0.02625918, 0.03465579, -0.018133253
670, 169926812, 0.99865943, -0.030072609, 0.032741927, -0.026516814
671, 169943479, 0.9983362, -0.03398037, 0.03131596, -0.034491748
672, 169960146, 0.99795467, -0.03786096, 0.030141454, -0.041769557
673, 169976813, 0.99756485, -0.041055724, 0.0285942, -0.048594013
674, 169993480, 0.9971395, -0.044057917, 0.027842142, -0.05473993
675, 170010147, 0.9967308, -0.047076356, 0.027215205, -0.0597576
676, 170026814, 0.9963241, -0.05025549, 0.027233781, -0.06380479
677, 170043481, 0.9960107, -0.05232889, 0.02721643, -0.06696109
678, 170060148, 0.9956883, -0.05423375, 0.027988417, -0.069858454
679, 170076815, 0.9954111, -0.055980932, 0.029031465, -0.07197362
680, 170093482, 0.995208, -0.05738003, 0.029612802, -0.07342938
681, 170110149, 0.99506736, -0.058809258, 0.02967867, -0.07417404
682, 170126816, 0.99495643, -0.060036734, 0.02999988, -0.07454817
683, 170143483, 0.9948492, -0.060844272, 0.031400766, -0.07474779
684, 170160150, 0.9948113, -0.061301302, 0.031915843, -0.07465866
685, 170176817, 0.99480754, -0.062091216, 0.030975001, -0.07445465
686, 170193484, 0.99481314, -0.06294607, 0.029401975, -0.07429994
687, 170210151, 0.994823, -0.06385409, 0.028019678, -0.07392589
688, 170226818, 0.9947944, -0.06466213, 0.028294519, -0.07350032
689, 170243485, 0.9947248, -0.06517036, 0.030045375, -0.07329869
690, 170260152, 0.99462926, -0.06569091, 0.031951856, -0.07332375
691, 170276819, 0.9945547, -0.066436745, 0.032631554, -0.07336535
692, 170293486, 0.9944791, -0.06726188, 0.03321336, -0.07337638
693, 170310153, 0.9943958, -0.06799986, 0.034257837, -0.073346585
694, 170326820, 0.9943231, -0.06859503, 0.034951225, -0.07345133
695, 170343487, 0.9942442, -0.06914747, 0.035318773, -0.073822685
696, 170360154, 0.994187, -0.06970851, 0.03543664, -0.07400939
697, 170376821, 0.99412835, -0.07026514, 0.03598714, -0.07400565
698, 170393488, 0.99404895, -0.070665576, 0.037448224, -0.073965564
699, 170410155, 0.99394405, -0.070993364, 0.039526414, -0.0739798
700, 170426822, 0.993814, -0.071441665, 0.041693885, -0.07410655
701, 170443489, 0.9937168, -0.072140954, 0.04268815, -0.07416546
702, 170460156, 0.9936547, -0.07286787, 0.04307111, -0.07406453
703, 170476823, 0.99362737, -0.073266655, 0.0437399, -0.07364556
704, 170493490, 0.9936527, -0.07317026, 0.044779237, -0.07276961
705, 170510157, 0.99367577, -0.07278957, 0.04643646, -0.07178961
706, 170526824, 0.9936983, -0.07238445, 0.048059568, -0.070813976
707, 170543491, 0.9937406, -0.07178041, 0.04928729, -0.06998583
708, 170560158, 0.99382067, -0.071164496, 0.04967573, -0.0691994
709, 170576825, 0.99387777, -0.07077187, 0.0497051, -0.068759196
710, 170593492, 0.99388355, -0.07040064, 0.04989614, -0.068919756
711, 170610159, 0.9938521, -0.07004057, 0.050194692, -0.06951928
712, 170626826, 0.99379283, -0.069730915, 0.050751235, -0.07026912
713, 170643493, 0.9936976, -0.06951576, 0.051776566, -0.071078375
714, 170660160, 0.99356973, -0.06959715, 0.05273241, -0.07207453
715, 170676827, 0.9934342, -0.069781676, 0.05336159, -0.073293015
716, 170693494, 0.99330556, -0.06990073, 0.05397922, -0.074461974
717, 170710161, 0.9931687, -0.06997359, 0.055164106, -0.07534295
718, 170726828, 0.99298805, -0.06997568, 0.05732837, -0.07610317
719, 170743495, 0.99274683, -0.06993637, 0.060461547, -0.07685937
720, 170760162, 0.9924597, -0.069877334, 0.0642891, -0.077510856
721, 170776829, 0.9922077, -0.06957047, 0.067905344, -0.07792847
722, 170793496, 0.99202216, -0.06933636, 0.07055129, -0.078147024
723, 170810163, 0.99188167, -0.06930923, 0.07230383, -0.078352794
724, 170826830, 0.9917941, -0.06927286, 0.073271215, -0.07859535
725, 170843497, 0.9917576, -0.06923271, 0.073747605, -0.07864605
726, 170860164, 0.99174327, -0.06897484, 0.0746325, -0.07821704
727, 170876831, 0.9916823, -0.06851899, 0.07704228, -0.07704465
728, 170893498, 0.9914722, -0.06805567, 0.08182787, -0.07520409
729, 170910165, 0.99121076, -0.06729333, 0.08739015, -0.07304798
730, 170926832, 0.9911181, -0.066304445, 0.09139117, -0.07025967
731, 170943499, 0.99119437, -0.06520407, 0.093849696, -0.06689217
732, 170960166, 0.99141395, -0.06392982, 0.09528114, -0.062714934
733, 170976833, 0.9916635, -0.062087607, 0.09712779, -0.05757448
734, 170993500, 0.9919588, -0.05981928, 0.09906141, -0.051247664
735, 171010167, 0.99232143, -0.057410836, 0.100326166, -0.044010684
736, 171026834, 0.9927695, -0.054945868, 0.10043116, -0.03610198
737, 171043501, 0.9931971, -0.05228143, 0.10031505, -0.02762923
738, 171060168, 0.9935862, -0.049490646, 0.09996915, -0.018536313
739, 171076835, 0.9939335, -0.04673969, 0.099156104, -0.008943164
740, 171093502, 0.9941838, -0.044190153, 0.09820845, 0.0010237806
741, 171110169, 0.99422413, -0.041891932, 0.098165974, 0.011254704
742, 171126836, 0.9940997, -0.040128987, 0.098428085, 0.021622568
743, 171143503, 0.99386793, -0.038887713, 0.098464064, 0.03192459
744, 171160170, 0.99358296, -0.037957847, 0.09783289, 0.042203
745, 171176837, 0.9932087, -0.037333988, 0.097006276, 0.05227366
746, 171193504, 0.9927805, -0.03693057, 0.09563924, 0.062259693
747, 171210171, 0.9921863, -0.03665769, 0.09479507, 0.072364375
748, 171226838, 0.99132466, -0.036737278, 0.095361255, 0.08265635
749, 171243505, 0.9903157, -0.037130427, 0.09601879, 0.093149215
750, 171260172, 0.98926026, -0.037452932, 0.095745414, 0.103895694
751, 171276839, 0.9880842, -0.037661448, 0.09524134, 0.11489294
752, 171293506, 0.9867714, -0.03801919, 0.094404146, 0.12619318
753, 171310173, 0.98536587, -0.038248293, 0.09280589, 0.13776205
754, 171326840, 0.98375887, -0.038137555, 0.09155011, 0.14960861
755, 171343507, 0.98190325, -0.037891064, 0.090741746, 0.16185252
756, 171360174, 0.9798354, -0.037712824, 0.09007715, 0.17431754
757, 171376841, 0.9776701, -0.037333347, 0.08876946, 0.18678261
758, 171393508, 0.97530055, -0.0367623, 0.08779012, 0.19932485
759, 171410175, 0.97267973, -0.03629713, 0.08698741, 0.21215618
760, 171426842, 0.96989167, -0.035987712, 0.086042374, 0.22497119
761, 171443509, 0.96703404, -0.03525424, 0.084257506, 0.2377035
762, 171460176, 0.96400696, -0.03440315, 0.08238943, 0.2504375
763, 171476843, 0.9608126, -0.033805575, 0.08073301, 0.26301846
764, 171493510, 0.95751196, -0.03354049, 0.0791683, 0.2752786
765, 171510177, 0.95411146, -0.033503238, 0.077722654, 0.28724223
766, 171526844, 0.95053834, -0.03345554, 0.076615654, 0.29914474
767, 171543511, 0.94675577, -0.033647623, 0.07639643, 0.3109423
768, 171560178, 0.9427898, -0.034376908, 0.0768993, 0.3225715
769, 171576845, 0.9387242, -0.03504649, 0.07729461, 0.33405757
770, 171593512, 0.93456304, -0.035477594, 0.07759133, 0.3454173
771, 171610179, 0.93025804, -0.035970684, 0.07824778, 0.35665587
772, 171626846, 0.92570955, -0.036794703, 0.07978161, 0.36789012
773, 171643513, 0.9209015, -0.038293537, 0.08304704, 0.37891614
774, 171660180, 0.9159993, -0.04049412, 0.087460205, 0.38943133
775, 171676847, 0.911173, -0.042835295, 0.09151639, 0.39944184
776, 171693514, 0.9064746, -0.044956744, 0.09404775, 0.40919197
777, 171710181, 0.9018231, -0.04681221, 0.095804185, 0.41874248
778, 171726848, 0.89719224, -0.04814053, 0.096908495, 0.4281792
779, 171743515, 0.89259094, -0.048814077, 0.09712071, 0.43756858
780, 171760182, 0.88791764, -0.049339294, 0.09723823, 0.44689235
781, 171776849, 0.8832714, -0.04955522, 0.09699041, 0.45603618
782, 171793516, 0.8787439, -0.04905361, 0.095809504, 0.4649984
783, 171810183, 0.874182, -0.048235405, 0.094438076, 0.4738784
784, 171826850, 0.8693614, -0.04785014, 0.094247855, 0.4827408
785, 171843517, 0.86443937, -0.048139535, 0.09467851, 0.49138936
786, 171860184, 0.8598541, -0.047980074, 0.0935298, 0.49960092
787, 171876851, 0.8556377, -0.047375977, 0.09128064, 0.5072549
788, 171893518, 0.8516118, -0.04712302, 0.08919679, 0.51437414
789, 171910185, 0.84760994, -0.04822607, 0.08806782, 0.52103335
790, 171926852, 0.8437512, -0.050028194, 0.087375075, 0.5272064
791, 171943519, 0.8401609, -0.051671058, 0.085999556, 0.5329763
792, 171960186, 0.83672374, -0.053158898, 0.08423592, 0.5384905
793, 171976853, 0.8332701, -0.055148046, 0.08305404, 0.5438031
794, 171993520, 0.8298714, -0.057681553, 0.08215544, 0.54885054
795, 172010187, 0.82668346, -0.059887704, 0.08054047, 0.55364347
796, 172026854, 0.8236597, -0.06123464, 0.078078434, 0.5583358
797, 172043521, 0.82052225, -0.06253459, 0.07582842, 0.5631011
798, 172060188, 0.81727874, -0.06415019, 0.07380664, 0.56788456
799, 172076855, 0.81407946, -0.0653908, 0.07132554, 0.57263577
800, 172093522, 0.81104475, -0.065663815, 0.06777949, 0.577322
801, 172110189, 0.8079721, -0.065328464, 0.06417492, 0.58206105
802, 172126856, 0.80477536, -0.06581486, 0.061884448, 0.58666474
803, 172143523, 0.80174565, -0.066492096, 0.059640873, 0.59095335
804, 172160190, 0.79896945, -0.066604026, 0.056625545, 0.5949834
805, 172176857, 0.79625523, -0.06601179, 0.053219516, 0.59898907
806, 172193524, 0.79352397, -0.0652966, 0.05024162, 0.6029361
807, 172210191, 0.79076743, -0.064725906, 0.04757735, 0.6068228
808, 172226858, 0.7881412, -0.06395204, 0.044144973, 0.61056924
809, 172243525, 0.785678, -0.06243908, 0.040916387, 0.6141151
810, 172260192, 0.7831481, -0.05922021, 0.037956342, 0.6178442
811, 172276859, 0.78087986, -0.054574925, 0.03507747, 0.6213036
812, 172293526, 0.779222, -0.048444986, 0.032057185, 0.6240503
813, 172310193, 0.77804404, -0.041013446, 0.02989888, 0.62615615
814, 172326860, 0.77701646, -0.03308581, 0.029407874, 0.62792206
815, 172343527, 0.7759349, -0.024914106, 0.030604068, 0.62957734
816, 172360194, 0.77486026, -0.015726406, 0.032911398, 0.6310793
817, 172376861, 0.77351904, -0.005311559, 0.03625267, 0.6327132
818, 172393528, 0.7716077, 0.005667342, 0.040995717, 0.634751
819, 172410195, 0.7690795, 0.017244607, 0.04659306, 0.63721937
820, 172426862, 0.7660117, 0.029924585, 0.052257724, 0.6399998
821, 172443529, 0.7626566, 0.044129524, 0.057163846, 0.6427596
822, 172460196, 0.7593955, 0.059112787, 0.06104823, 0.6450563
823, 172476863, 0.75642806, 0.074161544, 0.06423326, 0.6466769
824, 172493530, 0.75358546, 0.08912612, 0.06751622, 0.6477712
825, 172510197, 0.7507549, 0.10334473, 0.07147116, 0.64852047
826, 172526864, 0.7478892, 0.11660631, 0.0761125, 0.6490544
827, 172543531, 0.74511266, 0.12904198, 0.08129586, 0.64926606
828, 172560198, 0.7425425, 0.14121988, 0.08645667, 0.6490091
829, 172576865, 0.74044955, 0.1535455, 0.090805575, 0.6480067
830, 172593532, 0.7387987, 0.16573271, 0.0947623, 0.64631987
831, 172610199, 0.7374023, 0.17751871, 0.0986124, 0.64420545
832, 172626866, 0.73616475, 0.18847974, 0.10251472, 0.64189386
833, 172643533, 0.7350117, 0.1985897, 0.10633178, 0.6395417
834, 172660200, 0.73397845, 0.20824185, 0.10985066, 0.6370589
835, 172676867, 0.7331458, 0.21810454, 0.11274091, 0.6342061
836, 172693534, 0.73254055, 0.22794, 0.114982605, 0.6310362
837, 172710201, 0.73220503, 0.23740631, 0.11692462, 0.62756896
838, 172726868, 0.7319867, 0.24661009, 0.11859523, 0.6239505
839, 172743535, 0.7317494, 0.2552107, 0.12034302, 0.6204255
840, 172760202, 0.73156106, 0.2629516, 0.122285016, 0.6170264
841, 172776869, 0.7314549, 0.27013528, 0.12441333, 0.6136139
842, 172793536, 0.7312302, 0.27726287, 0.12672342, 0.6102205
843, 172810203, 0.73071164, 0.28392762, 0.12967813, 0.60714865
844, 172826870, 0.7300437, 0.28987402, 0.13303818, 0.60440874
845, 172843537, 0.7295023, 0.29535535, 0.1364018, 0.6016529
846, 172860204, 0.7292719, 0.30151504, 0.13859485, 0.59836674
847, 172876871, 0.7291531, 0.3083981, 0.14003511, 0.5946569
848, 172893538, 0.72888047, 0.31506494, 0.14164661, 0.5911038
849, 172910205, 0.7283497, 0.32062006, 0.14406718, 0.58817863
850, 172926872, 0.7278148, 0.3259151, 0.14652328, 0.58531713
851, 172943539, 0.7273718, 0.3317187, 0.1485108, 0.5820977
852, 172960206, 0.72698665, 0.33742988, 0.15048727, 0.57877916
853, 172976873, 0.7265813, 0.34267205, 0.1526647, 0.57562923
854, 172993540, 0.7263249, 0.34723946, 0.1552569, 0.57251394
855, 173010207, 0.72606546, 0.35164157, 0.15785676, 0.569437
856, 173026874, 0.72546023, 0.35587737, 0.16067663, 0.56678194
857, 173043541, 0.72454643, 0.35988465, 0.16371526, 0.5645467
858, 173060208, 0.7237717, 0.36392045, 0.16639905, 0.56216353
859, 173076875, 0.72316813, 0.36819622, 0.16883543, 0.55942285
860, 173093542, 0.72279257, 0.37297916, 0.17063089, 0.55618614
861, 173110209, 0.72235775, 0.37761164, 0.17290433, 0.5529133
862, 173126876, 0.72149336, 0.3811378, 0.17655773, 0.5504623
863, 173143543, 0.72029346, 0.38344285, 0.1814037, 0.548855
864, 173160210, 0.719044, 0.3855813, 0.18634497, 0.5473377
865, 173176877, 0.7178303, 0.38865426, 0.19051404, 0.5453183
866, 173193544, 0.71703357, 0.3922543, 0.19383292, 0.54261255
867, 173210211, 0.71645194, 0.39607587, 0.19698028, 0.5394622
868, 173226878, 0.7157836, 0.39960527, 0.20057352, 0.536414
869, 173243545, 0.71503156, 0.40287194, 0.20440832, 0.533518
870, 173260212, 0.71412814, 0.4057104, 0.20860212, 0.5309476
871, 173276879, 0.71321666, 0.40817493, 0.2130901, 0.52849585
872, 173293546, 0.71248317, 0.4107121, 0.21746835, 0.52572906
873, 173310213, 0.71230894, 0.4136608, 0.22113544, 0.522111
874, 173326880, 0.7126879, 0.41668162, 0.22437547, 0.5177914
875, 173343547, 0.71324974, 0.41909453, 0.22817788, 0.51339006
876, 173360214, 0.7137648, 0.42020646, 0.23323451, 0.5094784
877, 173376881, 0.7143752, 0.42041835, 0.23851824, 0.50598973
878, 173393548, 0.7154892, 0.42048663, 0.24311647, 0.5021562
879, 173410215, 0.7173007, 0.42093065, 0.2470512, 0.49725544
880, 173426882, 0.7199819, 0.42193788, 0.24989215, 0.49106875
881, 173443549, 0.7235391, 0.42327714, 0.251443, 0.48384312
882, 173460216, 0.72779644, 0.42461687, 0.2521015, 0.47587606
883, 173476883, 0.7327041, 0.42614925, 0.2518279, 0.46703795
884, 173493550, 0.7378504, 0.4276786, 0.25119242, 0.45778844
885, 173510217, 0.743034, 0.42848504, 0.25105304, 0.44863525
886, 173526884, 0.74817866, 0.4280682, 0.25206253, 0.4398306
887, 173543551, 0.7534656, 0.4268562, 0.25377905, 0.43090585
888, 173560218, 0.75859636, 0.425326, 0.2560955, 0.42195335
889, 173576885, 0.7634481, 0.42333746, 0.2589923, 0.41334674
890, 173593552, 0.76790255, 0.42058662, 0.26287726, 0.4053742
891, 173610219, 0.77234554, 0.41752478, 0.26702452, 0.39730757
892, 173626886, 0.7770034, 0.41433704, 0.27095306, 0.38881227
893, 173643553, 0.78175515, 0.41074514, 0.27493396, 0.38020888
894, 173660220, 0.7866205, 0.4074698, 0.27783528, 0.37148935
895, 173676887, 0.79162335, 0.40527314, 0.2783883, 0.36274838
896, 173693554, 0.7966864, 0.40298337, 0.27862135, 0.35392836
897, 173710221, 0.80193394, 0.40011364, 0.27907073, 0.344863
898, 173726888, 0.80782443, 0.39746454, 0.27815515, 0.3347704
899, 173743555, 0.81400746, 0.39570707, 0.27541274, 0.3239689
900, 173760222, 0.81974024, 0.39366636, 0.2728597, 0.31400713
901, 173776889, 0.8251019, 0.39068663, 0.2713914, 0.30482385
902, 173793556, 0.8308642, 0.3878926, 0.26892436, 0.29476067
903, 173810223, 0.8369492, 0.38624167, 0.26445055, 0.28354776
904, 173826890, 0.84253365, 0.3841989, 0.26080364, 0.2729651
905, 173843557, 0.8474484, 0.38168168, 0.25835735, 0.26344287
906, 173860224, 0.851907, 0.37903655, 0.25670466, 0.25433952
907, 173876891, 0.85627735, 0.37570906, 0.25602102, 0.24512294
908, 173893558, 0.86054844, 0.37258893, 0.25527167, 0.23552178
909, 173910225, 0.8643889, 0.3702184, 0.25432792, 0.22602558
910, 173926892, 0.8677714, 0.36731514, 0.2545334, 0.21740606
911, 173943559, 0.8714654, 0.36320332, 0.25512233, 0.20867243
912, 173960226, 0.8755563, 0.35923186, 0.25457087, 0.19886571
913, 173976893, 0.87936497, 0.3558577, 0.2537109, 0.18897954
914, 173993560, 0.88261664, 0.3521004, 0.2539538, 0.18033463
915, 174010227, 0.8858172, 0.3473647, 0.25469896, 0.17261016
916, 174026894, 0.88950527, 0.34223306, 0.2542225, 0.164402
917, 174043561, 0.89343286, 0.33768436, 0.25214958, 0.15545936
918, 174060228, 0.89716285, 0.33348617, 0.24962643, 0.14687543
919, 174076895, 0.90069586, 0.32899863, 0.24734245, 0.13902767
920, 174093562, 0.9042548, 0.32436937, 0.2445844, 0.13147834
921, 174110229, 0.9078035, 0.31990647, 0.24119665, 0.12400356
922, 174126896, 0.91101617, 0.31525195, 0.23864113, 0.11711696
923, 174143563, 0.91384375, 0.31017476, 0.23733558, 0.111144535
924, 174160230, 0.91666234, 0.30481902, 0.23580723, 0.10588047
925, 174176897, 0.91940594, 0.29944548, 0.23403157, 0.101265326
926, 174193564, 0.92201513, 0.29362643, 0.23278603, 0.09737774
927, 174210231, 0.9247519, 0.28704873, 0.23185275, 0.09317562
928, 174226898, 0.92843187, 0.28027248, 0.22767434, 0.08732879
929, 174243565, 0.9324932, 0.27353784, 0.22163841, 0.08068599
930, 174260232, 0.9362125, 0.26637617, 0.21678145, 0.07453698
931, 174276899, 0.93944806, 0.25840902, 0.21422082, 0.06907711
932, 174293566, 0.9426374, 0.25013697, 0.21176331, 0.06342388
933, 174310233, 0.94567853, 0.24225228, 0.20897035, 0.057770513
934, 174326900, 0.9482797, 0.23504218, 0.206757, 0.05265515
935, 174343567, 0.9507751, 0.22747937, 0.20499957, 0.047487207
936, 174360234, 0.9533666, 0.2198435, 0.20260055, 0.04140301
937, 174376901, 0.95588493, 0.21308722, 0.19910721, 0.035133656
938, 174393568, 0.9578983, 0.20684856, 0.19684799, 0.029926233
939, 174410235, 0.95984733, 0.20006019, 0.19500722, 0.02532307
940, 174426902, 0.96198845, 0.19273826, 0.19243476, 0.019976854
941, 174443569, 0.9642876, 0.18584177, 0.18819723, 0.013928706
942, 174460236, 0.9663545, 0.17946322, 0.18407486, 0.0082798805
943, 174476903, 0.96784145, 0.17308894, 0.1825031, 0.004004279
944, 174493570, 0.96931535, 0.16589122, 0.18140593, 2.7247495E-5
945, 174510237, 0.97109103, 0.15829511, 0.17861046, -0.004829008
946, 174526904, 0.97297734, 0.15113857, 0.17427948, -0.009952984
947, 174543571, 0.97438437, 0.14443877, 0.17178434, -0.014244332
948, 174560238, 0.9755664, 0.13756637, 0.17034625, -0.018108072
949, 174576905, 0.9768659, 0.13083437, 0.1676897, -0.022267409
950, 174593572, 0.97826296, 0.12471607, 0.16355015, -0.026435984
951, 174610239, 0.979315, 0.11924524, 0.16073795, -0.02977376
952, 174626906, 0.9799516, 0.11393052, 0.1602374, -0.032232124
953, 174643573, 0.9805698, 0.10853354, 0.15970817, -0.03459587
954, 174660240, 0.9812828, 0.10372289, 0.15796877, -0.037037633
955, 174676907, 0.9818456, 0.09937651, 0.15673964, -0.039195992
956, 174693574, 0.9822371, 0.09498839, 0.15653266, -0.041052546
957, 174710241, 0.9827033, 0.09041972, 0.1557128, -0.043269236
958, 174726908, 0.9832472, 0.086272694, 0.15400206, -0.045448765
959, 174743575, 0.9836369, 0.08221021, 0.1531661, -0.047329586
960, 174760242, 0.9839098, 0.07818962, 0.15306593, -0.04877516
961, 174776909, 0.9841783, 0.07398945, 0.15290031, -0.050399587
962, 174793576, 0.984523, 0.0698461, 0.15203683, -0.05216138
963, 174810243, 0.984768, 0.06590274, 0.15160967, -0.053884577
964, 174826910, 0.98478293, 0.061920766, 0.15264978, -0.05537516
965, 174843577, 0.9847161, 0.057506416, 0.15424554, -0.05688206
966, 174860244, 0.9848075, 0.05266277, 0.15473035, -0.058646858
967, 174876911, 0.98506767, 0.04780451, 0.15388705, -0.060626127
968, 174893578, 0.98525643, 0.04303219, 0.15330979, -0.06256481
969, 174910245, 0.98530763, 0.038120978, 0.15358935, -0.06423346
970, 174926912, 0.985367, 0.032777842, 0.1536328, -0.06614132
971, 174943579, 0.9855743, 0.027384702, 0.15243666, -0.06823888
972, 174960246, 0.985882, 0.022123082, 0.15035032, -0.07030179
973, 174976913, 0.9860624, 0.017063726, 0.14899476, -0.07204525
974, 174993580, 0.9861518, 0.011667695, 0.14810103, -0.07371904
975, 175010247, 0.98629075, 0.0061275777, 0.14661649, -0.07547726
976, 175026914, 0.9864801, 8.4484066E-4, 0.14464821, -0.07702749
977, 175043581, 0.9864576, -0.00424918, 0.14403233, -0.078345925
978, 175060248, 0.98624974, -0.009412482, 0.14461786, -0.0794265
979, 175076915, 0.9860021, -0.014951632, 0.14521268, -0.08055929
980, 175093582, 0.9859391, -0.020698966, 0.14430031, -0.08168996
981, 175110249, 0.9858207, -0.0269022, 0.14343448, -0.08282935
982, 175126916, 0.985582, -0.0339475, 0.14296314, -0.083889
983, 175143583, 0.98523057, -0.042078454, 0.14247736, -0.08514795
984, 175160250, 0.98480695, -0.050906464, 0.14174427, -0.08644309
985, 175176917, 0.9842144, -0.059890777, 0.14144021, -0.08792194
986, 175193584, 0.98345053, -0.0691014, 0.1415229, -0.08956337
987, 175210251, 0.98257893, -0.07879805, 0.14132875, -0.091410205
988, 175226918, 0.9817771, -0.088341966, 0.14019747, -0.09302993
989, 175243585, 0.98084813, -0.09730954, 0.13978408, -0.094491735
990, 175260252, 0.9797342, -0.10591749, 0.14041199, -0.09584853
991, 175276919, 0.97856224, -0.11434198, 0.14097624, -0.09730203
992, 175293586, 0.9775833, -0.1219008, 0.14067464, -0.09839721
993, 175310253, 0.9766414, -0.12845704, 0.14093296, -0.09903733
994, 175326920, 0.97577727, -0.1345013, 0.14120257, -0.09914691
995, 175343587, 0.9751229, -0.14029163, 0.13999009, -0.09927884
996, 175360254, 0.9748344, -0.14525881, 0.13723084, -0.09882043
997, 175376921, 0.97473323, -0.14931633, 0.13432829, -0.09775287
998, 175393588, 0.97459865, -0.15269904, 0.13252832, -0.096317574
999, 175410255, 0.9743955, -0.15592524, 0.13092923, -0.09538669
1000, 175426922, 0.97445875, -0.15871607, 0.12770206, -0.09450738
1001, 175443589, 0.9745782, -0.160992, 0.12446664, -0.093738236
1002, 175460256, 0.9745597, -0.16268271, 0.12286438, -0.093124434
1003, 175476923, 0.9743653, -0.16385092, 0.123266235, -0.092579
1004, 175493590, 0.97419196, -0.16476259, 0.12385354, -0.09199845
1005, 175510257, 0.97418696, -0.16533591, 0.123729095, -0.091186255
1006, 175526924, 0.9742769, -0.16554661, 0.12338885, -0.09030035
1007, 175543591, 0.97441834, -0.16544943, 0.12312031, -0.08931272
1008, 175560258, 0.9745895, -0.16516782, 0.12289374, -0.0882711
1009, 175576925, 0.97480726, -0.16466536, 0.12268014, -0.08709762
1010, 175593592, 0.9750232, -0.16424388, 0.12243589, -0.085809186
1011, 175610259, 0.97527593, -0.16387354, 0.121814564, -0.084519856
1012, 175626926, 0.97552496, -0.16342553, 0.12114824, -0.08346451
1013, 175643593, 0.97579664, -0.1629371, 0.12025544, -0.082529545
1014, 175660260, 0.97606874, -0.16243926, 0.119328864, -0.08163483
1015, 175676927, 0.97628576, -0.16194473, 0.118766025, -0.08083865
1016, 175693594, 0.9764795, -0.16139932, 0.11842748, -0.08008257
1017, 175710261, 0.9766956, -0.1608301, 0.11796284, -0.079274565
1018, 175726928, 0.976929, -0.16021164, 0.117363654, -0.078535356
1019, 175743595, 0.97721493, -0.1593685, 0.116658814, -0.07774023
1020, 175760262, 0.97748023, -0.15847936, 0.11612287, -0.077020474
1021, 175776929, 0.97773385, -0.15762782, 0.11564002, -0.07627285
1022, 175793596, 0.97796834, -0.15689412, 0.115098596, -0.075595915
1023, 175810263, 0.9781765, -0.156204, 0.11461891, -0.07505798
1024, 175826930, 0.97841835, -0.15545571, 0.11385563, -0.07462113
1025, 175843597, 0.9786488, -0.15469146, 0.11316227, -0.0742406
1026, 175860264, 0.9788685, -0.1539268, 0.11249162, -0.07395193
1027, 175876931, 0.9790556, -0.15338093, 0.11172691, -0.073766924
1028, 175893598, 0.9792426, -0.15288596, 0.11083659, -0.07365542
1029, 175910265, 0.9794209, -0.15221223, 0.11027945, -0.073516764
1030, 175926932, 0.97957563, -0.15130064, 0.11026088, -0.07336552
1031, 175943599, 0.97967094, -0.15028143, 0.11085877, -0.073284306
1032, 175960266, 0.9797747, -0.14941385, 0.11113027, -0.073261544
1033, 175976933, 0.9799932, -0.14865087, 0.110266976, -0.07319526
1034, 175993600, 0.98028225, -0.14783826, 0.10888287, -0.07304321
1035, 176010267, 0.98050714, -0.1469255, 0.10822683, -0.0728402
1036, 176026934, 0.98064137, -0.1459868, 0.10845431, -0.072582155
1037, 176043601, 0.98075056, -0.14518197, 0.108686976, -0.072372645
1038, 176060268, 0.98089963, -0.14440449, 0.108523354, -0.07215235
1039, 176076935, 0.9810616, -0.1435483, 0.10833085, -0.07194797
1040, 176093602, 0.98121285, -0.14273685, 0.10815997, -0.07175653
1041, 176110269, 0.9813151, -0.14209561, 0.10815575, -0.07163904
1042, 176126936, 0.9813296, -0.14158738, 0.108639486, -0.071713686
1043, 176143603, 0.9813001, -0.14121181, 0.109292544, -0.07186426
1044, 176160270, 0.9812507, -0.14095108, 0.10995656, -0.07203876
1045, 176176937, 0.98118347, -0.14082228, 0.110602595, -0.07221647
1046, 176193604, 0.9810953, -0.14097308, 0.11101952, -0.07247983
1047, 176210271, 0.9810474, -0.14132996, 0.11081593, -0.07274361
1048, 176226938, 0.9810458, -0.14178924, 0.11006963, -0.073004544
1049, 176243605, 0.9810022, -0.14237204, 0.10955313, -0.073232844
1050, 176260272, 0.9809386, -0.14299266, 0.109093145, -0.073563084
1051, 176276939, 0.98089266, -0.14381322, 0.108005844, -0.07417662
1052, 176293606, 0.98089826, -0.144767, 0.106145784, -0.07493089
1053, 176310273, 0.9808772, -0.14574511, 0.10438335, -0.07578036
1054, 176326940, 0.9807714, -0.146711, 0.103317775, -0.07673955
1055, 176343607, 0.98060036, -0.14767297, 0.10271742, -0.07787716
1056, 176360274, 0.98041743, -0.14852211, 0.10230405, -0.07909982
1057, 176376941, 0.9802356, -0.14926228, 0.10202762, -0.080308996
1058, 176393608, 0.98007655, -0.14986616, 0.1018143, -0.08138796
1059, 176410275, 0.97991735, -0.15029271, 0.10195664, -0.08233396
1060, 176426942, 0.97975385, -0.15064812, 0.1023496, -0.08313915
1061, 176443609, 0.9795695, -0.15083347, 0.10335485, -0.08373004
1062, 176460276, 0.9793305, -0.15072726, 0.105341725, -0.08423838
1063, 176476943, 0.9790256, -0.15034387, 0.10837858, -0.08461545
1064, 176493610, 0.9787902, -0.14993992, 0.11086616, -0.08483085
1065, 176510277, 0.97868913, -0.14959592, 0.11211685, -0.08496357
1066, 176526944, 0.97869635, -0.14912748, 0.112651296, -0.08499674
1067, 176543611, 0.9788017, -0.14868295, 0.11253394, -0.08471658
1068, 176560278, 0.978924, -0.14823924, 0.112364165, -0.0843057
1069, 176576945, 0.9790526, -0.14776477, 0.112175405, -0.08389517
1070, 176593612, 0.97917205, -0.1472514, 0.112146474, -0.083440796
1071, 176610279, 0.9791989, -0.14679208, 0.11273878, -0.08313723
1072, 176626946, 0.9792009, -0.1464627, 0.11327511, -0.08296598
1073, 176643613, 0.9791558, -0.14613438, 0.11411484, -0.082924865
1074, 176660280, 0.9791205, -0.1458544, 0.11479178, -0.08290134
1075, 176676947, 0.9791252, -0.14571448, 0.11499733, -0.0828065
1076, 176693614, 0.9791387, -0.14566696, 0.11496632, -0.08277399
1077, 176710281, 0.97917265, -0.14562389, 0.114763916, -0.08272939
1078, 176726948, 0.9792097, -0.14549455, 0.11464434, -0.0826833
1079, 176743615, 0.97925794, -0.14534782, 0.11450212, -0.082567245
1080, 176760282, 0.97932136, -0.14518099, 0.11431126, -0.08237298
1081, 176776949, 0.9793483, -0.1450468, 0.11431647, -0.08228115
1082, 176793616, 0.97938496, -0.1449467, 0.11420292, -0.08217878
1083, 176810283, 0.979421, -0.14493425, 0.11397972, -0.08208108
1084, 176826950, 0.9794315, -0.14505869, 0.11378064, -0.0820124
1085, 176843617, 0.9794354, -0.14517264, 0.11363149, -0.08196991
1086, 176860284, 0.9794293, -0.14527984, 0.113528125, -0.08199604
1087, 176876951, 0.97941095, -0.14538486, 0.113529466, -0.08202808
1088, 176893618, 0.9793645, -0.14562678, 0.11359416, -0.08206451
1089, 176910285, 0.97933143, -0.14594555, 0.11340552, -0.082152516
1090, 176926952, 0.9793121, -0.14619102, 0.11312484, -0.082333446
1091, 176943619, 0.9792781, -0.14637445, 0.11301733, -0.08256077
1092, 176960286, 0.97922105, -0.14653996, 0.113127664, -0.08279117
1093, 176976953, 0.97918063, -0.1466341, 0.11325462, -0.082928866
1094, 176993620, 0.97913957, -0.14670783, 0.11348656, -0.082966916
1095, 177010287, 0.97911775, -0.1466777, 0.11369097, -0.08299848
1096, 177026954, 0.97911954, -0.14664444, 0.1137134, -0.08300362
1097, 177043621, 0.9791099, -0.14660366, 0.11376157, -0.083124354
1098, 177060288, 0.9790874, -0.1465798, 0.11388839, -0.08325649
1099, 177076955, 0.9790308, -0.14657052, 0.11424839, -0.0834459
1100, 177093622, 0.9789714, -0.14658095, 0.11464901, -0.08357391
1101, 177110289, 0.9789129, -0.14656447, 0.11512807, -0.08362936
1102, 177126956, 0.9788756, -0.14647089, 0.1155698, -0.08362224
1103, 177143623, 0.97888166, -0.14628477, 0.11578907, -0.08357342
1104, 177160290, 0.97891164, -0.14601281, 0.115919024, -0.083516784
1105, 177176957, 0.97896475, -0.14570835, 0.115923956, -0.083418906
1106, 177193624, 0.9790293, -0.14544868, 0.11579247, -0.083298236
1107, 177210291, 0.97910756, -0.14525817, 0.11546961, -0.0831581
1108, 177226958, 0.979198, -0.14517969, 0.11492469, -0.08298662
1109, 177243625, 0.97927874, -0.14502724, 0.11452991, -0.08284629
1110, 177260292, 0.979314, -0.14474533, 0.11463189, -0.08278112
1111, 177276959, 0.97930366, -0.1445296, 0.11502565, -0.082733
1112, 177293626, 0.97930574, -0.1444158, 0.11515125, -0.08273309
1113, 177310293, 0.9793241, -0.144325, 0.115086205, -0.08276528
1114, 177326960, 0.9793774, -0.14413415, 0.11488475, -0.08274637
1115, 177343627, 0.9794369, -0.14393927, 0.11469928, -0.08263896
1116, 177360294, 0.9794502, -0.14383782, 0.11479749, -0.082520485
1117, 177376961, 0.97944057, -0.14383414, 0.11490313, -0.08249442
1118, 177393628, 0.9794355, -0.14380705, 0.11492299, -0.08257385
1119, 177410295, 0.9794546, -0.14385727, 0.1146774, -0.082602195
1120, 177426962, 0.9795294, -0.14384578, 0.11409639, -0.08254007
1121, 177443629, 0.97957057, -0.14391458, 0.11366879, -0.08252115
1122, 177460296, 0.9795623, -0.14403959, 0.113635994, -0.08244485
1123, 177476963, 0.9795392, -0.14406854, 0.113826, -0.08240774
1124, 177493630, 0.9795104, -0.14408973, 0.11403159, -0.08242905
1125, 177510297, 0.979517, -0.14414738, 0.11393747, -0.08237923
1126, 177526964, 0.9795342, -0.14417456, 0.113821134, -0.08228751
1127, 177543631, 0.97956234, -0.14423506, 0.11363832, -0.08209966
1128, 177560298, 0.97959113, -0.14430732, 0.11353063, -0.08177639
1129, 177576965, 0.97963977, -0.14438093, 0.11335659, -0.08130333
1130, 177593632, 0.9797103, -0.14446501, 0.11303718, -0.0807486
1131, 177610299, 0.97978973, -0.14466226, 0.112570085, -0.08008088
1132, 177626966, 0.97986424, -0.14500704, 0.112069376, -0.07924482
1133, 177643633, 0.97985923, -0.14562032, 0.112217486, -0.07796157
1134, 177660300, 0.979896, -0.1458158, 0.113096215, -0.07583563
1135, 177676967, 0.9804455, -0.14529854, 0.11167149, -0.07172496
1136, 177693634, 0.9815286, -0.1444198, 0.10757768, -0.06458904
1137, 177710301, 0.9831885, -0.14275382, 0.10027138, -0.053922754
1138, 177726968, 0.9851354, -0.13932, 0.09225017, -0.039852973
1139, 177743635, 0.98704135, -0.1340674, 0.085472286, -0.021681186
1140, 177760302, 0.988879, -0.12709576, 0.07723209, 5.4002187E-4
1141, 177776969, 0.9903626, -0.119344205, 0.06519078, 0.026250599
1142, 177793636, 0.99104595, -0.11109297, 0.04920278, 0.05536588
1143, 177810303, 0.9903918, -0.10191809, 0.033343486, 0.08732177
1144, 177826970, 0.9881734, -0.092083886, 0.020346567, 0.12091343
1145, 177843637, 0.98438275, -0.08239737, 0.00967606, 0.15526754
1146, 177860304, 0.97895706, -0.07358957, 8.754195E-4, 0.19033428
1147, 177876971, 0.9720313, -0.06574185, -0.006725359, 0.22536227
1148, 177893638, 0.9637048, -0.05838839, -0.013320471, 0.2601666
1149, 177910305, 0.95411557, -0.050969083, -0.019577254, 0.2944189
1150, 177926972, 0.9434006, -0.044173967, -0.02376899, 0.3278405
1151, 177943639, 0.9317039, -0.039332543, -0.024691112, 0.36023775
1152, 177960306, 0.9190681, -0.03726416, -0.022324419, 0.39169776
1153, 177976973, 0.9055529, -0.037429944, -0.017745204, 0.4222064
1154, 177993640, 0.8909492, -0.03971668, -0.012288143, 0.4521958
1155, 178010307, 0.8755764, -0.04444566, -0.0069288705, 0.4809809
1156, 178026974, 0.8596457, -0.051997576, -0.0011067955, 0.50823665
1157, 178043641, 0.8432993, -0.062287357, 0.0048145754, 0.53380084
1158, 178060308, 0.8263944, -0.07513456, 0.011536891, 0.5579375
1159, 178076975, 0.80868435, -0.09011664, 0.017276665, 0.58104223
1160, 178093642, 0.790594, -0.107269555, 0.022585735, 0.6024486
1161, 178110309, 0.77240443, -0.12640862, 0.026985064, 0.62183934
1162, 178126976, 0.75373256, -0.14726348, 0.030518819, 0.639742
