DeviceTag:,Xsens DOT 5,,,,,,,,,,,,,,,,,
FirmwareVersion:,1.3.0,,,,,,,,,,,,,,,,,
AppVersion:,2020.1.1,,,,,,,,,,,,,,,,,
Measurement Mode:,Sensor fusion Mode - Orientation (Quaternion),,,,,,,,,,,,,,,,,
StartTime:,2020-08-24 09:00:44.171 +0200,,,,,,,,,,,,,,,,,
© Xsens Technologies B. V. 2005-2020,,,,,,,,,,,,,,,,,,,
PacketCounter,SampleTimeFine,Quat_W,Quat_X,Quat_Y,Quat_Z
1, 115914183, 0.93557435, -7.67572E-5, 0.089591175, -0.34157583
2, 115930850, 0.9356002, 0.001217362, 0.08939934, -0.34155357
3, 115947517, 0.9355792, 0.0019796863, 0.08966926, -0.34153676
4, 115964184, 0.9355791, 0.002279128, 0.089835756, -0.3414912
5, 115980851, 0.93555427, 0.0027135639, 0.089908995, -0.3415369
6, 115997518, 0.9354987, 0.0031338632, 0.090051584, -0.3416479
7, 116014185, 0.9354527, 0.0032905054, 0.09013646, -0.34174976
8, 116030852, 0.9354261, 0.003392532, 0.0901132, -0.34182766
9, 116047519, 0.93539876, 0.003490145, 0.09013315, -0.3418964
10, 116064186, 0.93540704, 0.0035296832, 0.09013752, -0.34187225
11, 116080853, 0.93545693, 0.003507126, 0.09011638, -0.34174135
12, 116097520, 0.93550515, 0.0034985954, 0.090208076, -0.34158534
13, 116114187, 0.9354919, 0.0035810699, 0.090467304, -0.34155184
14, 116130854, 0.93546826, 0.0037258998, 0.09076068, -0.34153736
15, 116147521, 0.9355214, 0.0038044928, 0.09090917, -0.3413514
16, 116164188, 0.9356488, 0.003732572, 0.090900004, -0.34100538
17, 116180855, 0.9356541, 0.003682514, 0.090812445, -0.34101474
18, 116197522, 0.9355758, 0.0036778268, 0.09080865, -0.34123078
19, 116214189, 0.9353883, 0.003670535, 0.09079471, -0.34174785
20, 116230856, 0.9353052, 0.0036204695, 0.090683654, -0.34200555
21, 116247523, 0.93533564, 0.003622947, 0.09062432, -0.34193778
22, 116264190, 0.9353762, 0.0036076047, 0.09057841, -0.34183902
23, 116280857, 0.9355367, 0.0034504302, 0.09037732, -0.34145445
24, 116297524, 0.9356322, 0.0032538157, 0.09013867, -0.34125763
25, 116314191, 0.9355839, 0.003008052, 0.08997987, -0.34143424
26, 116330858, 0.93566793, 0.002843362, 0.0900084, -0.34119788
27, 116347525, 0.9355966, 0.0027084847, 0.09016005, -0.34135467
28, 116364192, 0.93525237, 0.0025180918, 0.090269126, -0.34226948
29, 116380859, 0.93514174, 0.0020324902, 0.09035246, -0.34255248
30, 116397526, 0.93506604, 0.0014744555, 0.09062713, -0.3426899
31, 116414193, 0.93477607, 0.0011027381, 0.09156373, -0.34323284
32, 116430860, 0.9342526, 8.266821E-4, 0.09277892, -0.34433037
33, 116447527, 0.9340021, 3.9736918E-4, 0.09359397, -0.34479022
34, 116464194, 0.93380976, -9.083645E-5, 0.09385485, -0.34524
35, 116480861, 0.93371916, -4.9230596E-4, 0.093821116, -0.34549406
36, 116497528, 0.9337707, -7.003751E-4, 0.09381094, -0.34535703
37, 116514195, 0.93384254, -7.7000656E-4, 0.0940283, -0.34510332
38, 116530862, 0.93372834, -7.4609806E-4, 0.09444778, -0.34529823
39, 116547529, 0.9337327, -7.2295085E-4, 0.09446587, -0.34528115
40, 116564196, 0.93393445, -7.352509E-4, 0.094079986, -0.34484106
41, 116580863, 0.9339664, -6.5002526E-4, 0.09361781, -0.34488007
42, 116597530, 0.9336768, -3.5200914E-4, 0.093488984, -0.3456988
43, 116614197, 0.93362343, 4.798243E-5, 0.093664825, -0.34579524
44, 116630864, 0.933821, 3.7609172E-4, 0.09372144, -0.34524563
45, 116647531, 0.9338497, 5.0063967E-4, 0.09336441, -0.34526452
46, 116664198, 0.934069, 5.6726264E-4, 0.09296753, -0.34477833
47, 116680865, 0.93423617, 8.146631E-4, 0.09280316, -0.3443687
48, 116697532, 0.93414736, 0.0012405877, 0.09275359, -0.34462178
49, 116714199, 0.9339731, 0.0015910453, 0.092725925, -0.34509957
50, 116730866, 0.93375796, 0.0018224547, 0.09265599, -0.34569892
51, 116747533, 0.9337198, 0.0019537061, 0.09251977, -0.34583777
52, 116764200, 0.93349326, 0.0021684216, 0.09241791, -0.34647468
53, 116780867, 0.93346083, 0.0022913045, 0.092295654, -0.34659368
54, 116797534, 0.9334612, 0.0024248543, 0.09212697, -0.3466368
55, 116814201, 0.9334535, 0.0025961988, 0.09204245, -0.3466787
56, 116830868, 0.933415, 0.0028620234, 0.09205124, -0.3467781
57, 116847535, 0.9334213, 0.0029899618, 0.091984496, -0.34677747
58, 116864202, 0.93326056, 0.0030592054, 0.091910034, -0.34722897
59, 116880869, 0.9331353, 0.0030141005, 0.09198842, -0.34754553
60, 116897536, 0.93302715, 0.002847878, 0.09224388, -0.3477694
61, 116914203, 0.9328847, 0.0026888186, 0.09254605, -0.34807232
62, 116930870, 0.93275356, 0.0024004432, 0.092555314, -0.348423
63, 116947537, 0.93275625, 0.0019737305, 0.09226759, -0.34849492
64, 116964204, 0.93275154, 0.0015446492, 0.09171333, -0.348656
65, 116980871, 0.9328578, 0.0010868493, 0.09105467, -0.3485459
66, 116997538, 0.93292296, 6.551426E-4, 0.09058358, -0.34849527
67, 117014205, 0.93300474, 3.5127142E-4, 0.09055912, -0.34828338
68, 117030872, 0.93282723, 3.906683E-4, 0.09101523, -0.34863982
69, 117047539, 0.9328605, 4.833286E-4, 0.09156397, -0.34840685
70, 117064206, 0.9328278, 4.746926E-4, 0.091751456, -0.348445
71, 117080873, 0.9329394, 2.1670792E-4, 0.09159507, -0.34818748
72, 117097540, 0.93270135, -1.06860796E-4, 0.09139968, -0.3488758
73, 117114207, 0.9327626, -3.5256945E-4, 0.091588266, -0.34866232
74, 117130874, 0.9326113, -2.1279199E-4, 0.09234941, -0.34886673
75, 117147541, 0.9324822, 5.6213685E-7, 0.09350237, -0.3489044
76, 117164208, 0.93258846, 3.0358275E-5, 0.09468486, -0.3483011
77, 117180875, 0.93255544, 1.2311029E-5, 0.09572675, -0.34810477
78, 117197542, 0.93280965, -8.055323E-5, 0.096416436, -0.34723213
79, 117214209, 0.9328829, -4.1094194E-5, 0.09647584, -0.34701902
80, 117230876, 0.93316656, -2.1302025E-4, 0.095644616, -0.34648564
81, 117247543, 0.9335368, -5.9982965E-4, 0.094455786, -0.34581333
82, 117264210, 0.9336928, -9.225956E-4, 0.093607515, -0.34562224
83, 117280877, 0.9338811, -0.0010360338, 0.09314369, -0.34523806
84, 117297544, 0.93417597, -0.0010989277, 0.09256652, -0.344595
85, 117314211, 0.9343632, -0.0012825241, 0.091310546, -0.34442163
86, 117330878, 0.9346866, -0.0015227505, 0.089665085, -0.34397525
87, 117347545, 0.9349822, -0.0015793147, 0.08805979, -0.34358582
88, 117364212, 0.9350735, -0.0013319493, 0.086645596, -0.3436984
89, 117380879, 0.93557864, -0.0010394574, 0.08579368, -0.34253633
90, 117397546, 0.9355422, -4.8302516E-4, 0.0857999, -0.34263504
91, 117414213, 0.93516153, 2.8227386E-4, 0.08659784, -0.34347293
92, 117430880, 0.93491846, 0.0011789376, 0.08772659, -0.3438462
93, 117447547, 0.9349533, 0.0018840529, 0.08872963, -0.34349096
94, 117464214, 0.93493253, 0.0022265955, 0.089225985, -0.34341654
95, 117480881, 0.9347153, 0.0023272547, 0.089220926, -0.3440084
96, 117497548, 0.9348689, 0.002131837, 0.08879822, -0.34370154
97, 117514215, 0.9354515, 0.0016862886, 0.08818293, -0.34227413
98, 117530882, 0.9358971, 0.0014118467, 0.087625794, -0.34119815
99, 117547549, 0.9352267, 0.0016507911, 0.0873391, -0.34310442
100, 117564216, 0.9350251, 0.0018407379, 0.08742683, -0.34362987
101, 117580883, 0.9342795, 0.0022164783, 0.08771371, -0.34557644
102, 117597550, 0.9347819, 0.0023120935, 0.08810385, -0.34411505
103, 117614217, 0.93503046, 0.00249878, 0.08849789, -0.34333628
104, 117630884, 0.9351601, 0.0024505355, 0.08857189, -0.34296477
105, 117647551, 0.935629, 0.0022174313, 0.088276364, -0.34176114
106, 117664218, 0.9356889, 0.0021409672, 0.08788375, -0.34169888
107, 117680885, 0.9355285, 0.0020507204, 0.08747114, -0.34224433
108, 117697552, 0.9357137, 0.0016932982, 0.0870753, -0.34184062
109, 117714219, 0.9355883, 0.001493157, 0.08702192, -0.34219837
110, 117730886, 0.9354448, 0.0015032173, 0.08747737, -0.3424745
111, 117747553, 0.93489605, 0.0017668328, 0.08806363, -0.34381843
112, 117764220, 0.9345899, 0.0019557332, 0.088528186, -0.3445295
113, 117780887, 0.93437564, 0.0020573502, 0.08909116, -0.34496507
114, 117797554, 0.9344854, 0.0019996779, 0.08980567, -0.3444822
115, 117814221, 0.93437666, 0.001998196, 0.09061768, -0.34456462
116, 117830888, 0.933938, 0.0019260666, 0.09116441, -0.34560868
117, 117847555, 0.9338465, 0.0015350681, 0.09130856, -0.3458201
118, 117864222, 0.93357766, 0.0011703791, 0.09139363, -0.34652388
119, 117880889, 0.9334231, 8.1038015E-4, 0.09153389, -0.34690443
120, 117897556, 0.93308485, 4.0789697E-4, 0.091326356, -0.34786817
121, 117914223, 0.93310326, -1.7844835E-4, 0.09076453, -0.34796557
122, 117930890, 0.9332718, -7.1830227E-4, 0.09046229, -0.34759143
123, 117947557, 0.93313044, -8.981171E-4, 0.09055938, -0.34794557
124, 117964224, 0.9329413, -9.350953E-4, 0.09068823, -0.34841838
125, 117980891, 0.93306506, -0.001021692, 0.09078079, -0.34806263
126, 117997558, 0.9330583, -0.0010556685, 0.09091211, -0.34804627
127, 118014225, 0.93290424, -0.0010066195, 0.090952836, -0.34844837
128, 118030892, 0.9327684, -0.0010614548, 0.09076697, -0.34886035
129, 118047559, 0.9326429, -0.0011223082, 0.090524696, -0.34925833
130, 118064226, 0.9324303, -0.001172517, 0.09023266, -0.3499006
131, 118080893, 0.9323666, -0.0011648159, 0.08978423, -0.35018578
132, 118097560, 0.9323745, -0.0011060056, 0.08937888, -0.35026866
133, 118114227, 0.93235534, -9.839813E-4, 0.088993885, -0.350418
134, 118130894, 0.93235993, -9.93338E-4, 0.08846517, -0.35053968
135, 118147561, 0.93236554, -9.963062E-4, 0.08784676, -0.3506804
136, 118164228, 0.93242335, -8.4078667E-4, 0.08739261, -0.35064027
137, 118180895, 0.9323537, -4.2964303E-4, 0.08737701, -0.35082996
138, 118197562, 0.932531, 2.6615475E-5, 0.08793699, -0.3502184
139, 118214229, 0.9324583, 5.186348E-4, 0.08869852, -0.3502196
140, 118230896, 0.9323336, 8.586481E-4, 0.08906325, -0.3504585
141, 118247563, 0.9322584, 9.932981E-4, 0.08873616, -0.35074097
142, 118264230, 0.9322417, 0.0010491438, 0.08829577, -0.35089636
143, 118280897, 0.9321413, 0.0011178856, 0.088094786, -0.35121337
144, 118297564, 0.93210596, 0.0012557872, 0.08811469, -0.35130167
145, 118314231, 0.93187386, 0.0015108866, 0.08814046, -0.35190922
146, 118330898, 0.9318129, 0.0015285255, 0.08781357, -0.35215244
147, 118347565, 0.93172824, 0.0014135335, 0.08726499, -0.35251337
148, 118364232, 0.93161094, 0.0014327056, 0.08717078, -0.3528464
149, 118380899, 0.93134314, 0.0018258656, 0.08796447, -0.35335407
150, 118397566, 0.9311121, 0.0024997122, 0.08934228, -0.35361266
151, 118414233, 0.93083996, 0.003166118, 0.090621844, -0.35399842
152, 118430900, 0.9307521, 0.0036595606, 0.09125781, -0.354061
153, 118447567, 0.9307925, 0.0039911335, 0.09134781, -0.35392806
154, 118464234, 0.9306686, 0.0043371287, 0.0913107, -0.35425928
155, 118480901, 0.9306057, 0.0046624932, 0.09129349, -0.35442442
156, 118497568, 0.9305662, 0.005027203, 0.09131979, -0.35451654
157, 118514235, 0.93050146, 0.0053942194, 0.09149981, -0.3546351
158, 118530902, 0.9303684, 0.0056965, 0.09179832, -0.35490182
159, 118547569, 0.9301121, 0.005775577, 0.09204263, -0.35550866
160, 118564236, 0.9298359, 0.005523712, 0.091981374, -0.35625035
161, 118580903, 0.9296374, 0.004887918, 0.09130443, -0.35695112
162, 118597570, 0.92960966, 0.0040654354, 0.09018296, -0.3573185
163, 118614237, 0.92952377, 0.0033160357, 0.08893889, -0.3578611
164, 118630904, 0.9295556, 0.0027153557, 0.087771155, -0.35807174
165, 118647571, 0.9296857, 0.0022760215, 0.08691758, -0.35794505
166, 118664238, 0.92983764, 0.0019800707, 0.08655388, -0.35764012
167, 118680905, 0.92991877, 0.0017305883, 0.0866081, -0.35741726
168, 118697572, 0.929999, 0.0015263665, 0.08685196, -0.35715035
169, 118714239, 0.9299786, 0.001331547, 0.08713366, -0.3571354
170, 118730906, 0.9299038, 9.0267276E-4, 0.08723508, -0.35730705
171, 118747573, 0.9297862, 2.8492656E-4, 0.08711786, -0.3576423
172, 118764240, 0.92978114, -5.3233403E-4, 0.08678785, -0.3577356
173, 118780907, 0.9298093, -0.0015607112, 0.08630017, -0.3577772
174, 118797574, 0.9299568, -0.0028075976, 0.08577125, -0.35751364
175, 118814241, 0.93013316, -0.004289231, 0.085482776, -0.35710874
176, 118830908, 0.9298315, -0.005855565, 0.085543536, -0.35785708
177, 118847575, 0.9296764, -0.0076450417, 0.085990384, -0.35811907
178, 118864242, 0.9294646, -0.009630206, 0.08679575, -0.35842663
179, 118880909, 0.9290199, -0.0119203655, 0.08786019, -0.35925022
180, 118897576, 0.92888075, -0.01473478, 0.089033194, -0.35921696
181, 118914243, 0.928156, -0.017844608, 0.08998967, -0.36070794
182, 118930910, 0.9279349, -0.02163778, 0.09064848, -0.36090413
183, 118947577, 0.92752683, -0.02590966, 0.0910839, -0.36156094
184, 118964244, 0.9274325, -0.030888997, 0.09122506, -0.36137646
185, 118980911, 0.9272123, -0.036084328, 0.09132767, -0.361434
186, 118997578, 0.9269466, -0.041543197, 0.09149295, -0.36148766
187, 119014245, 0.9266257, -0.04760247, 0.09155746, -0.36154675
188, 119030912, 0.9261564, -0.053785406, 0.092244245, -0.36170816
189, 119047579, 0.92544293, -0.059973415, 0.093910344, -0.3621321
190, 119064246, 0.92465734, -0.066185966, 0.09585216, -0.36254758
191, 119080913, 0.9239088, -0.07293378, 0.09724678, -0.3627898
192, 119097580, 0.92312753, -0.080158226, 0.09826821, -0.362979
193, 119114247, 0.922214, -0.08740454, 0.09947713, -0.36329925
194, 119130914, 0.92127573, -0.094834045, 0.10069478, -0.36348072
195, 119147581, 0.9203615, -0.10247268, 0.10190945, -0.36338478
196, 119164248, 0.91922, -0.11048582, 0.10317165, -0.3635699
197, 119180915, 0.9178219, -0.118725985, 0.1043654, -0.36416337
198, 119197582, 0.91641605, -0.12683997, 0.10556177, -0.3646232
199, 119214249, 0.91514474, -0.1352134, 0.10625759, -0.3646053
200, 119230916, 0.91390365, -0.14371476, 0.106679104, -0.36434293
201, 119247583, 0.9124068, -0.1520465, 0.10767402, -0.36442044
202, 119264250, 0.9108746, -0.1600675, 0.10897375, -0.36443183
203, 119280917, 0.90959644, -0.16798304, 0.109716184, -0.36383832
204, 119297584, 0.90850985, -0.17640579, 0.109304346, -0.36268914
205, 119314251, 0.90746707, -0.18517916, 0.10818746, -0.36125872
206, 119330918, 0.9062503, -0.19399387, 0.107330844, -0.3599402
207, 119347585, 0.9048448, -0.20259778, 0.10722264, -0.35876665
208, 119364252, 0.9033086, -0.21112739, 0.107457824, -0.35764748
209, 119380919, 0.9015807, -0.21976246, 0.10788188, -0.3566767
210, 119397586, 0.89945257, -0.22846815, 0.10923157, -0.356169
211, 119414253, 0.8968685, -0.23678106, 0.112212956, -0.35632846
212, 119430920, 0.8941657, -0.2443141, 0.11616062, -0.35677063
213, 119447587, 0.89187264, -0.25145668, 0.11921866, -0.3565385
214, 119464254, 0.88984156, -0.25933865, 0.12063331, -0.35549018
215, 119480921, 0.8877696, -0.2676404, 0.12103844, -0.35437796
216, 119497588, 0.8855474, -0.27596787, 0.12134111, -0.3534461
217, 119514255, 0.88344204, -0.28380635, 0.12203444, -0.35226658
218, 119530922, 0.8816213, -0.2911166, 0.12268246, -0.35063368
219, 119547589, 0.87985396, -0.29848337, 0.122883715, -0.34880418
220, 119564256, 0.8779648, -0.305797, 0.12302468, -0.34717554
221, 119580923, 0.87583745, -0.31311873, 0.12350437, -0.34585005
222, 119597590, 0.8735923, -0.32030487, 0.124222405, -0.34468874
223, 119614257, 0.87145203, -0.3275321, 0.12442251, -0.34323913
224, 119630924, 0.8693626, -0.3347672, 0.12432299, -0.34158948
225, 119647591, 0.8671566, -0.34174794, 0.12472772, -0.34013346
226, 119664258, 0.8648801, -0.34825367, 0.12596315, -0.33887354
227, 119680925, 0.8626047, -0.35442558, 0.12779759, -0.33758518
228, 119697592, 0.8603037, -0.3605738, 0.12950282, -0.33629334
229, 119714259, 0.8580076, -0.3672589, 0.13004953, -0.33471045
230, 119730926, 0.85570264, -0.37441373, 0.1295578, -0.3328695
231, 119747593, 0.8533344, -0.3817547, 0.12865883, -0.33095434
232, 119764260, 0.8509275, -0.38907138, 0.12748882, -0.3290785
233, 119780927, 0.8485255, -0.3968585, 0.12549007, -0.326742
234, 119797594, 0.84611166, -0.40509543, 0.12272068, -0.32393304
235, 119814261, 0.843667, -0.41337824, 0.11960201, -0.32099798
236, 119830928, 0.841249, -0.42121482, 0.116517425, -0.31828034
237, 119847595, 0.8388079, -0.42915303, 0.11324668, -0.3152845
238, 119864262, 0.8360881, -0.4381596, 0.109950714, -0.3112618
239, 119880929, 0.83336455, -0.44698387, 0.106788926, -0.30709198
240, 119897596, 0.83057916, -0.4546443, 0.10485474, -0.30404335
241, 119914263, 0.82740426, -0.46146533, 0.10530185, -0.3022643
242, 119930930, 0.82404804, -0.46777153, 0.10732127, -0.30102637
243, 119947597, 0.8206833, -0.4744143, 0.108422205, -0.2994243
244, 119964264, 0.8174322, -0.4817622, 0.10753358, -0.29689443
245, 119980931, 0.814296, -0.4897137, 0.10472277, -0.29348892
246, 119997598, 0.8110859, -0.49818042, 0.10079012, -0.289478
247, 120014265, 0.8077059, -0.50686955, 0.096669935, -0.2852184
248, 120030932, 0.80416113, -0.51562756, 0.09271817, -0.2808142
249, 120047599, 0.80054474, -0.5241979, 0.0892567, -0.27636585
250, 120064266, 0.7968097, -0.53244966, 0.08669784, -0.27216783
251, 120080933, 0.7929847, -0.5402281, 0.085416906, -0.26838946
252, 120097600, 0.78878784, -0.5475503, 0.08597341, -0.26572758
253, 120114267, 0.7843254, -0.5545768, 0.08723218, -0.2639488
254, 120130934, 0.77996385, -0.5615302, 0.08785969, -0.26195657
255, 120147601, 0.77555776, -0.5686281, 0.087880805, -0.2597104
256, 120164268, 0.7709787, -0.5758987, 0.08782533, -0.25733122
257, 120180935, 0.76632077, -0.58321327, 0.088127434, -0.25465316
258, 120197602, 0.7616367, -0.5900879, 0.089282826, -0.2524573
259, 120214269, 0.75687975, -0.5962264, 0.0917486, -0.25145456
260, 120230936, 0.7520893, -0.6017786, 0.095231004, -0.25130686
261, 120247603, 0.747294, -0.6067992, 0.09965642, -0.25182343
262, 120264270, 0.7424351, -0.61145586, 0.1047119, -0.25287774
263, 120280937, 0.7375416, -0.61609274, 0.109466694, -0.25392783
264, 120297604, 0.732778, -0.62083703, 0.11326363, -0.2544979
265, 120314271, 0.7283823, -0.6255221, 0.11591203, -0.25445223
266, 120330938, 0.7243886, -0.6300291, 0.11806463, -0.2537429
267, 120347605, 0.72039616, -0.6343358, 0.12062626, -0.25317314
268, 120364272, 0.71641064, -0.6382389, 0.12384245, -0.25312093
269, 120380939, 0.71259, -0.641698, 0.12724087, -0.2534739
270, 120397606, 0.7089799, -0.644864, 0.13035986, -0.25397742
271, 120414273, 0.7055366, -0.647689, 0.13358386, -0.2547007
272, 120430940, 0.7023531, -0.65034896, 0.13654326, -0.2551521
273, 120447607, 0.6994046, -0.6526659, 0.13978358, -0.25557995
274, 120464274, 0.6966549, -0.6546408, 0.14325714, -0.2561156
275, 120480941, 0.69429845, -0.65624195, 0.14641559, -0.25662944
276, 120497608, 0.6922717, -0.6576358, 0.14903471, -0.25702837
277, 120514275, 0.6903209, -0.6590164, 0.15142074, -0.2573448
278, 120530942, 0.68862605, -0.66020375, 0.15349317, -0.25761428
279, 120547609, 0.68724066, -0.66112167, 0.15520328, -0.25793514
280, 120564276, 0.685952, -0.66200686, 0.156591, -0.25825626
281, 120580943, 0.6849416, -0.66280556, 0.15742563, -0.25838146
282, 120597610, 0.68415153, -0.66330606, 0.158472, -0.25855124
283, 120614277, 0.6833652, -0.6636959, 0.15969627, -0.2588766
284, 120630944, 0.68288153, -0.6639113, 0.1605746, -0.25905684
285, 120647611, 0.68290895, -0.6639023, 0.16076113, -0.25889203
286, 120664278, 0.6830743, -0.6639399, 0.16063137, -0.25843984
287, 120680945, 0.6830158, -0.6639923, 0.1609157, -0.2582827
288, 120697612, 0.6829062, -0.6640375, 0.16119689, -0.25828052
289, 120714279, 0.6828401, -0.66407, 0.16125354, -0.25833654
290, 120730946, 0.6829474, -0.66397995, 0.16113538, -0.25835785
291, 120747613, 0.6830906, -0.6639738, 0.1609041, -0.25813925
292, 120764280, 0.6831693, -0.66406006, 0.16067344, -0.25785264
293, 120780947, 0.68324125, -0.6640502, 0.1605692, -0.25775227
294, 120797614, 0.68334675, -0.66386795, 0.16069144, -0.25786617
295, 120814281, 0.68338, -0.66373813, 0.16088721, -0.2579898
296, 120830948, 0.6833902, -0.66377586, 0.16089907, -0.2578584
297, 120847615, 0.6834636, -0.66382724, 0.16077831, -0.25760725
298, 120864282, 0.68351597, -0.6638879, 0.16062793, -0.25740543
299, 120880949, 0.6835098, -0.6639543, 0.16053033, -0.2573114
300, 120897616, 0.68351704, -0.6640268, 0.16029371, -0.2572527
301, 120914283, 0.6835097, -0.66409844, 0.16003479, -0.25724846
302, 120930950, 0.68335295, -0.66423607, 0.15989082, -0.25739947
303, 120947617, 0.6831439, -0.6643914, 0.1598806, -0.25755906
304, 120964284, 0.6830684, -0.66443187, 0.16002695, -0.25756425
305, 120980951, 0.68305385, -0.6644519, 0.16024159, -0.2574179
306, 120997618, 0.68310153, -0.6644644, 0.16034457, -0.25719482
307, 121014285, 0.6831661, -0.6644718, 0.16029167, -0.25703704
308, 121030952, 0.68322414, -0.6644541, 0.1601318, -0.25702843
309, 121047619, 0.68322664, -0.6644663, 0.15995541, -0.2570997
310, 121064286, 0.6832105, -0.66454375, 0.15970546, -0.25709808
311, 121080953, 0.68322444, -0.66470826, 0.15929374, -0.25689098
312, 121097620, 0.68338156, -0.66482705, 0.1587159, -0.25652263
313, 121114287, 0.6836642, -0.6648925, 0.15813933, -0.25595546
314, 121130954, 0.68405014, -0.6649023, 0.15752372, -0.25527766
315, 121147621, 0.68438786, -0.6648809, 0.15701106, -0.25474387
316, 121164288, 0.68460864, -0.6648538, 0.15672691, -0.25439587
317, 121180955, 0.6848021, -0.6647785, 0.15664649, -0.25412124
318, 121197622, 0.6849835, -0.6647425, 0.15663886, -0.25373092
319, 121214289, 0.685177, -0.66472906, 0.15665555, -0.25323293
320, 121230956, 0.6853673, -0.66471946, 0.1565935, -0.2527815
321, 121247623, 0.68559784, -0.6645444, 0.15661478, -0.2526028
322, 121264290, 0.6857543, -0.6643407, 0.15675782, -0.2526253
323, 121280957, 0.68590856, -0.66417056, 0.15687971, -0.2525782
324, 121297624, 0.6860796, -0.66406, 0.15696318, -0.25235265
325, 121314291, 0.686261, -0.663967, 0.15702417, -0.25206593
326, 121330958, 0.6863785, -0.66386855, 0.1570946, -0.25196144
327, 121347625, 0.68642056, -0.66370666, 0.15728489, -0.25215447
328, 121364292, 0.68648523, -0.6634988, 0.15739481, -0.2524566
329, 121380959, 0.6866407, -0.6632643, 0.15734906, -0.25267884
330, 121397626, 0.68677855, -0.6631111, 0.1572608, -0.252761
331, 121414293, 0.68687284, -0.6629933, 0.1572464, -0.25282267
332, 121430960, 0.6869498, -0.66288865, 0.15720408, -0.25291422
333, 121447627, 0.6870199, -0.6628069, 0.15709102, -0.2530082
334, 121464294, 0.68703014, -0.66274446, 0.15694736, -0.25323305
335, 121480961, 0.6868658, -0.66272336, 0.15688612, -0.2537716
336, 121497628, 0.6865991, -0.66270477, 0.15687108, -0.25455025
337, 121514295, 0.68645996, -0.66256446, 0.15693104, -0.25525266
338, 121530962, 0.68649775, -0.6623373, 0.15726769, -0.25553322
339, 121547629, 0.68671477, -0.6620557, 0.15764809, -0.25544515
340, 121564296, 0.6870335, -0.66171175, 0.15797748, -0.25527614
341, 121580963, 0.6872936, -0.6612781, 0.1583619, -0.2554613
342, 121597630, 0.6874691, -0.66081846, 0.15866171, -0.25599155
343, 121614297, 0.68745613, -0.66042817, 0.15892206, -0.25687113
344, 121630964, 0.6873052, -0.660197, 0.15899831, -0.25781992
345, 121647631, 0.6871964, -0.6600313, 0.15882257, -0.25864148
346, 121664298, 0.6872438, -0.6596473, 0.15857993, -0.25964192
347, 121680965, 0.6873511, -0.6590036, 0.15819319, -0.26122385
348, 121697632, 0.6873095, -0.65840274, 0.15771523, -0.2631302
349, 121714299, 0.687614, -0.657655, 0.15697841, -0.26464105
350, 121730966, 0.6884948, -0.6564787, 0.15612516, -0.26577404
351, 121747633, 0.6898901, -0.654951, 0.15477525, -0.26671308
352, 121764300, 0.69183576, -0.6533573, 0.15233679, -0.26698536
353, 121780967, 0.6945337, -0.6516097, 0.14858146, -0.2663672
354, 121797634, 0.6988004, -0.6490401, 0.14270735, -0.26468766
355, 121814301, 0.7025387, -0.6460006, 0.13826102, -0.2645873
356, 121830968, 0.7064395, -0.64232713, 0.13435668, -0.2651557
357, 121847635, 0.7106143, -0.6380983, 0.13069546, -0.26603937
358, 121864302, 0.7151533, -0.6335376, 0.1266611, -0.26672614
359, 121880969, 0.7200398, -0.6288293, 0.12194615, -0.2669188
360, 121897636, 0.72514737, -0.62385935, 0.116758525, -0.26707402
361, 121914303, 0.7302734, -0.61834407, 0.111660466, -0.26811078
362, 121930970, 0.73535484, -0.612077, 0.107368164, -0.27034694
363, 121947637, 0.74045634, -0.604855, 0.104429334, -0.27380565
364, 121964304, 0.74561334, -0.5967928, 0.1024176, -0.27822664
365, 121980971, 0.750842, -0.5882563, 0.10071505, -0.28292692
366, 121997638, 0.7562396, -0.579375, 0.099020466, -0.2874391
367, 122014305, 0.761891, -0.57013416, 0.09718979, -0.29158747
368, 122030972, 0.7677738, -0.5605829, 0.09494073, -0.29539216
369, 122047639, 0.77357876, -0.55096835, 0.092545584, -0.29907393
370, 122064306, 0.77921546, -0.54135346, 0.09026133, -0.30267638
371, 122080973, 0.7848006, -0.53140634, 0.08844512, -0.3063872
372, 122097640, 0.79054797, -0.520751, 0.086998366, -0.31029648
373, 122114307, 0.79627514, -0.5095936, 0.08600033, -0.31442723
374, 122130974, 0.80175143, -0.49838874, 0.085041024, -0.31870288
375, 122147641, 0.8071626, -0.48712948, 0.08414642, -0.32266578
376, 122164308, 0.812572, -0.47550339, 0.083468646, -0.3265828
377, 122180975, 0.8179181, -0.46350744, 0.08256973, -0.33068585
378, 122197642, 0.8232078, -0.4515429, 0.08138133, -0.33438793
379, 122214309, 0.8283466, -0.43978128, 0.08011859, -0.33766168
380, 122230976, 0.8333552, -0.4277298, 0.07924411, -0.34100872
381, 122247643, 0.8384094, -0.41492146, 0.07887125, -0.34451294
382, 122264310, 0.8433766, -0.40165138, 0.07873798, -0.34812707
383, 122280977, 0.8481526, -0.3886372, 0.07852432, -0.35132965
384, 122297644, 0.8527987, -0.37602708, 0.07782695, -0.35395116
385, 122314311, 0.8574653, -0.36317825, 0.07665759, -0.35634044
386, 122330978, 0.86213154, -0.35014737, 0.07501219, -0.35846844
387, 122347645, 0.86661524, -0.33751786, 0.07283858, -0.3602143
388, 122364312, 0.8708501, -0.32553372, 0.07029006, -0.36153474
389, 122380979, 0.8748348, -0.31331024, 0.06840317, -0.3630731
390, 122397646, 0.87860644, -0.3004117, 0.06733401, -0.36506125
391, 122414313, 0.8822033, -0.28750467, 0.066268355, -0.36697
392, 122430980, 0.8856505, -0.27541724, 0.06453817, -0.36824355
393, 122447647, 0.8889748, -0.2637368, 0.062755115, -0.36909163
394, 122464314, 0.8920599, -0.25171942, 0.06174258, -0.37020844
395, 122480981, 0.8948787, -0.23929232, 0.061374746, -0.37170509
396, 122497648, 0.89749396, -0.22745459, 0.06072509, -0.3729368
397, 122514315, 0.90008646, -0.21638726, 0.05941794, -0.3734845
398, 122530982, 0.90262514, -0.20556545, 0.05802056, -0.37369022
399, 122547649, 0.90497833, -0.194505, 0.056973863, -0.37408045
400, 122564316, 0.9070998, -0.18362287, 0.05626866, -0.3745487
401, 122580983, 0.9090483, -0.173327, 0.05552895, -0.37484065
402, 122597650, 0.910926, -0.16346128, 0.05456965, -0.37485543
403, 122614317, 0.91271335, -0.1536551, 0.053611986, -0.37479398
404, 122630984, 0.9144021, -0.14414975, 0.05254502, -0.37460485
405, 122647651, 0.91594034, -0.13515534, 0.05141757, -0.3743566
406, 122664318, 0.9173078, -0.12650861, 0.050635148, -0.37413654
407, 122680985, 0.91858196, -0.11760421, 0.050658822, -0.37391204
408, 122697652, 0.9197395, -0.108869165, 0.050878216, -0.37368217
409, 122714319, 0.9207951, -0.100938454, 0.05044168, -0.3733681
410, 122730986, 0.92181116, -0.093749, 0.04945899, -0.37286663
411, 122747653, 0.92276, -0.08676606, 0.048359133, -0.37235346
412, 122764320, 0.9236938, -0.07979586, 0.04745411, -0.37171322
413, 122780987, 0.92457527, -0.07312047, 0.046619378, -0.37099966
414, 122797654, 0.9253357, -0.06697481, 0.045589667, -0.37039125
415, 122814321, 0.9259591, -0.061165545, 0.04470076, -0.36994696
416, 122830988, 0.9264862, -0.05552439, 0.044082094, -0.36959064
417, 122847655, 0.9269274, -0.050224513, 0.04318592, -0.3693485
418, 122864322, 0.92736906, -0.045363147, 0.042100325, -0.36899376
419, 122880989, 0.9277742, -0.040668156, 0.04135016, -0.36860752
420, 122897656, 0.92810374, -0.036081173, 0.04094916, -0.36830002
421, 122914323, 0.9283757, -0.03186821, 0.040534325, -0.36804873
422, 122930990, 0.9286436, -0.028132025, 0.03979238, -0.3677584
423, 122947657, 0.9288553, -0.02481424, 0.038724344, -0.36757654
424, 122964324, 0.9289655, -0.021840753, 0.037574284, -0.36760664
425, 122980991, 0.9289922, -0.019370377, 0.036476508, -0.36778766
426, 122997658, 0.9290192, -0.017360326, 0.03541725, -0.36792356
427, 123014325, 0.9291041, -0.015770448, 0.03448042, -0.36786947
428, 123030992, 0.929269, -0.014681038, 0.033649646, -0.36757517
429, 123047659, 0.9295676, -0.0139274895, 0.03319855, -0.36688986
430, 123064326, 0.92998785, -0.012976281, 0.033731975, -0.3658092
431, 123080993, 0.93034846, -0.0119039975, 0.035111852, -0.36479735
432, 123097660, 0.9305379, -0.0113641415, 0.035854038, -0.36425924
433, 123114327, 0.93072224, -0.011663969, 0.035104554, -0.36385137
434, 123130994, 0.9309184, -0.01233057, 0.03344894, -0.3634836
435, 123147661, 0.93106705, -0.013066756, 0.03177262, -0.36322713
436, 123164328, 0.9311606, -0.013993229, 0.030478474, -0.36306378
437, 123180995, 0.9312358, -0.014926519, 0.02984881, -0.36288613
438, 123197662, 0.931229, -0.015477707, 0.03006225, -0.362863
439, 123214329, 0.93119544, -0.015689705, 0.030447807, -0.3629078
440, 123230996, 0.931254, -0.016015261, 0.030572547, -0.36273265
441, 123247663, 0.9313918, -0.016637387, 0.030206408, -0.36238143
442, 123264330, 0.9315375, -0.017301885, 0.029328585, -0.36204785
443, 123280997, 0.93165857, -0.017990086, 0.028119134, -0.36179826
444, 123297664, 0.9318964, -0.018707652, 0.026656723, -0.36126018
445, 123314331, 0.9321186, -0.019111905, 0.025746875, -0.36073127
446, 123330998, 0.93218213, -0.019072963, 0.025505818, -0.36058584
447, 123347665, 0.93215036, -0.018946813, 0.025706397, -0.36066037
448, 123364332, 0.93212664, -0.01873502, 0.026289165, -0.3606908
449, 123380999, 0.93210423, -0.018437516, 0.026997104, -0.36071208
450, 123397666, 0.93210757, -0.018270254, 0.02744783, -0.3606776
451, 123414333, 0.932147, -0.018220007, 0.027554892, -0.36056992
452, 123431000, 0.9321691, -0.018088074, 0.02767947, -0.36051023
453, 123447667, 0.93220997, -0.01786247, 0.02795921, -0.3603942
454, 123464334, 0.93226236, -0.017747525, 0.02829569, -0.36023808
455, 123481001, 0.9323155, -0.017770758, 0.028597359, -0.36007527
456, 123497668, 0.9323542, -0.01769123, 0.029169865, -0.35993332
457, 123514335, 0.9323982, -0.017423477, 0.029884638, -0.35977364
458, 123531002, 0.93247384, -0.017236007, 0.030453326, -0.35953885
459, 123547669, 0.9325733, -0.017286276, 0.030701546, -0.35925725
460, 123564336, 0.9326168, -0.017459666, 0.030890135, -0.35912016
461, 123581003, 0.93254924, -0.017520394, 0.031233765, -0.35926282
462, 123597670, 0.9324455, -0.017478254, 0.031686984, -0.3594939
463, 123614337, 0.93233883, -0.017565148, 0.032202456, -0.35972047
464, 123631004, 0.93221277, -0.017722638, 0.03299192, -0.35996786
465, 123647671, 0.9319771, -0.017751796, 0.034066226, -0.3604761
466, 123664338, 0.931666, -0.01773334, 0.03537033, -0.36115506
467, 123681005, 0.9313712, -0.017956998, 0.036579583, -0.36178327
468, 123697672, 0.93109727, -0.018444682, 0.037724305, -0.3623459
469, 123714339, 0.93072516, -0.018912707, 0.039436422, -0.36309496
470, 123731006, 0.93019646, -0.019243538, 0.041966714, -0.36414704
471, 123747673, 0.92960113, -0.019593474, 0.044909216, -0.36529586
472, 123764340, 0.9289481, -0.020141724, 0.048009694, -0.366531
473, 123781007, 0.9282207, -0.02091741, 0.051061604, -0.36791524
474, 123797674, 0.9273955, -0.021821706, 0.054160226, -0.36949706
475, 123814341, 0.9265629, -0.022692874, 0.05723481, -0.37106687
476, 123831008, 0.9259488, -0.023565147, 0.059346456, -0.37221208
477, 123847675, 0.9254456, -0.024625853, 0.06075327, -0.37316662
478, 123864342, 0.9248772, -0.026170334, 0.062001314, -0.37426338
479, 123881009, 0.92421055, -0.027946098, 0.06350243, -0.37552834
480, 123897676, 0.9234508, -0.029414622, 0.06582951, -0.37688226
481, 123914343, 0.9226334, -0.030584512, 0.069100246, -0.3782028
482, 123931010, 0.9216758, -0.032054666, 0.07300993, -0.3796785
483, 123947677, 0.92054003, -0.03373531, 0.07723318, -0.38144866
484, 123964344, 0.91917074, -0.035068184, 0.08207311, -0.3836136
485, 123981011, 0.9175966, -0.03631181, 0.08771674, -0.3860103
486, 123997678, 0.91583484, -0.03804882, 0.093324825, -0.38870245
487, 124014345, 0.9139844, -0.040370278, 0.098507084, -0.39153424
488, 124031012, 0.91208833, -0.04326317, 0.103199326, -0.39442736
489, 124047679, 0.91008955, -0.046732053, 0.10736928, -0.39752382
490, 124064346, 0.90799046, -0.050788447, 0.11143372, -0.40069526
491, 124081013, 0.9057982, -0.054846823, 0.11600776, -0.40381148
492, 124097680, 0.90326405, -0.058490742, 0.12162853, -0.4073074
493, 124114347, 0.9003568, -0.062199704, 0.12821537, -0.4111565
494, 124131014, 0.89740086, -0.06645366, 0.13438173, -0.41496673
495, 124147681, 0.89461625, -0.070993096, 0.13959253, -0.41849253
496, 124164348, 0.89192724, -0.075405456, 0.14463943, -0.42173374
497, 124181015, 0.88926446, -0.080143385, 0.14938006, -0.42481944
498, 124197682, 0.88666785, -0.08540634, 0.15358357, -0.4277128
499, 124214349, 0.8841881, -0.09113459, 0.15742567, -0.43025935
500, 124231016, 0.8816071, -0.09708142, 0.16158423, -0.43270668
501, 124247683, 0.8789607, -0.10335918, 0.16560021, -0.43511084
502, 124264350, 0.8762503, -0.10946972, 0.16962633, -0.43752554
503, 124281017, 0.873444, -0.11494176, 0.17418702, -0.43993515
504, 124297684, 0.87056524, -0.12020916, 0.1792426, -0.44219685
505, 124314351, 0.86760396, -0.12631229, 0.18442221, -0.44418147
506, 124331018, 0.86481035, -0.132773, 0.18898007, -0.44582635
507, 124347685, 0.8620427, -0.13929722, 0.19321203, -0.4473789
508, 124364352, 0.8595623, -0.14537476, 0.1970309, -0.4485507
509, 124381019, 0.8571018, -0.15191172, 0.20076154, -0.44943795
510, 124397686, 0.8543688, -0.15921584, 0.20502864, -0.45018625
511, 124414353, 0.85142803, -0.16661106, 0.20956849, -0.4509903
512, 124431020, 0.8483436, -0.17331289, 0.21423958, -0.45208138
513, 124447687, 0.845171, -0.17970034, 0.21878548, -0.45335087
514, 124464354, 0.84185016, -0.1862953, 0.22373955, -0.45444822
515, 124481021, 0.8384364, -0.19300511, 0.22931631, -0.45517868
516, 124497688, 0.83494276, -0.20004143, 0.23524031, -0.45553964
517, 124514355, 0.83134717, -0.20651263, 0.2419668, -0.45570436
518, 124531022, 0.82791936, -0.21271734, 0.2489592, -0.45532423
519, 124547689, 0.8246703, -0.21940531, 0.2556335, -0.4543477
520, 124564356, 0.82152945, -0.22616349, 0.2623328, -0.4529032
521, 124581023, 0.8184709, -0.23251215, 0.26963905, -0.45093066
522, 124597690, 0.81548727, -0.23896484, 0.2768659, -0.4485776
523, 124614357, 0.8122758, -0.24540344, 0.28402027, -0.4464502
524, 124631024, 0.8090869, -0.2515763, 0.29089937, -0.44437084
525, 124647691, 0.80588543, -0.25809276, 0.29738763, -0.44215134
526, 124664358, 0.8024341, -0.26456127, 0.30432293, -0.43988025
527, 124681025, 0.7990358, -0.27075192, 0.31145057, -0.43730295
528, 124697692, 0.7960171, -0.2760428, 0.31828722, -0.43456936
529, 124714359, 0.7932455, -0.28049308, 0.32514066, -0.4317047
530, 124731026, 0.7906174, -0.28530833, 0.33101434, -0.42889756
531, 124747693, 0.78809077, -0.29113594, 0.33546275, -0.4261661
532, 124764360, 0.78582305, -0.29711592, 0.33909455, -0.42334294
533, 124781027, 0.7841089, -0.30214095, 0.34258917, -0.42013913
534, 124797694, 0.78259283, -0.30768043, 0.34501785, -0.41694608
535, 124814361, 0.78042173, -0.313192, 0.34776443, -0.414624
536, 124831028, 0.777793, -0.31747374, 0.3516274, -0.4130458
537, 124847695, 0.7754947, -0.32094035, 0.3549227, -0.41186807
538, 124864362, 0.7735258, -0.3239891, 0.35750625, -0.4109482
539, 124881029, 0.77179515, -0.32726046, 0.3590802, -0.41023675
540, 124897696, 0.7702577, -0.33076856, 0.3596593, -0.4098054
541, 124914363, 0.7688003, -0.33456743, 0.35949463, -0.40960282
542, 124931030, 0.76739293, -0.33757594, 0.35988897, -0.40942734
543, 124947697, 0.7664287, -0.34031594, 0.3598982, -0.4089567
544, 124964364, 0.7651956, -0.34349892, 0.35971907, -0.40876245
545, 124981031, 0.76322263, -0.34667087, 0.36054787, -0.40904266
546, 124997698, 0.76093465, -0.34946388, 0.36227298, -0.40940428
547, 125014365, 0.7587264, -0.35182098, 0.36434388, -0.40964627
548, 125031032, 0.75659955, -0.35411265, 0.36625075, -0.4099045
549, 125047699, 0.7545817, -0.3559825, 0.36838076, -0.41009605
550, 125064366, 0.75270706, -0.35798082, 0.37014347, -0.41021442
551, 125081033, 0.7507283, -0.36031607, 0.37170506, -0.410384
552, 125097700, 0.74865276, -0.36231735, 0.37364587, -0.41065064
553, 125114367, 0.74673074, -0.36402407, 0.37536648, -0.41107148
554, 125131034, 0.7448416, -0.36533034, 0.3772891, -0.4115797
555, 125147701, 0.7429603, -0.36646235, 0.37932947, -0.41209802
556, 125164368, 0.7413194, -0.36727116, 0.38111785, -0.4126824
557, 125181035, 0.7398487, -0.36813098, 0.3825184, -0.4132594
558, 125197702, 0.73841685, -0.36864108, 0.38399106, -0.41399908
559, 125214369, 0.7371967, -0.3687395, 0.38542706, -0.41475093
560, 125231036, 0.73615766, -0.3686523, 0.38667536, -0.41551125
561, 125247703, 0.7352227, -0.36836898, 0.38782805, -0.41634277
562, 125264370, 0.73436457, -0.3681343, 0.38877615, -0.41717973
563, 125281037, 0.7335348, -0.36793634, 0.3896842, -0.41796613
564, 125297704, 0.73276854, -0.3677959, 0.39042658, -0.41874042
565, 125314371, 0.73202324, -0.3676295, 0.39108285, -0.4195769
566, 125331038, 0.7310931, -0.36763382, 0.39171076, -0.42060804
567, 125347705, 0.7298332, -0.3678325, 0.39253777, -0.42184946
568, 125364372, 0.7282946, -0.368102, 0.39377686, -0.4231169
569, 125381039, 0.7264291, -0.36838013, 0.39547914, -0.42449155
570, 125397706, 0.7244648, -0.36854202, 0.39726225, -0.42604032
571, 125414373, 0.7226553, -0.36872658, 0.39875343, -0.42755818
572, 125431040, 0.72118413, -0.3688753, 0.39978713, -0.4289462
573, 125447707, 0.72016734, -0.36902753, 0.4003786, -0.42997074
574, 125464374, 0.71953124, -0.36888248, 0.4008441, -0.43072566
575, 125481041, 0.7192549, -0.3684299, 0.4011251, -0.4313125
576, 125497708, 0.71918386, -0.36786813, 0.40116152, -0.4318764
577, 125514375, 0.7191939, -0.3674286, 0.40097538, -0.4324064
578, 125531042, 0.71923083, -0.36707148, 0.4007488, -0.43285796
579, 125547709, 0.71935487, -0.36667034, 0.40054885, -0.43317708
580, 125564376, 0.71951294, -0.36616898, 0.40048885, -0.43339378
581, 125581043, 0.71963245, -0.36558512, 0.40058514, -0.43359944
582, 125597710, 0.71968794, -0.36516082, 0.40069875, -0.4337597
583, 125614377, 0.7197889, -0.36484936, 0.40080345, -0.43375742
584, 125631044, 0.71995574, -0.3646342, 0.4009115, -0.43356138
585, 125647711, 0.7201337, -0.36456814, 0.40090278, -0.4333297
586, 125664378, 0.7200221, -0.36458105, 0.40117344, -0.43325365
587, 125681045, 0.7197002, -0.36467606, 0.40172693, -0.43319583
588, 125697712, 0.7194701, -0.36482653, 0.40217242, -0.43303788
589, 125714379, 0.71919346, -0.36512956, 0.40254, -0.4329004
590, 125731046, 0.71889126, -0.36547673, 0.40286082, -0.43281114
591, 125747713, 0.7185307, -0.36582896, 0.40321794, -0.43277952
592, 125764380, 0.7181797, -0.3661336, 0.40354618, -0.43279883
593, 125781047, 0.71801484, -0.3663235, 0.4036836, -0.43278337
594, 125797714, 0.7180208, -0.36646804, 0.40357694, -0.43275052
595, 125814381, 0.71809185, -0.36661905, 0.4033649, -0.4327025
596, 125831048, 0.7181996, -0.36669543, 0.4031526, -0.4326569
597, 125847715, 0.7183314, -0.36677432, 0.40285146, -0.43265146
598, 125864382, 0.71845436, -0.3669364, 0.40244487, -0.43268847
599, 125881049, 0.7186421, -0.3670022, 0.4019796, -0.4327534
600, 125897716, 0.7189546, -0.36702043, 0.4013297, -0.43282184
601, 125914383, 0.71929294, -0.3670585, 0.40063095, -0.4328749
602, 125931050, 0.7196044, -0.3671681, 0.3998995, -0.43294054
603, 125947717, 0.7197508, -0.3674018, 0.3992319, -0.43311492
604, 125964384, 0.719805, -0.3677796, 0.39851645, -0.43336335
605, 125981051, 0.7199049, -0.36807987, 0.39784715, -0.43355736
606, 125997718, 0.72024727, -0.368118, 0.39712593, -0.43361753
607, 126014385, 0.7206953, -0.36817122, 0.3961598, -0.43371186
608, 126031052, 0.72114104, -0.36816373, 0.39498222, -0.43405107
609, 126047719, 0.72169334, -0.3678693, 0.39372417, -0.43452555
610, 126064386, 0.7225192, -0.36681288, 0.39254, -0.43511707
611, 126081053, 0.7236195, -0.3651298, 0.39124858, -0.43586648
612, 126097720, 0.725167, -0.36272445, 0.3897707, -0.43662634
613, 126114387, 0.72726995, -0.35975745, 0.38784033, -0.43730167
614, 126131054, 0.72976214, -0.35645658, 0.38556284, -0.43786672
615, 126147721, 0.73251104, -0.3526576, 0.3832354, -0.43839592
616, 126164388, 0.7351819, -0.34841368, 0.38117072, -0.43911776
617, 126181055, 0.7377474, -0.3437501, 0.37959933, -0.4398512
618, 126197722, 0.7406691, -0.33816546, 0.37807477, -0.4405824
619, 126214389, 0.74465436, -0.331749, 0.3753312, -0.44108865
620, 126231056, 0.74996793, -0.3249911, 0.37066394, -0.4410637
621, 126247723, 0.75608164, -0.3185008, 0.3646659, -0.44035962
622, 126264390, 0.76086795, -0.3123304, 0.36036637, -0.44007477
623, 126281057, 0.7643942, -0.30441305, 0.35861748, -0.44093966
624, 126297724, 0.7682565, -0.29475296, 0.35697666, -0.4421206
625, 126314391, 0.7727586, -0.28471723, 0.35405955, -0.44319537
626, 126331058, 0.7782405, -0.27565432, 0.34856188, -0.44369042
627, 126347725, 0.78418577, -0.26770675, 0.34135458, -0.4436925
628, 126364392, 0.7896179, -0.25976405, 0.33523306, -0.44344702
629, 126381059, 0.7947223, -0.2502386, 0.33042803, -0.44341242
630, 126397726, 0.7999548, -0.23982425, 0.32527888, -0.4435656
631, 126414393, 0.80537224, -0.2300854, 0.31832057, -0.44396892
632, 126431060, 0.8111242, -0.2220567, 0.30892664, -0.4442215
633, 126447727, 0.81601447, -0.2137868, 0.3010539, -0.44472727
634, 126464394, 0.82032096, -0.20302573, 0.2954798, -0.44558483
635, 126481061, 0.82481724, -0.19316947, 0.2895926, -0.4455315
636, 126497728, 0.8295032, -0.1848326, 0.282552, -0.4448887
637, 126514395, 0.8342734, -0.17790028, 0.2745397, -0.44381025
638, 126531062, 0.83857304, -0.17012405, 0.26748765, -0.44306177
639, 126547729, 0.84209496, -0.1603243, 0.2628023, -0.44284
640, 126564396, 0.845764, -0.15125605, 0.25725588, -0.4422945
641, 126581063, 0.8494983, -0.14451057, 0.25022912, -0.44142392
642, 126597730, 0.85379624, -0.14018492, 0.24115849, -0.43957123
643, 126614397, 0.8581242, -0.13501434, 0.23284164, -0.43724003
644, 126631064, 0.8614665, -0.12613294, 0.2277158, -0.43601778
645, 126647731, 0.8641002, -0.1176759, 0.22316799, -0.4355218
646, 126664398, 0.8666917, -0.110718675, 0.21839207, -0.43461725
647, 126681065, 0.87001264, -0.10548423, 0.2113474, -0.43276247
648, 126697732, 0.8740889, -0.100897044, 0.20287968, -0.42968392
649, 126714399, 0.87829655, -0.096162364, 0.19438304, -0.42610246
650, 126731066, 0.8821955, -0.09191675, 0.18601184, -0.4227079
651, 126747733, 0.8857628, -0.08800188, 0.1778437, -0.4195851
652, 126764400, 0.889161, -0.08379384, 0.17016502, -0.4164318
653, 126781067, 0.89243495, -0.07866265, 0.16361743, -0.41303936
654, 126797734, 0.8952766, -0.07349977, 0.15786941, -0.41006708
655, 126814401, 0.89790803, -0.06941872, 0.15285572, -0.4069119
656, 126831068, 0.90079236, -0.06533022, 0.14771692, -0.40309405
657, 126847735, 0.9037159, -0.060711544, 0.14244819, -0.3991497
658, 126864402, 0.90649265, -0.056230895, 0.13753574, -0.39521283
659, 126881069, 0.9089809, -0.051805876, 0.1333215, -0.3915295
660, 126897736, 0.91125053, -0.047224544, 0.12961726, -0.3880616
661, 126914403, 0.9133397, -0.04274557, 0.1266654, -0.38462922
662, 126931070, 0.91525674, -0.0382624, 0.12414668, -0.38135126
663, 126947737, 0.91717434, -0.033964545, 0.121348694, -0.37803754
664, 126964404, 0.9191963, -0.029950824, 0.11806857, -0.3744874
665, 126981071, 0.9211533, -0.026638642, 0.11423293, -0.37110355
666, 126997738, 0.9228648, -0.023535816, 0.11016987, -0.3682789
667, 127014405, 0.9242998, -0.019768316, 0.10714053, -0.3657871
668, 127031072, 0.92541426, -0.015981212, 0.10564569, -0.36358267
669, 127047739, 0.9262666, -0.0123476945, 0.10475008, -0.36180815
670, 127064406, 0.927108, -0.008754847, 0.10369518, -0.3600577
671, 127081073, 0.9279832, -0.005590726, 0.10205501, -0.35833073
672, 127097740, 0.92886984, -0.0028237943, 0.099974915, -0.35664815
673, 127114407, 0.9298718, -4.8573368E-4, 0.097681694, -0.3546782
674, 127131074, 0.93076193, 0.0011875735, 0.09543045, -0.35295048
675, 127147741, 0.93145555, 0.0023484738, 0.09342173, -0.35165006
676, 127164408, 0.9320657, 0.0026800695, 0.09144568, -0.35054803
677, 127181075, 0.93253165, 0.002703854, 0.0897629, -0.3497431
678, 127197742, 0.9327382, 0.0028426675, 0.089592524, -0.34923476
679, 127214409, 0.93260694, 0.0030697926, 0.090779126, -0.34927672
680, 127231076, 0.9324205, 0.0028455849, 0.09166457, -0.349545
681, 127247743, 0.93241495, 0.0019999128, 0.091365494, -0.34964406
682, 127264410, 0.9324585, 7.984307E-4, 0.090596706, -0.34973285
683, 127281077, 0.9323818, -2.2735159E-4, 0.090250604, -0.3500275
684, 127297744, 0.93217826, -7.9287076E-4, 0.0906946, -0.35045338
685, 127314411, 0.93204015, -0.0013790258, 0.09122903, -0.35068002
686, 127331078, 0.9320526, -0.002359584, 0.090840556, -0.3507426
687, 127347745, 0.9320593, -0.0034375552, 0.08995863, -0.3509434
688, 127364412, 0.9319779, -0.004215715, 0.08950041, -0.35126802
689, 127381079, 0.93189037, -0.0047150175, 0.08961603, -0.35146433
690, 127397746, 0.9318313, -0.005294936, 0.089738354, -0.35158145
691, 127414413, 0.93176895, -0.0060403394, 0.08965562, -0.35175568
692, 127431080, 0.93165845, -0.00683068, 0.08942983, -0.3520914
693, 127447747, 0.9315177, -0.0073802876, 0.089243196, -0.3524999
694, 127464414, 0.9314202, -0.0078171445, 0.089207225, -0.35275722
695, 127481081, 0.931344, -0.0083330115, 0.08926078, -0.35293272
696, 127497748, 0.9312095, -0.00899697, 0.08929583, -0.3532624
697, 127514415, 0.9310411, -0.009562754, 0.0893258, -0.35368365
698, 127531082, 0.93087196, -0.010030881, 0.08951069, -0.35406905
699, 127547749, 0.93074197, -0.010372769, 0.08987597, -0.3543084
700, 127564416, 0.9306711, -0.010581951, 0.09037883, -0.35436037
701, 127581083, 0.9306473, -0.010581486, 0.09127121, -0.35419407
702, 127597750, 0.93068117, -0.010445207, 0.09247729, -0.35379577
703, 127614417, 0.93072146, -0.010077719, 0.09388425, -0.35332936
704, 127631084, 0.93071896, -0.009575397, 0.09515484, -0.35301045
705, 127647751, 0.93079025, -0.009108438, 0.09601449, -0.3526015
706, 127664418, 0.9309193, -0.009019816, 0.096271746, -0.35219267
707, 127681085, 0.9309821, -0.009096061, 0.09619583, -0.35204563
708, 127697752, 0.9308759, -0.008974948, 0.09615896, -0.35233942
709, 127714419, 0.9306764, -0.008503957, 0.096503854, -0.3527833
710, 127731086, 0.9304752, -0.007973119, 0.09705168, -0.35317606
711, 127747753, 0.9302249, -0.0073947376, 0.09763709, -0.35368645
712, 127764420, 0.9299074, -0.006864485, 0.09804875, -0.35441753
713, 127781087, 0.9295526, -0.0061441627, 0.098465584, -0.3552452
714, 127797754, 0.92925787, -0.0054034446, 0.09899274, -0.35588065
715, 127814421, 0.92908496, -0.004934546, 0.099121734, -0.35630286
716, 127831088, 0.9289247, -0.00454152, 0.09895118, -0.3567731
717, 127847755, 0.92869663, -0.00398341, 0.09906153, -0.3573424
718, 127864422, 0.92853314, -0.0033075432, 0.09927938, -0.3577135
719, 127881089, 0.92845887, -0.0027751422, 0.09933914, -0.35789463
720, 127897756, 0.92840105, -0.0023641014, 0.099455476, -0.35801497
721, 127914423, 0.928312, -0.0018428334, 0.09974083, -0.35816962
722, 127931090, 0.92823344, -0.0010192794, 0.100467905, -0.35817343
723, 127947757, 0.92826176, -1.8405325E-4, 0.10126549, -0.35787642
724, 127964424, 0.9284276, 5.5682973E-4, 0.10174288, -0.35731027
725, 127981091, 0.92864937, 0.0013264798, 0.10219597, -0.35660204
726, 127997758, 0.92887676, 0.0022510546, 0.10293011, -0.35579273
727, 128014425, 0.9291056, 0.0031804084, 0.1039962, -0.3548771
728, 128031092, 0.9293914, 0.0040119197, 0.10479953, -0.35388222
729, 128047759, 0.9297978, 0.004644651, 0.105513476, -0.3525923
730, 128064426, 0.9303887, 0.0051743705, 0.10599733, -0.3508772
731, 128081093, 0.9311551, 0.006016676, 0.1071163, -0.3484831
732, 128097760, 0.9320488, 0.007091616, 0.1087835, -0.34554467
733, 128114427, 0.9330497, 0.008115709, 0.11026134, -0.34233746
734, 128131094, 0.9342017, 0.009336265, 0.11187836, -0.33861953
735, 128147761, 0.9354512, 0.01086248, 0.11429632, -0.3342898
736, 128164428, 0.93677664, 0.012331925, 0.11696064, -0.32957205
737, 128181095, 0.9383149, 0.013355693, 0.118946314, -0.32440504
738, 128197762, 0.9401221, 0.013876073, 0.11970335, -0.31882468
739, 128214429, 0.9420875, 0.013928924, 0.11966745, -0.31298086
740, 128231096, 0.9440453, 0.013647011, 0.11964148, -0.30704784
741, 128247763, 0.9460021, 0.013258798, 0.11979756, -0.30091995
742, 128264430, 0.9480703, 0.012906383, 0.12014748, -0.29421237
743, 128281097, 0.950361, 0.012410715, 0.11999475, -0.28681198
744, 128297764, 0.95284706, 0.011762989, 0.11922684, -0.27879944
745, 128314431, 0.95549697, 0.011164964, 0.11813809, -0.2700819
746, 128331098, 0.9582497, 0.010581126, 0.11690483, -0.26072773
747, 128347765, 0.9610134, 0.009903618, 0.11586425, -0.2508604
748, 128364432, 0.96364826, 0.009654113, 0.11571042, -0.24062407
749, 128381099, 0.96611124, 0.009630688, 0.1164904, -0.23014481
750, 128397766, 0.9684661, 0.009340329, 0.11727531, -0.21962012
751, 128414433, 0.9708542, 0.00886205, 0.11745047, -0.2087325
752, 128431100, 0.973216, 0.008456817, 0.117407575, -0.19747105
753, 128447767, 0.9754437, 0.008034586, 0.11745748, -0.18614215
754, 128464434, 0.9775715, 0.00721208, 0.11710871, -0.17489414
755, 128481101, 0.97962797, 0.006323386, 0.11629828, -0.16359697
756, 128497768, 0.98154837, 0.0054955194, 0.115678415, -0.15215567
757, 128514435, 0.98330146, 0.0045491136, 0.11529578, -0.14072911
758, 128531102, 0.98490083, 0.003327681, 0.11480911, -0.12953107
759, 128547769, 0.9863256, 0.002298614, 0.11433437, -0.118677355
760, 128564436, 0.9876625, 0.001169808, 0.1136022, -0.1077783
761, 128581103, 0.98894626, -2.1994347E-4, 0.11221069, -0.09692415
762, 128597770, 0.9901333, -0.0017068128, 0.11051564, -0.08613643
763, 128614437, 0.9911423, -0.0031240196, 0.109324194, -0.075336955
764, 128631104, 0.9919691, -0.004382914, 0.10873907, -0.064453825
765, 128647771, 0.99266046, -0.005630861, 0.108391926, -0.05333703
766, 128664438, 0.9931795, -0.00692997, 0.10847538, -0.0421888
767, 128681105, 0.99349195, -0.008242953, 0.10921509, -0.031272527
768, 128697772, 0.99362826, -0.009676245, 0.110388264, -0.020585649
769, 128714439, 0.9936643, -0.011192858, 0.111393124, -0.009883235
770, 128731106, 0.9936137, -0.012822152, 0.11210079, 9.195348E-4
771, 128747773, 0.99339944, -0.014473132, 0.113188244, 0.011688863
772, 128764440, 0.992964, -0.016015263, 0.115183465, 0.022338428
773, 128781107, 0.9922753, -0.017502828, 0.118224226, 0.033265494
774, 128797774, 0.9913475, -0.019030208, 0.12192634, 0.04474657
775, 128814441, 0.9902574, -0.020513715, 0.12569198, 0.056314457
776, 128831108, 0.98909765, -0.021752728, 0.1290628, 0.06749345
777, 128847775, 0.9879876, -0.023033317, 0.13126424, 0.078229465
778, 128864442, 0.98701257, -0.024101116, 0.13181898, 0.08859758
779, 128881109, 0.98613304, -0.024929298, 0.13123794, 0.098472714
780, 128897776, 0.98523134, -0.025701996, 0.13050885, 0.10782483
781, 128914443, 0.98432684, -0.026661752, 0.12919238, 0.11704509
782, 128931110, 0.98345834, -0.02768477, 0.12709703, 0.1260547
783, 128947777, 0.98256356, -0.028806994, 0.12518448, 0.13441801
784, 128964444, 0.9816127, -0.030305488, 0.12387332, 0.14203326
785, 128981111, 0.98057836, -0.031902526, 0.12308611, 0.1493254
786, 128997778, 0.9794278, -0.033617444, 0.122740895, 0.15660676
787, 129014445, 0.97817445, -0.035601426, 0.12279391, 0.16379659
788, 129031112, 0.97690916, -0.03745372, 0.123013504, 0.17062722
789, 129047779, 0.97557265, -0.03935917, 0.12346394, 0.17738509
790, 129064446, 0.97416294, -0.041356534, 0.12379238, 0.18431377
791, 129081113, 0.97285455, -0.043170586, 0.12320259, 0.19107981
792, 129097780, 0.9716625, -0.04497004, 0.1219755, 0.19741273
793, 129114447, 0.9705139, -0.046647083, 0.12059942, 0.20342793
794, 129131114, 0.9693482, -0.04823958, 0.11916947, 0.20937015
795, 129147781, 0.96806526, -0.050124448, 0.11801696, 0.21542816
796, 129164448, 0.96676797, -0.052191086, 0.117182106, 0.22114313
797, 129181115, 0.96554035, -0.05427615, 0.11631906, 0.22639777
798, 129197782, 0.96440667, -0.05617208, 0.11517605, 0.23129913
799, 129214449, 0.96331054, -0.058061708, 0.11349995, 0.23617668
800, 129231116, 0.9623159, -0.059791937, 0.11105858, 0.24091336
801, 129247783, 0.96149987, -0.06143157, 0.108111374, 0.24506374
802, 129264450, 0.9607059, -0.06295358, 0.10551355, 0.24889386
803, 129281117, 0.9598285, -0.06436195, 0.10360128, 0.25269282
804, 129297784, 0.95895207, -0.06578222, 0.102124505, 0.25623128
805, 129314451, 0.9582422, -0.06703758, 0.10089856, 0.25903204
806, 129331118, 0.95767933, -0.067942426, 0.09984238, 0.2612772
807, 129347785, 0.95724267, -0.068263814, 0.09880874, 0.26318
808, 129364452, 0.95700276, -0.06780065, 0.09743054, 0.264681
809, 129381119, 0.9570489, -0.06664024, 0.09547055, 0.26552224
810, 129397786, 0.9573535, -0.06436722, 0.09332069, 0.2657494
811, 129414453, 0.95763075, -0.06032365, 0.091346994, 0.26638344
812, 129431120, 0.95769376, -0.054562695, 0.089465044, 0.26803306
813, 129447787, 0.95770174, -0.047258727, 0.08724317, 0.2701161
814, 129464454, 0.9576972, -0.03871852, 0.08525903, 0.27211797
815, 129481121, 0.957652, -0.029127592, 0.083832785, 0.27390972
816, 129497788, 0.9575518, -0.018612396, 0.08227729, 0.27564242
817, 129514455, 0.9574862, -0.0073260143, 0.08007332, 0.27704725
818, 129531122, 0.957457, 0.004575914, 0.077802554, 0.27785283
819, 129547789, 0.95737994, 0.01704539, 0.075658344, 0.2782247
820, 129564456, 0.9572702, 0.029931296, 0.07326493, 0.27815524
821, 129581123, 0.9571123, 0.043612227, 0.06982462, 0.2777745
822, 129597790, 0.9567793, 0.05838912, 0.065004244, 0.27737787
823, 129614457, 0.956188, 0.07369863, 0.059173767, 0.27707666
824, 129631124, 0.95540696, 0.088474475, 0.05386047, 0.27653006
825, 129647791, 0.95447785, 0.1025567, 0.050064422, 0.27558663
826, 129664458, 0.9533677, 0.115868494, 0.048028454, 0.2745141
827, 129681125, 0.9521187, 0.12853181, 0.047268514, 0.2733412
828, 129697792, 0.95074046, 0.14086835, 0.047015883, 0.27210012
829, 129714459, 0.9492461, 0.15289083, 0.04662198, 0.27089262
830, 129731126, 0.947683, 0.16448179, 0.045806587, 0.2697123
831, 129747793, 0.94612175, 0.17575742, 0.045008387, 0.268211
832, 129764460, 0.94454837, 0.18682662, 0.0447347, 0.26631376
833, 129781127, 0.94296634, 0.19759923, 0.04467348, 0.26414636
834, 129797794, 0.94137615, 0.20800461, 0.04467255, 0.2618199
835, 129814461, 0.9398322, 0.21794079, 0.0445673, 0.25928968
836, 129831128, 0.9382884, 0.22771977, 0.044139206, 0.25653556
837, 129847795, 0.9367464, 0.23728621, 0.043450374, 0.25360146
838, 129864462, 0.935254, 0.24648261, 0.042684607, 0.25044832
839, 129881129, 0.93376285, 0.25525722, 0.042305637, 0.24726719
840, 129897796, 0.9322333, 0.2637013, 0.04226734, 0.24416474
841, 129914463, 0.93067986, 0.27189362, 0.042299297, 0.24108022
842, 129931130, 0.9291345, 0.27972054, 0.04236089, 0.23805714
843, 129947797, 0.92767024, 0.28704196, 0.042501163, 0.23500769
844, 129964464, 0.9261873, 0.29413572, 0.043039083, 0.23196779
845, 129981131, 0.92467093, 0.30107793, 0.043537773, 0.22899863
846, 129997798, 0.9231447, 0.30802923, 0.043410014, 0.22591522
847, 130014465, 0.92166764, 0.3149811, 0.042567942, 0.22249447
848, 130031132, 0.9202528, 0.32168278, 0.041777555, 0.21888325
849, 130047799, 0.91885626, 0.32809773, 0.04143945, 0.21526234
850, 130064466, 0.9174662, 0.3342028, 0.041409753, 0.21177703
851, 130081133, 0.9161012, 0.34010145, 0.041364145, 0.20827585
852, 130097800, 0.91473556, 0.34587258, 0.041350972, 0.20474787
853, 130114467, 0.91329503, 0.35166103, 0.041325048, 0.20129393
854, 130131134, 0.9118598, 0.35742155, 0.041039757, 0.1976798
855, 130147801, 0.9104281, 0.3633293, 0.04031672, 0.19361582
856, 130164468, 0.9090654, 0.36902574, 0.039566744, 0.18935294
857, 130181135, 0.90778214, 0.37435094, 0.039152455, 0.18509507
858, 130197802, 0.9064199, 0.3795261, 0.03940328, 0.18113634
859, 130214469, 0.90495676, 0.38461182, 0.040069226, 0.1775431
860, 130231136, 0.9035491, 0.38937098, 0.04070669, 0.17416193
861, 130247803, 0.9023382, 0.3937707, 0.040782444, 0.17049111
862, 130264470, 0.9011317, 0.39815658, 0.0408523, 0.16662519
863, 130281137, 0.89984107, 0.4026028, 0.041197818, 0.16278815
864, 130297804, 0.8985964, 0.40690687, 0.041490883, 0.15883946
865, 130314471, 0.89747685, 0.41108614, 0.04128921, 0.1543982
866, 130331138, 0.8962972, 0.4155313, 0.040688753, 0.14943123
867, 130347805, 0.89511347, 0.41993922, 0.040142648, 0.14426337
868, 130364472, 0.8939906, 0.424156, 0.03974609, 0.13889869
869, 130381139, 0.89301133, 0.42811394, 0.03928909, 0.13306299
870, 130397806, 0.89215195, 0.43185484, 0.03867128, 0.12677072
871, 130414473, 0.89137846, 0.43528196, 0.038278453, 0.12045364
872, 130431140, 0.8907193, 0.43837693, 0.0380747, 0.11399658
873, 130447807, 0.8901216, 0.44129732, 0.037997056, 0.10722221
874, 130464474, 0.8896266, 0.44385552, 0.03822352, 0.100478984
875, 130481141, 0.88932, 0.4458767, 0.038912717, 0.0937541
876, 130497808, 0.88911813, 0.44753724, 0.04018502, 0.0869758
877, 130514475, 0.8889136, 0.44913292, 0.04164636, 0.07986317
878, 130531142, 0.8887722, 0.4505328, 0.042862505, 0.072575256
879, 130547809, 0.88877285, 0.45153284, 0.043848284, 0.065411374
880, 130564476, 0.8888532, 0.4523056, 0.044646244, 0.058018923
881, 130581143, 0.88886774, 0.45310175, 0.04546809, 0.050455194
882, 130597810, 0.8888909, 0.45370004, 0.0466069, 0.04309379
883, 130614477, 0.8890831, 0.4538738, 0.047569115, 0.03559601
884, 130631144, 0.88943666, 0.45371175, 0.047868308, 0.02751496
885, 130647811, 0.8898454, 0.45336452, 0.047700882, 0.018988926
886, 130664478, 0.89022547, 0.45287725, 0.04776909, 0.010916239
887, 130681145, 0.89063627, 0.45205513, 0.048991494, 0.0036724503
888, 130697812, 0.8910671, 0.45094708, 0.05134094, -0.0032502871
889, 130714479, 0.89155173, 0.44951433, 0.054536335, -0.009910294
890, 130731146, 0.8920934, 0.44780952, 0.057926055, -0.016750015
891, 130747813, 0.89265454, 0.44595805, 0.061046395, -0.023716943
892, 130764480, 0.89319646, 0.4440582, 0.06375498, -0.030785974
893, 130781147, 0.893897, 0.44172662, 0.06624191, -0.03792026
894, 130797814, 0.8948278, 0.43866628, 0.06920376, -0.045455914
895, 130814481, 0.89573455, 0.43527982, 0.072705105, -0.05390091
896, 130831148, 0.89650786, 0.43190834, 0.07662734, -0.062107045
897, 130847815, 0.8972629, 0.4284879, 0.080055386, -0.07006213
898, 130864482, 0.89817315, 0.42467082, 0.08148779, -0.07937031
899, 130881149, 0.89931107, 0.42017716, 0.081285104, -0.08990955
900, 130897816, 0.9003824, 0.41557923, 0.080837235, -0.100355364
901, 130914483, 0.9011701, 0.41133952, 0.08159858, -0.10970067
902, 130931150, 0.9017981, 0.40719315, 0.083031446, -0.11857395
903, 130947817, 0.9023721, 0.40301186, 0.083714195, -0.12766445
904, 130964484, 0.90292776, 0.3986999, 0.08345841, -0.13709435
905, 130981151, 0.9033953, 0.3942147, 0.083302766, -0.14673969
906, 130997818, 0.9035671, 0.39021766, 0.08387952, -0.15575993
907, 131014485, 0.9036046, 0.3866358, 0.08497526, -0.16367884
908, 131031152, 0.90365815, 0.3828119, 0.08612994, -0.17157808
909, 131047819, 0.9036727, 0.37854594, 0.08748008, -0.18007205
910, 131064486, 0.903431, 0.3747679, 0.08893357, -0.18828844
911, 131081153, 0.9030755, 0.37157792, 0.09009032, -0.1956223
912, 131097820, 0.90287894, 0.36825702, 0.090976916, -0.20228653
913, 131114487, 0.9028069, 0.36432785, 0.091369085, -0.20942035
914, 131131154, 0.9026707, 0.36007637, 0.0914812, -0.21716787
915, 131147821, 0.90251935, 0.35592854, 0.09144522, -0.22452573
916, 131164488, 0.90245306, 0.3518328, 0.09105656, -0.23130311
917, 131181155, 0.9025139, 0.34726447, 0.09049994, -0.2380882
918, 131197822, 0.90257376, 0.3421744, 0.08999526, -0.24531274
919, 131214489, 0.90261865, 0.3369119, 0.089658126, -0.2524513
920, 131231156, 0.9026921, 0.3315802, 0.090047576, -0.25902337
921, 131247823, 0.90278256, 0.3259889, 0.09113769, -0.26534677
922, 131264490, 0.9026207, 0.32071343, 0.09430784, -0.2711548
923, 131281157, 0.90215015, 0.31577644, 0.09997039, -0.27643508
924, 131297824, 0.901587, 0.31060684, 0.10624872, -0.2817368
925, 131314491, 0.9012271, 0.3044982, 0.111876264, -0.28732246
926, 131331158, 0.90103954, 0.2980868, 0.116771065, -0.29263738
927, 131347825, 0.9010263, 0.2920429, 0.121131375, -0.29696783
928, 131364492, 0.9012335, 0.28585875, 0.12392196, -0.3011754
929, 131381159, 0.90171725, 0.27895042, 0.12489776, -0.305767
930, 131397826, 0.9023585, 0.27170315, 0.12464727, -0.3104667
931, 131414493, 0.9029172, 0.26500764, 0.12466841, -0.31459388
932, 131431160, 0.90332836, 0.25886554, 0.12571366, -0.31809208
933, 131447827, 0.9036193, 0.25233227, 0.12727979, -0.32187054
934, 131464494, 0.903742, 0.24550337, 0.1289251, -0.3261241
935, 131481161, 0.9037659, 0.23975913, 0.13049836, -0.3296864
936, 131497828, 0.90394455, 0.23428112, 0.13148049, -0.3327313
937, 131514495, 0.9042185, 0.22824211, 0.13169293, -0.33608294
938, 131531162, 0.9041251, 0.22208583, 0.13284114, -0.3399839
939, 131547829, 0.9037665, 0.21679854, 0.13440068, -0.34371698
940, 131564496, 0.90370786, 0.21204655, 0.13530806, -0.34646803
941, 131581163, 0.9040874, 0.20695174, 0.13464342, -0.34881
942, 131597830, 0.90438956, 0.20136772, 0.13396399, -0.3515458
943, 131614497, 0.9042863, 0.19635832, 0.13439453, -0.3544687
944, 131631164, 0.904246, 0.19232878, 0.13487577, -0.35659125
945, 131647831, 0.9047659, 0.18802923, 0.13372353, -0.35799718
946, 131664498, 0.9056199, 0.18277784, 0.1307757, -0.3596425
947, 131681165, 0.9063391, 0.17729445, 0.12767445, -0.36168426
948, 131697832, 0.9067794, 0.17275962, 0.125914, -0.36338836
949, 131714499, 0.90717846, 0.16871315, 0.12549764, -0.364436
950, 131731166, 0.90758216, 0.16466236, 0.12527142, -0.36536026
951, 131747833, 0.908398, 0.16050379, 0.1256794, -0.36504325
952, 131764500, 0.9089353, 0.15700369, 0.12695785, -0.36478528
953, 131781167, 0.909433, 0.15382762, 0.1283436, -0.3644131
954, 131797834, 0.9096102, 0.15022945, 0.12870525, -0.36534333
955, 131814501, 0.90981853, 0.14627293, 0.12856884, -0.366476
956, 131831168, 0.9104067, 0.14264001, 0.12868345, -0.36640695
957, 131847835, 0.91057, 0.13921723, 0.12849443, -0.3673828
958, 131864502, 0.91086686, 0.13532156, 0.127591, -0.36841622
959, 131881169, 0.9109923, 0.13134171, 0.12693432, -0.3697706
960, 131897836, 0.910822, 0.12759472, 0.12739825, -0.3713393
961, 131914503, 0.91066974, 0.124158934, 0.12824738, -0.37258247
962, 131931170, 0.9106395, 0.12050202, 0.12873453, -0.373688
963, 131947837, 0.9105473, 0.116614915, 0.12927598, -0.3749566
964, 131964504, 0.91026473, 0.11265349, 0.13056925, -0.37640285
965, 131981171, 0.9098954, 0.10906928, 0.13237889, -0.37771702
966, 131997838, 0.9096882, 0.10532901, 0.13364856, -0.37882894
967, 132014505, 0.9096331, 0.10121331, 0.13404728, -0.37994084
968, 132031172, 0.9094909, 0.09662591, 0.1344072, -0.38134593
969, 132047839, 0.9091334, 0.09211656, 0.13537557, -0.38296837
970, 132064506, 0.90879595, 0.08802081, 0.13685064, -0.38420603
971, 132081173, 0.9085887, 0.08363787, 0.13789454, -0.3853007
972, 132097840, 0.90840304, 0.07889354, 0.13843974, -0.38654152
973, 132114507, 0.90806556, 0.073982775, 0.13932365, -0.38798493
974, 132131174, 0.9076758, 0.06937717, 0.14039348, -0.38935968
975, 132147841, 0.9074389, 0.064413734, 0.14089523, -0.390582
976, 132164508, 0.90722847, 0.058952514, 0.1408987, -0.39192992
977, 132181175, 0.9068558, 0.053171705, 0.14108802, -0.39354792
978, 132197842, 0.90628225, 0.047398422, 0.14191738, -0.39530423
979, 132214509, 0.9058079, 0.04117985, 0.14249745, -0.39687616
980, 132231176, 0.9054299, 0.03402991, 0.14239086, -0.39845124
981, 132247843, 0.90504146, 0.025836557, 0.14184189, -0.40014184
982, 132264510, 0.90457296, 0.017456729, 0.14155293, -0.40175343
983, 132281177, 0.90403473, 0.009753085, 0.14261332, -0.40284956
984, 132297844, 0.90339184, 0.0024728458, 0.1449946, -0.40355125
985, 132314511, 0.9025722, -0.0046432344, 0.14813356, -0.40422574
986, 132331178, 0.9017006, -0.011690264, 0.15120853, -0.40488943
987, 132347845, 0.9010544, -0.018948834, 0.15362048, -0.4051454
988, 132364512, 0.9004883, -0.026472906, 0.15554748, -0.40524688
989, 132381179, 0.89971364, -0.033701215, 0.15775056, -0.4055792
990, 132397846, 0.8988573, -0.040203754, 0.16032656, -0.40587553
991, 132414513, 0.8981858, -0.04615267, 0.16283035, -0.40573213
992, 132431180, 0.8975289, -0.052325256, 0.1647387, -0.40566632
993, 132447847, 0.8965654, -0.058591004, 0.16649337, -0.4062236
994, 132464514, 0.89548707, -0.064237736, 0.16825382, -0.4070225
995, 132481181, 0.8947678, -0.069352865, 0.16950987, -0.40724352
996, 132497848, 0.8942154, -0.074666865, 0.16936217, -0.40757844
997, 132514515, 0.8934738, -0.08004248, 0.16841307, -0.40857688
998, 132531182, 0.8926028, -0.08498952, 0.16762827, -0.40980238
999, 132547849, 0.8919978, -0.08867189, 0.1675894, -0.41035494
1000, 132564516, 0.8915188, -0.09174118, 0.16776301, -0.41065037
1001, 132581183, 0.8911586, -0.09437182, 0.16765065, -0.41088164
1002, 132597850, 0.8909306, -0.09659733, 0.16750202, -0.4109196
1003, 132614517, 0.890663, -0.09827164, 0.16775875, -0.41099778
1004, 132631184, 0.89051205, -0.09947627, 0.16808948, -0.4108999
1005, 132647851, 0.8906192, -0.10065518, 0.16766946, -0.4105523
1006, 132664518, 0.89082205, -0.10172111, 0.16685493, -0.4101812
1007, 132681185, 0.89097995, -0.102506764, 0.16625495, -0.40988615
1008, 132697852, 0.89105594, -0.102890134, 0.16626623, -0.40962037
1009, 132714519, 0.8910606, -0.10297508, 0.16672201, -0.4094029
1010, 132731186, 0.89108795, -0.10298505, 0.16712184, -0.40917814
1011, 132747853, 0.891256, -0.10298948, 0.16720974, -0.40877512
1012, 132764520, 0.8915251, -0.10301836, 0.16696396, -0.4082811
1013, 132781187, 0.89184576, -0.1029616, 0.16652678, -0.40777344
1014, 132797854, 0.8921501, -0.10287603, 0.16605897, -0.40731958
1015, 132814521, 0.8924083, -0.10273977, 0.16557747, -0.4069845
1016, 132831188, 0.89262545, -0.10262465, 0.16510321, -0.40672997
1017, 132847855, 0.89284444, -0.10235166, 0.16468503, -0.40648764
1018, 132864522, 0.8930564, -0.101923585, 0.16440007, -0.4062442
1019, 132881189, 0.8931604, -0.10142464, 0.1642008, -0.40622148
1020, 132897856, 0.8932363, -0.10093027, 0.16411434, -0.40621263
1021, 132914523, 0.8933235, -0.1004773, 0.16402182, -0.40617076
1022, 132931190, 0.8935073, -0.10006186, 0.16370662, -0.40599608
1023, 132947857, 0.89377767, -0.09957641, 0.1630903, -0.40576795
1024, 132964524, 0.89408964, -0.09907989, 0.16222453, -0.40554917
1025, 132981191, 0.8943882, -0.098654434, 0.16135113, -0.4053432
1026, 132997858, 0.8946365, -0.09822369, 0.16071332, -0.40515321
1027, 133014525, 0.8948529, -0.097602315, 0.16038707, -0.40495467
1028, 133031192, 0.895032, -0.09684621, 0.16029337, -0.40477726
1029, 133047859, 0.8951371, -0.096057445, 0.16029125, -0.40473384
1030, 133064526, 0.8951067, -0.09518476, 0.1605181, -0.4049173
1031, 133081193, 0.8950534, -0.094209015, 0.1608674, -0.40512455
1032, 133097860, 0.8951768, -0.0931926, 0.16091885, -0.40506673
1033, 133114527, 0.89544296, -0.09233953, 0.16047753, -0.40484858
1034, 133131194, 0.8957276, -0.09176383, 0.15962441, -0.40468737
1035, 133147861, 0.895915, -0.091236286, 0.15884416, -0.4046986
1036, 133164528, 0.8960039, -0.090552084, 0.15854898, -0.4047713
1037, 133181195, 0.8961032, -0.08972224, 0.15844448, -0.4047769
1038, 133197862, 0.8962286, -0.08911091, 0.15813254, -0.4047562
1039, 133214529, 0.8963276, -0.08867256, 0.15770572, -0.40479997
1040, 133231196, 0.8963691, -0.08838494, 0.15724707, -0.40494952
1041, 133247863, 0.896374, -0.08800895, 0.15700656, -0.40511358
1042, 133264530, 0.8963463, -0.08755931, 0.15705347, -0.40525436
1043, 133281197, 0.8962541, -0.086987205, 0.15740858, -0.40544382
1044, 133297864, 0.89607406, -0.08647452, 0.15797725, -0.40573004
1045, 133314531, 0.8958807, -0.086179756, 0.15835778, -0.4060714
1046, 133331198, 0.89577186, -0.08609383, 0.15838803, -0.40631765
1047, 133347865, 0.895768, -0.086303346, 0.15802036, -0.406425
1048, 133364532, 0.8957843, -0.08674653, 0.15746184, -0.40651095
1049, 133381199, 0.89565575, -0.08733776, 0.1570255, -0.40683678
1050, 133397866, 0.8954932, -0.087816976, 0.15670593, -0.40721416
1051, 133414533, 0.8954681, -0.088190965, 0.15629223, -0.4073475
1052, 133431200, 0.89543706, -0.08863031, 0.15590543, -0.40746868
1053, 133447867, 0.8952835, -0.089004315, 0.15578923, -0.40776902
1054, 133464534, 0.8950365, -0.08911595, 0.15600507, -0.408204
1055, 133481201, 0.8947668, -0.08899125, 0.15651435, -0.40862757
1056, 133497868, 0.89453685, -0.08894894, 0.15687925, -0.40899974
1057, 133514535, 0.8943765, -0.08902286, 0.15690033, -0.40932608
1058, 133531202, 0.89416856, -0.089145534, 0.1568872, -0.40975854
1059, 133547869, 0.8939134, -0.08922689, 0.15691495, -0.410287
1060, 133564536, 0.89366347, -0.08932929, 0.15693365, -0.41080114
1061, 133581203, 0.89338773, -0.08942935, 0.15700184, -0.41135314
1062, 133597870, 0.89308566, -0.0895339, 0.15716213, -0.41192466
1063, 133614537, 0.892821, -0.08963886, 0.1573738, -0.41239426
1064, 133631204, 0.89265203, -0.08946913, 0.1577538, -0.41265172
1065, 133647871, 0.89253104, -0.089213826, 0.15822321, -0.4127888
1066, 133664538, 0.8924136, -0.08905359, 0.15847987, -0.41297892
1067, 133681205, 0.8923102, -0.08895707, 0.15845008, -0.41323462
1068, 133697872, 0.8922889, -0.08899029, 0.15817632, -0.41337845
1069, 133714539, 0.89235353, -0.089238286, 0.15768266, -0.41337386
1070, 133731206, 0.89239836, -0.089448854, 0.15724067, -0.4134003
1071, 133747873, 0.89244014, -0.08945346, 0.15705682, -0.41337875
1072, 133764540, 0.8924732, -0.089241765, 0.15709795, -0.4133375
1073, 133781207, 0.89246696, -0.08898992, 0.1572711, -0.4133394
1074, 133797874, 0.8923905, -0.0887357, 0.15756266, -0.41344845
1075, 133814541, 0.8922979, -0.0884774, 0.15790798, -0.4135713
1076, 133831208, 0.8922652, -0.08823989, 0.15815058, -0.41359985
1077, 133847875, 0.89230543, -0.08821656, 0.15802185, -0.41356745
1078, 133864542, 0.892358, -0.088327155, 0.15770729, -0.41355053
1079, 133881209, 0.8923425, -0.088434406, 0.15752341, -0.41363123
1080, 133897876, 0.89225423, -0.08846491, 0.1575632, -0.4138
1081, 133914543, 0.8921927, -0.0884505, 0.15764324, -0.41390482
1082, 133931210, 0.892108, -0.08851042, 0.1577188, -0.41404614
1083, 133947877, 0.8919898, -0.08862749, 0.15780187, -0.41424403
1084, 133964544, 0.8918919, -0.08872508, 0.15793836, -0.41438192
1085, 133981211, 0.89179164, -0.08886801, 0.15809761, -0.4145063
1086, 133997878, 0.8916724, -0.08902269, 0.158273, -0.41466263
1087, 134014545, 0.89152133, -0.08912584, 0.15844509, -0.41489935
1088, 134031212, 0.891375, -0.08923832, 0.15859805, -0.4151312
1089, 134047879, 0.8912667, -0.08935178, 0.15872379, -0.41529113
1090, 134064546, 0.8911856, -0.089450195, 0.15876609, -0.4154278
1091, 134081213, 0.8911056, -0.089485094, 0.15879962, -0.4155792
1092, 134097880, 0.89099264, -0.08959363, 0.15889892, -0.41576022
1093, 134114547, 0.8908393, -0.089693695, 0.15912169, -0.4159817
1094, 134131214, 0.89064264, -0.089646034, 0.15948643, -0.41627336
1095, 134147881, 0.8904915, -0.0895527, 0.15971835, -0.41652805
1096, 134164548, 0.8904863, -0.08960072, 0.15956244, -0.41658843
1097, 134181215, 0.8905967, -0.08984611, 0.1590558, -0.41649324
1098, 134197882, 0.89068735, -0.09009026, 0.15859285, -0.41642308
1099, 134214549, 0.89066833, -0.08994997, 0.15866128, -0.41646793
1100, 134231216, 0.8905409, -0.089556694, 0.15912431, -0.41664824
1101, 134247883, 0.89046544, -0.08924476, 0.15947899, -0.41674134
1102, 134264550, 0.8904934, -0.08908725, 0.15950586, -0.4167048
1103, 134281217, 0.89059556, -0.08899949, 0.1592945, -0.4165862
1104, 134297884, 0.89070064, -0.08894355, 0.15900233, -0.41648507
1105, 134314551, 0.8907778, -0.088880174, 0.15874699, -0.41643095
1106, 134331218, 0.8908473, -0.0887716, 0.15857632, -0.41637048
1107, 134347885, 0.8909442, -0.08860533, 0.15838885, -0.4162701
1108, 134364552, 0.891042, -0.088364646, 0.15827422, -0.41615534
1109, 134381219, 0.8910847, -0.08808034, 0.15830673, -0.41611195
1110, 134397886, 0.8910542, -0.08783541, 0.15848128, -0.4161626
1111, 134414553, 0.8910677, -0.087686546, 0.15848035, -0.41616526
1112, 134431220, 0.8912093, -0.087648496, 0.1581833, -0.4159832
1113, 134447887, 0.8913475, -0.08754949, 0.1579069, -0.41581267
1114, 134464554, 0.8913727, -0.08733727, 0.15795112, -0.4157869
1115, 134481221, 0.891306, -0.087105274, 0.1582112, -0.41587934
1116, 134497888, 0.89125717, -0.08693967, 0.15833537, -0.41597137
1117, 134514555, 0.8913238, -0.08687044, 0.15821438, -0.41588923
1118, 134531222, 0.8914205, -0.08688874, 0.15799558, -0.41576108
1119, 134547889, 0.89144975, -0.086909406, 0.15794066, -0.41571498
1120, 134564556, 0.8914062, -0.08691322, 0.15803157, -0.41577306
1121, 134581223, 0.89142615, -0.08684645, 0.15797567, -0.41576555
1122, 134597890, 0.8914513, -0.08677765, 0.15790336, -0.41575325
1123, 134614557, 0.89146215, -0.086809024, 0.157902, -0.415724
1124, 134631224, 0.89148575, -0.08697472, 0.15783425, -0.41566452
1125, 134647891, 0.8915193, -0.08721105, 0.1577036, -0.41559276
1126, 134664558, 0.891544, -0.087337695, 0.15768674, -0.41551948
1127, 134681225, 0.8914855, -0.08737845, 0.15785223, -0.4155737
1128, 134697892, 0.8913627, -0.08743404, 0.15816174, -0.41570765
1129, 134714559, 0.89124244, -0.087581694, 0.15847391, -0.41581562
1130, 134731226, 0.89115304, -0.08791202, 0.15862961, -0.41587782
1131, 134747893, 0.8910929, -0.08835173, 0.15870391, -0.4158854
1132, 134764560, 0.8909371, -0.08872848, 0.15921679, -0.41594318
1133, 134781227, 0.89052534, -0.089035265, 0.1603593, -0.41632017
1134, 134797894, 0.8897677, -0.08921562, 0.16214992, -0.4172065
1135, 134814561, 0.8883356, -0.089274734, 0.16540901, -0.41896275
1136, 134831228, 0.8862043, -0.090323724, 0.16906452, -0.42178288
1137, 134847895, 0.88367945, -0.09322911, 0.1713145, -0.4255237
1138, 134864562, 0.88092154, -0.0980942, 0.17119132, -0.43017256
1139, 134881229, 0.8781978, -0.10478482, 0.16842094, -0.43522793
1140, 134897896, 0.8757452, -0.11339711, 0.16282292, -0.4401142
1141, 134914563, 0.873637, -0.1233803, 0.15478942, -0.44449514
1142, 134931230, 0.8716488, -0.13403556, 0.14564247, -0.44838747
1143, 134947897, 0.86974543, -0.14543444, 0.13620293, -0.45148715
1144, 134964564, 0.86793244, -0.15693022, 0.1275412, -0.45365173
1145, 134981231, 0.8663428, -0.16864002, 0.11957506, -0.4546566
1146, 134997898, 0.8647938, -0.18061523, 0.11227552, -0.45486715
1147, 135014565, 0.86315984, -0.19260155, 0.10620297, -0.4545117
1148, 135031232, 0.861748, -0.20473081, 0.100757755, -0.45312688
1149, 135047899, 0.86100626, -0.2174577, 0.095131405, -0.44981158
1150, 135064566, 0.86093944, -0.23129717, 0.08871925, -0.44431272
1151, 135081233, 0.8613782, -0.24575292, 0.081958234, -0.43693933
1152, 135097900, 0.8621408, -0.26065528, 0.075308636, -0.42790303
1153, 135114567, 0.86317796, -0.27644774, 0.06840913, -0.41691795
1154, 135131234, 0.86421406, -0.2928902, 0.060654294, -0.40456212
1155, 135147901, 0.8649809, -0.30942777, 0.053032655, -0.39147165
1156, 135164568, 0.86559844, -0.32564902, 0.0466016, -0.37751898
1157, 135181235, 0.8659552, -0.34188482, 0.04194716, -0.3625977
1158, 135197902, 0.8653459, -0.35941273, 0.036865868, -0.34733307
1159, 135214569, 0.86409616, -0.37825495, 0.02874554, -0.3308094
1160, 135231236, 0.86241406, -0.39752123, 0.018181333, -0.31287092
