DeviceTag:,Xsens DOT 5,,,,,,,,,,,,,,,,,
FirmwareVersion:,1.3.0,,,,,,,,,,,,,,,,,
AppVersion:,2020.1.1,,,,,,,,,,,,,,,,,
Measurement Mode:,Inertial Mode - High Fidelity,,,,,,,,,,,,,,,,,
StartTime:,2020-08-04 10:48:43.908 +0200,,,,,,,,,,,,,,,,,
© Xsens Technologies B. V. 2005-2020,,,,,,,,,,,,,,,,,,,
PacketCounter,SampleTimeFine,dQ_W,dQ_X,dQ_Y,dQ_Z,dV[1],dV[2],dV[3],Status
2, 1229486516, 0.999999950619523, -2.1813732875579361E-4, 3.796864999870698E-5, 2.230144370689302E-4, -0.057629728290945176, 0.013080872423570058, 0.1554084182278423, 0
3, 1229503183, 0.9999998472210797, 3.165663626805981E-4, 1.478830705464035E-4, 4.2833882947405927E-4, -0.05590270337359056, 0.011198965845326925, 0.15469780715453593, 0
4, 1229519850, 0.999999936798616, 1.719045411967407E-4, 5.128896558090346E-5, 3.069544506363181E-4, -0.054757932529895276, 0.010538666245990824, 0.15220250107775046, 0
5, 1229536517, 0.9999999326411023, -3.485676756974643E-4, -9.01709882976387E-6, 1.146170069678404E-4, -0.0546324327986947, 0.0099561983215526, 0.15236673657213498, 0
6, 1229553184, 0.9999998770336992, -4.887229178294483E-4, 7.7005443346323E-6, 8.380452105168079E-5, -0.05573700584323494, 0.010385778732746164, 0.15596809898097036, 0
7, 1229569851, 0.9999999735841542, 4.554417513884246E-5, 5.924729986743483E-5, 2.1736415693950076E-4, -0.05544692228169425, 0.009513084105461096, 0.15711148636715147, 0
8, 1229586518, 0.9999998599455157, 4.356163856267803E-4, 1.8100513157633116E-4, 2.3996761451580695E-4, -0.05464101059376623, 0.009803343521804314, 0.15414062077751797, 0
9, 1229603185, 0.9999999766673354, 6.843140742546217E-5, 1.8620317241804796E-4, 8.550350726457824E-5, -0.05391288933912148, 0.009841797383923108, 0.15284385871055056, 0
10, 1229619852, 0.9999998720475847, -4.8824746184372714E-4, -1.4751341995619673E-5, -1.3153565403384304E-4, -0.05609615385263245, 0.010667767280840715, 0.15617557084250466, 0
11, 1229636519, 0.9999999415284397, -2.876974521572456E-4, -1.464200170449015E-4, -1.1284711616652011E-4, -0.057676127565053, 0.012082407176514907, 0.1578894312241881, 0
12, 1229653186, 0.999999914617896, 3.9196175988950865E-4, 8.726331751085505E-6, 1.3059108192503555E-4, -0.057137138092768734, 0.013158944709687648, 0.1551748380069806, 0
13, 1229669853, 0.9999998758943832, 4.321874664136305E-4, 1.672620916383094E-4, 1.8288959712915723E-4, -0.05581916000174232, 0.01336514444459372, 0.15123508227550203, 0
14, 1229686520, 0.9999999417332746, -3.1534539417324425E-4, 1.1011728901601238E-4, 7.046213524034006E-5, -0.056684068525655204, 0.01235356759772457, 0.15289755050403028, 0
15, 1229703187, 0.9999998402426609, -5.594868256549868E-4, -8.018069681910157E-5, 7.75890759993625E-6, -0.05829981138916425, 0.01256268414541875, 0.15701515921835843, 0
16, 1229719854, 0.9999999607636867, 7.714367656491694E-5, -2.0987267092889564E-5, 2.68479073349176E-4, -0.057810467201236074, 0.012175345969394354, 0.15687171447505874, 0
17, 1229736521, 0.9999996994598623, 6.325524912812047E-4, 1.770285934733079E-4, 4.1184755408686663E-4, -0.0556386869973755, 0.011972595068063956, 0.15381875754654967, 0
18, 1229753188, 0.9999999229795591, 2.1256498558262782E-4, 1.529577983161862E-4, 2.923369886888155E-4, -0.05470262642701544, 0.010728683786395242, 0.15161573743298704, 0
19, 1229769855, 0.999999877121104, -4.918217471899522E-4, 5.857643398138324E-6, 6.192603642392326E-5, -0.05621936356385257, 0.010069461962211253, 0.1550042048365038, 0
20, 1229786522, 0.9999999712390156, -2.1330993446609658E-4, -3.1736835153561855E-5, 1.0494576253597399E-4, -0.05719768382861733, 0.011078621183699403, 0.15753042195126582, 0
21, 1229803189, 0.9999998061579891, 5.252750304658299E-4, 1.1890984353324363E-4, 3.124589181630056E-4, -0.05667892554634075, 0.010654027612336784, 0.15538158303782004, 0
22, 1229819856, 0.9999997291173177, 6.164338656453466E-4, 1.911409969635042E-4, 3.538922148949991E-4, -0.055053275683066435, 0.010438293033710772, 0.15251953192389597, 0
23, 1229836523, 0.9999999615361599, 1.6554043546485042E-4, 1.425213385417429E-4, 1.709143382912365E-4, -0.0555991996796012, 0.010951679701820993, 0.15180307954192607, 0
24, 1229853190, 0.999999956692378, -2.611313484639777E-4, -4.295696020378826E-5, 1.2876474918298297E-4, -0.05779061487607272, 0.013114646747713142, 0.15409780087028063, 0
25, 1229869857, 0.9999999366628891, -2.0868156669892612E-5, -6.68174239548125E-5, 3.4896155878513807E-4, -0.057913426199583076, 0.01338634446953529, 0.15436165465985957, 0
26, 1229886524, 0.9999997203106309, 4.5734559153011445E-4, 5.045321779019452E-5, 5.89633905566142E-4, -0.055841609054690884, 0.012470595912540045, 0.15212421041901628, 0
27, 1229903191, 0.9999997773053865, 3.3807880076903996E-4, 1.636167376008191E-4, 5.51653392275739E-4, -0.0545275844307699, 0.011337939025508694, 0.14977581610940374, 0
28, 1229919858, 0.9999999130365135, -2.136813587508002E-4, 1.0649045237227929E-4, 3.41945940424207E-4, -0.054011853181972325, 0.010234395678711686, 0.15012644924842855, 0
29, 1229936525, 0.999999883032151, -4.5279530644541655E-4, 1.2402135133465775E-4, 1.1632196323491108E-4, -0.05400129824726099, 0.010508732499015686, 0.15360817344760647, 0
30, 1229953192, 0.9999999555860231, -1.6579918669891447E-4, 2.1585215032320085E-4, 1.2143488264990121E-4, -0.05590496010604707, 0.010579635222178571, 0.15541686953392128, 0
31, 1229969859, 0.9999999571115804, 8.810652541879627E-5, 2.6648721179312057E-4, 8.36578951990269E-5, -0.05548476756302445, 0.011108844610099871, 0.15569380722801207, 0
32, 1229986526, 0.9999999811145519, -1.1876304110029767E-4, 1.4484863677387275E-4, 5.181803150457187E-5, -0.05679421389578582, 0.011390051702470809, 0.1558564627929663, 0
33, 1230003193, 0.999999955431015, -2.9073271680281343E-4, 6.430654049269235E-5, 2.1843167775745246E-5, -0.05658797418915371, 0.01165921599438715, 0.15670436156923467, 0
34, 1230019860, 0.999999990540033, -9.853556953173803E-5, 9.291420492657522E-5, 2.4033853077101708E-5, -0.056922739112004274, 0.011237175152569685, 0.15800021503495365, 0
35, 1230036527, 0.9999999611678018, 2.2519424547341738E-4, 1.3202695826876334E-4, 9.757473635121917E-5, -0.05635905360557977, 0.011700244225061135, 0.15694122782877903, 0
36, 1230053194, 0.9999999457182379, 2.981995198311771E-4, 1.0709011931990532E-4, 9.040063014850719E-5, -0.054501223977445175, 0.011450273208443646, 0.15386635706435392, 0
37, 1230069861, 0.9999999960575029, 9.306410481371707E-6, 8.35693915015312E-5, -2.8540181002290058E-5, -0.05587030246245039, 0.011446519188713002, 0.15169017686596878, 0
38, 1230086528, 0.999999980773861, -1.7984274521286314E-4, 7.075111872101304E-5, -3.3213611486157535E-5, -0.05630922493879599, 0.011647751804587748, 0.1541473213953865, 0
39, 1230103195, 0.999999961636249, 2.2712783247219592E-4, 1.453503182330396E-4, 6.335403060350743E-5, -0.056504391303477675, 0.012116039573574142, 0.15384177042244673, 0
40, 1230119862, 0.9999997746073025, 5.623587317593604E-4, 3.2302310546654395E-4, 1.737644222161716E-4, -0.05483131901015613, 0.01297798982597591, 0.15161044950909988, 0
41, 1230136529, 0.9999999166493807, 1.7669879938857214E-4, 3.389891868381262E-4, 1.4340535880526253E-4, -0.05520168358910381, 0.011726533320289138, 0.14961655675573923, 0
42, 1230153196, 0.9999999212803663, -3.4625446072276966E-4, 1.875491633921839E-4, -4.87075043906493E-5, -0.05651062914804142, 0.011620629018637611, 0.15176581172072712, 0
43, 1230169863, 0.999999969240252, -1.6295931578544365E-4, 1.8698367529210172E-4, 9.282708321178835E-7, -0.05626806793985663, 0.012759865859783517, 0.1531664788325531, 0
44, 1230186530, 0.9999998329746951, 3.7360367040861764E-4, 4.0284932058211326E-4, 1.793970574631848E-4, -0.055149354008614766, 0.01273618354500404, 0.15253097015694647, 0
45, 1230203197, 0.9999998663357128, 1.399694045283173E-4, 4.788594368905219E-4, 1.3575994253708926E-4, -0.055862363173256775, 0.01197328999079823, 0.1526173909496847, 0
46, 1230219864, 0.9999998716461933, -4.764806492954382E-4, 1.6525207391678012E-4, -4.863681563191391E-5, -0.05744424535330408, 0.01171164825802556, 0.15617482202103433, 0
47, 1230236531, 0.999999961657511, -2.549541143509054E-4, 1.0310348171316265E-4, -3.245070209062507E-5, -0.057935306879340676, 0.012879531270734351, 0.15664731713428212, 0
48, 1230253198, 0.9999999278328473, 2.1316284851440048E-4, 2.88404128199471E-4, 1.2537527334435805E-4, -0.057019168919552464, 0.013227724669741536, 0.15463198719218743, 0
49, 1230269865, 0.999999962150484, -4.031662280173931E-5, 2.6736225370370403E-4, 5.090212023919905E-5, -0.05688422253789137, 0.012036344506505165, 0.15433145166114395, 0
50, 1230286532, 0.9999999202899784, -3.873329797484393E-4, 6.812675904133149E-5, -6.893434827025258E-5, -0.057676786680262826, 0.011375875199764813, 0.15466310959213075, 0
51, 1230303199, 0.9999999906464422, -6.816397725536993E-5, 1.0833605695147187E-4, 4.820877877045882E-5, -0.058239826269131004, 0.012635793219023044, 0.15400029461669773, 0
52, 1230319866, 0.9999997792141008, 4.7504576612107663E-4, 4.120851754456229E-4, 2.1468366949635442E-4, -0.058189362637220896, 0.01363386031333871, 0.15185215747788086, 0
53, 1230336533, 0.9999997822492405, 4.1888268496559355E-4, 4.38541831980957E-4, 2.602303391219946E-4, -0.057967045437704104, 0.012862025259438442, 0.15033775268276778, 0
54, 1230353200, 0.99999989524948, 2.2373758823329704E-5, 4.135587642485478E-4, 1.9485787755332828E-4, -0.05693099109520736, 0.012968501732019381, 0.15086651802516235, 0
55, 1230369867, 0.9999998611192964, -3.199593687261554E-4, 3.859293635389422E-4, 1.626220056060307E-4, -0.05678024841320849, 0.012821012040594446, 0.15369673503516793, 0
56, 1230386534, 0.9999998965597535, -3.2129003684179536E-4, 2.639551021885595E-4, 1.8433908614036432E-4, -0.057696368672384715, 0.011776388564660248, 0.15692906692611577, 0
57, 1230403201, 0.999999917762906, 9.580732959880989E-5, 2.922028698396778E-4, 2.6440994645059174E-4, -0.058050608455524025, 0.010709403064484426, 0.15809266303344544, 0
58, 1230419868, 0.9999998169041265, 4.349387584793446E-4, 3.505874592092673E-4, 2.326121732828118E-4, -0.05558858739578028, 0.009890593695548048, 0.1553689276137718, 0
59, 1230436535, 0.9999999257952307, 1.5459564382369617E-4, 3.517140746442244E-4, 2.8406508577993875E-5, -0.05548158297533165, 0.011163034659723086, 0.15361362956750618, 0
60, 1230453202, 0.999999936346633, -2.4513960803906887E-4, 2.3287800150505192E-4, -1.1393480201329909E-4, -0.05696690729618176, 0.011732410103004236, 0.154621151503253, 0
61, 1230469869, 0.9999999659242911, -1.1541422056857153E-4, 2.1233634853279337E-4, -9.871296616667526E-5, -0.058820211598236236, 0.012052934869761315, 0.15601390724464637, 0
62, 1230486536, 0.9999998957979555, 3.306946897409513E-4, 3.1316415125999536E-4, 3.1197993445808425E-5, -0.05871221287378297, 0.012821935702793937, 0.15574014377181522, 0
63, 1230503203, 0.9999998301405423, 5.13039984546243E-4, 2.633869187669003E-4, 8.4475983838192E-5, -0.058353293298693404, 0.013107176003297583, 0.15375741941896984, 0
64, 1230519870, 0.9999999195626643, 3.7859304491927315E-4, 9.260404628531894E-5, 9.469140258715203E-5, -0.058277616344448835, 0.013603825318213487, 0.14882736701636556, 0
65, 1230536537, 0.9999999667146141, 1.1891925789758728E-4, 2.210996196596593E-4, 5.953099018425612E-5, -0.057752282994903474, 0.014271070915612156, 0.14470287163662224, 0
66, 1230553204, 0.9999998951049958, -3.430194295825362E-5, 4.347913916566138E-4, 1.3989217285986788E-4, -0.0572834660020778, 0.014072472204199354, 0.14451802614575232, 0
67, 1230569871, 0.9999997895218656, 1.233580575673715E-4, 6.015732478927839E-4, 2.0940067278693578E-4, -0.0577747454621272, 0.01291171024244717, 0.14592177502674988, 0
68, 1230586538, 0.9999995632628018, 5.118514003711605E-4, 7.117111958951096E-4, 3.239591382481477E-4, -0.057111387159968004, 0.012508902211389464, 0.14396312492074473, 0
69, 1230603205, 0.9999991887195334, 8.085191594168206E-4, 9.353629508098288E-4, 3.065178526892865E-4, -0.05535405346954778, 0.013519018521021664, 0.13933642871632806, 0
70, 1230619872, 0.9999993375313945, 4.3865596986758515E-4, 0.0010416429734552148, 2.1793950569760911E-4, -0.05483002174907762, 0.01395703963846969, 0.13675243721082983, 0
71, 1230636539, 0.9999992261115437, -2.8401639067190954E-4, 0.0012079584963565484, 8.914748861030276E-5, -0.054974302988387055, 0.012585795303875777, 0.1376920845950491, 0
72, 1230653206, 0.999999051480086, -5.690250666699759E-4, 0.0012505910204994866, -9.628863494030859E-5, -0.05592662220849266, 0.011699602651118895, 0.14197545566177866, 0
73, 1230669873, 0.9999991186039788, -2.9072683661855725E-4, 0.0012940093045645806, -6.171783840666635E-5, -0.057444267459641624, 0.012251394324385455, 0.1416128616625857, 0
74, 1230686540, 0.9999989265700987, -3.5879641778771565E-5, 0.0014640141539307707, 4.726371555253961E-5, -0.0565362650613125, 0.013675560335097824, 0.1385887406925481, 0
75, 1230703207, 0.9999984971763792, -6.774030608489995E-4, 0.001593271187930498, -9.08680250043259E-5, -0.05591370640778298, 0.012330626017053906, 0.1367769538685901, 0
76, 1230719874, 0.9999975287432453, -0.0015312622175707585, 0.0015652140020449015, -3.845107944106807E-4, -0.058303425329435624, 0.01192465063023684, 0.14034888480035276, 0
77, 1230736541, 0.9999974948137239, -0.0015346926027995644, 0.0015837748020795517, -3.830695334004625E-4, -0.06013221193326757, 0.010945437118103921, 0.1420783557089541, 0
78, 1230753208, 0.9999975687476151, -0.001124910872376511, 0.001868451641135416, -3.255193583402288E-4, -0.058916052083207195, 0.012047427262390177, 0.1412130453437363, 0
79, 1230769875, 0.9999969499036967, -0.0013180818163841396, 0.002068098937025892, -2.929341489565502E-4, -0.060936646327920105, 0.013205175952655352, 0.14098441102413575, 0
80, 1230786542, 0.9999966083193423, -0.001575051218558221, 0.0020647178391045855, -1.987554165672617E-4, -0.06439517561438712, 0.013673240515945848, 0.14471449445406404, 0
81, 1230803209, 0.9999970967708678, -8.157246160504228E-4, 0.002263520782630299, 1.323512484228129E-4, -0.06522358948181496, 0.015270320328848853, 0.1463167671915929, 0
82, 1230819876, 0.9999966955017043, -1.2028989472931406E-4, 0.002540853829780185, 3.7226043125808406E-4, -0.06253285055087815, 0.014092751821490944, 0.14339708015563452, 0
83, 1230836543, 0.9999966894253068, -9.77036056851982E-4, 0.002378390226892305, 9.898938641327017E-5, -0.06387378188298647, 0.012045131281036809, 0.1399556774450263, 0
84, 1230853210, 0.9999949524038799, -0.0022024786762786797, 0.0022761695451948426, -2.51608115833718E-4, -0.0658122241060049, 0.011659078871138807, 0.14213411001600537, 0
85, 1230869877, 0.9999947548646468, -0.0018845676223441382, 0.0026321421414284146, -1.0235144882406179E-4, -0.06788014231970105, 0.012263167102875928, 0.14743176659012514, 0
86, 1230886544, 0.9999952043657422, -8.629791028470085E-4, 0.002966524385674616, 2.1504802914928955E-4, -0.06838286280613919, 0.012301743498939737, 0.148889796571574, 0
87, 1230903211, 0.9999959080609107, -9.290854771603907E-4, 0.002690984918475012, 2.815346860904622E-4, -0.06774172435614884, 0.010262018788551503, 0.1470198956989755, 0
88, 1230919878, 0.9999957771578308, -0.001752775748966845, 0.002318068254242634, 1.8023353802465447E-6, -0.06969125551925809, 0.00920997922708484, 0.145439015988956, 0
89, 1230936545, 0.9999952847015173, -0.0018725704828590622, 0.002433859726971077, -1.9528119067552255E-5, -0.06996012911844401, 0.008936907782096378, 0.1465219495385681, 0
90, 1230953212, 0.9999952490988735, -0.0015725832908395215, 0.002651146597139748, -1.3534982114898897E-5, -0.0692433977368335, 0.00871162629675171, 0.14657875006582297, 0
91, 1230969879, 0.9999950557226246, -0.0016929838591511343, 0.0026499481232461768, 1.053097599799935E-5, -0.070648923506132, 0.007268855100121624, 0.14702177091522683, 0
92, 1230986546, 0.9999956408521582, -0.0015026111238982398, 0.002540301155667835, 8.547824387561409E-5, -0.0718655302238376, 0.006387171811035068, 0.1471939589365133, 0
93, 1231003213, 0.9999958221736359, -7.880919924029978E-4, 0.0027697273640178155, 2.5130979738886844E-4, -0.07268131154210486, 0.0057899000129875925, 0.1446147268310799, 0
94, 1231019880, 0.9999950120808453, -5.269385603511867E-4, 0.0031063999796021873, 2.2006442322705655E-4, -0.07301616521577459, 0.0057822617406367155, 0.1427016508700465, 0
95, 1231036547, 0.9999948668411103, -9.114001500457464E-4, 0.0030611995071318236, 2.5435953706122455E-4, -0.07471697688359268, 0.005624090436683892, 0.1422561042089092, 0
96, 1231053214, 0.9999950399846922, -0.0011926850952643647, 0.0029126616564721657, 1.1794215565992527E-4, -0.0771978013463864, 0.005131903590433685, 0.14136691793422412, 0
97, 1231069881, 0.9999945432467185, -0.001363985184192687, 0.003000231328779246, 2.2722935060394414E-4, -0.07533041405993651, 0.004196319165631657, 0.14169797159122172, 0
98, 1231086548, 0.9999946708725342, -0.0014753195367138705, 0.0029099502095568945, 1.1767996617413623E-4, -0.07563535280460033, 0.0030389747286863923, 0.14359318666911658, 0
99, 1231103215, 0.999994906119314, -0.001471014603206429, 0.0028323222371443584, 4.245240326253286E-5, -0.07745285197019659, 0.001874966265122605, 0.14408726460713916, 0
100, 1231119882, 0.9999952283779575, -0.001146564392453489, 0.002868551950548665, 4.595365280885E-6, -0.07923331821523759, 0.0015351044375824987, 0.1422701467911393, 0
101, 1231136549, 0.9999944638390241, -0.001119860368443408, 0.003132654984228045, -6.838718947740909E-5, -0.0788264809406527, 0.001979391269304568, 0.14031656619324948, 0
102, 1231153216, 0.9999934165411996, -0.001836951964586414, 0.003122331602562867, -2.0863149940462955E-4, -0.07989496482304426, 0.0026845700033276045, 0.14336673447177561, 0
103, 1231169883, 0.9999938463719283, -0.0022243683459181735, 0.002702718527316434, -2.3391515543186306E-4, -0.08281796993507407, 0.002577218589762644, 0.14787964125878533, 0
104, 1231186550, 0.9999952238653881, -0.0018647932171335924, 0.0024632733720665882, -8.41246955556596E-5, -0.08678853816849644, 0.0019126295235810135, 0.14797055009439264, 0
105, 1231203217, 0.9999960942343707, -0.0010047596541484932, 0.0026044864424550063, 1.3647128627020114E-4, -0.08653219203642183, 3.8983091924744105E-4, 0.14327282561262272, 0
106, 1231219884, 0.9999954433836407, -8.132914012513107E-4, 0.0029028050442015123, 1.5966191731384138E-4, -0.08497269337207229, -2.874922288626392E-4, 0.13811687004296025, 0
107, 1231236551, 0.9999944248462552, -0.001294297564356256, 0.0030778731317731016, 4.203815807782286E-5, -0.08481394193336969, -0.001116393468503311, 0.13819672544249553, 0
108, 1231253218, 0.9999943466405985, -0.0014251731337098228, 0.0030454975244470777, -2.265414078930772E-5, -0.08761524014721035, -0.001075289550080509, 0.14180086172276835, 0
109, 1231269885, 0.9999950320667423, -5.289394443742379E-4, 0.0030981437240021614, 2.3993825154487727E-4, -0.08973707319071185, -5.587278450458911E-4, 0.14269139526915767, 0
110, 1231286552, 0.9999943738387014, 3.589007822686341E-4, 0.0033112646927588034, 3.987572023027297E-4, -0.08809876435419349, -9.401526752719517E-4, 0.13675554216154054, 0
111, 1231303219, 0.9999944920546315, -6.049427177690775E-5, 0.003310224019565628, 2.3370447760953653E-4, -0.08879537006247717, -0.0013934470745524952, 0.13144480215777415, 0
112, 1231319886, 0.9999946650511992, -8.697988817455288E-4, 0.0031473168750354445, 8.783810946770554E-5, -0.09073714665755607, -8.1796335690776E-4, 0.12915311166077442, 0
113, 1231336553, 0.9999938418673442, -9.080836376849297E-4, 0.0033851043807494874, 1.8077562709283015E-4, -0.09013258502110524, -4.3651919766161864E-4, 0.1287467552343276, 0
114, 1231353220, 0.9999924358733371, -9.204746697506344E-4, 0.0037755575490066866, 1.615168290822061E-4, -0.0889920974540565, -0.002503109032257516, 0.13122490812302548, 0
115, 1231369887, 0.9999922875885486, -0.0016437344768909998, 0.003564496227013187, -1.3140410398837513E-4, -0.09056358087441956, -0.003491077278641447, 0.13732229871401858, 0
116, 1231386554, 0.9999929298976199, -0.0020151603603995594, 0.0031432433559162314, -4.4643555098776433E-4, -0.09389860117225757, -0.0031207347722754207, 0.14292063142924585, 0
117, 1231403221, 0.9999948556122817, -0.0013874939330418695, 0.0028739616189734085, -3.2241924591790155E-4, -0.09661995640409513, -0.0015641325468159339, 0.14041214968001015, 0
118, 1231419888, 0.9999950635921547, -0.0010118296401480167, 0.0029655922334514977, -2.3292661195062347E-4, -0.09291247815994635, -4.766951292513432E-4, 0.13116311561671984, 0
119, 1231436555, 0.9999929189856122, -0.0021253937890192767, 0.0030552292889737547, -5.570043700024037E-4, -0.09454905842866622, -0.002238388509381444, 0.12580621869785247, 0
120, 1231453222, 0.9999888091140118, -0.0036930367608765044, 0.00282470695921272, -8.741606360625209E-4, -0.10017239017877401, -0.0018482349999488284, 0.13121405872362088, 0
121, 1231469889, 0.9999893584228992, -0.003825442569834858, 0.002468028534285155, -7.469037804801183E-4, -0.10334599293052335, -0.0033979149688683425, 0.1379651138790791, 0
122, 1231486556, 0.9999926995869232, -0.0025894674156441352, 0.002783922884593643, -3.810573888780311E-4, -0.10270896660759565, -0.0038379332043755703, 0.13787808877205898, 0
123, 1231503223, 0.999992612911603, -0.001987885288498213, 0.003285840171534993, -1.602768596712795E-4, -0.09775636154760296, -0.006324607059604506, 0.13881785623694218, 0
124, 1231519890, 0.9999922127399756, -0.0024704943289812833, 0.003030791202576433, -5.342488785110566E-4, -0.09879401699008475, -0.009059509203464678, 0.14174258082940916, 0
125, 1231536557, 0.9999929242806583, -0.0027299668047714234, 0.0024578528418737755, -8.109434443992481E-4, -0.10181707108484628, -0.009310496304009755, 0.14117721595866733, 0
126, 1231553224, 0.9999946408137227, -0.0020883712117109737, 0.0023639667329160012, -8.767615418999314E-4, -0.10481463837144905, -0.008211289795218246, 0.13324283317207125, 0
127, 1231569891, 0.999994364301781, -0.0019483823492607334, 0.002656827006186469, -6.453225218803761E-4, -0.1060144701332505, -0.00532966243899702, 0.12478152306567186, 0
128, 1231586558, 0.9999937641450071, -0.0021437808057798644, 0.0027759757509966125, -4.12108707166306E-4, -0.10624360652922643, -0.003867212276024256, 0.12410644051976481, 0
129, 1231603225, 0.9999937127264197, -0.0024726697837661633, 0.0025233029040396815, -3.0553923748989636E-4, -0.10393168287658847, -0.00583362677644887, 0.12481082081145015, 0
130, 1231619892, 0.9999944959744532, -0.002424944516268717, 0.0022403912860110013, -3.2910754745742177E-4, -0.10266435341247902, -0.008190706319557605, 0.11931890054757757, 0
131, 1231636559, 0.9999942072542867, -0.00231872808486025, 0.002473192764623822, -3.037688070190448E-4, -0.1045208556423271, -0.007068823554003673, 0.1116426832266774, 0
132, 1231653226, 0.999992345300459, -0.0024662504492346457, 0.0030375516100492055, -1.514679794765994E-5, -0.10694340013888369, -0.0056403186014642205, 0.10968494381113018, 0
133, 1231669893, 0.9999912349679755, -0.00243599949057325, 0.003394353550973811, 2.72502616885037E-4, -0.10680710898826236, -0.00797866045592218, 0.11423940262733764, 0
134, 1231686560, 0.9999921607077964, -0.0017972146336645567, 0.0034936067063216507, 4.932085712489737E-4, -0.10648983989833595, -0.010487866478079954, 0.11407880544815577, 0
135, 1231703227, 0.9999924713514845, -9.560299721357059E-4, 0.003715084010802561, 5.842925941002831E-4, -0.10837829949595548, -0.011410343774989546, 0.10614325066630578, 0
136, 1231719894, 0.9999908819696791, -7.309094415372669E-4, 0.004126799833369444, 8.19311922816493E-4, -0.1088994969796862, -0.011923851328708213, 0.09732781445003993, 0
137, 1231736561, 0.9999878997702447, -0.0012349830537611017, 0.004708708063245581, 7.093647349143765E-4, -0.10363737852536162, -0.014257006328545183, 0.09536214510306737, 0
138, 1231753228, 0.9999855655029227, -0.0021403821965107865, 0.00491504222114253, 3.604300447232339E-4, -0.10121963386164898, -0.014724260620516648, 0.0982318239552574, 0
139, 1231769895, 0.9999830283375248, -0.0031571894546666007, 0.0048927616249287995, -1.8993509925121363E-4, -0.10548385324789095, -0.01456790928787082, 0.10357793906996364, 0
140, 1231786562, 0.9999844497508464, -0.0029539743300554325, 0.004723005238543133, -2.5983392983441184E-4, -0.11504444901943742, -0.01276698999719183, 0.10833541842685049, 0
141, 1231803229, 0.9999844438003866, -0.002453684990861127, 0.005006885949952744, 1.505997381779853E-4, -0.12013130814996523, -0.011820262126982709, 0.10542662171057812, 0
142, 1231819896, 0.9999828676302791, -0.0030149150590347874, 0.005012428060136632, 2.2427227281747453E-4, -0.11830061531623717, -0.013589713131104561, 0.10708687086904276, 0
143, 1231836563, 0.9999816735223603, -0.003915667328540685, 0.004612677300588287, 2.0827124723516585E-4, -0.11684401373163372, -0.016167595527242794, 0.10842154815706641, 0
144, 1231853230, 0.999981696974683, -0.003829772328631232, 0.004670488761877757, 3.536866823888804E-4, -0.11679080045699958, -0.019803251735192647, 0.10926050858063892, 0
145, 1231869897, 0.9999830604285818, -0.0025240583587606696, 0.005211929675577265, 5.863227318604337E-4, -0.12015772269594135, -0.021336004735650144, 0.10779607238697228, 0
146, 1231886564, 0.9999810827731919, -0.0017456295839720706, 0.005854117928498937, 7.184541667418082E-4, -0.12075345564947612, -0.020272932644222162, 0.10534118757750321, 0
147, 1231903231, 0.9999789011609409, -0.00271482013403309, 0.005880500550448587, 4.966868967533554E-4, -0.12216355034825052, -0.019754945198133016, 0.1057111439856196, 0
148, 1231919898, 0.9999787253049971, -0.00399854592217376, 0.005151831309873068, 1.3857148331600927E-4, -0.1265302842846294, -0.01962355751656648, 0.11006550055123165, 0
149, 1231936565, 0.9999816881734291, -0.0037799198442333808, 0.004718145343201641, 2.731818265505268E-4, -0.1293493591225864, -0.01919343675030732, 0.10782377872049981, 0
150, 1231953232, 0.9999832891010735, -0.0024506130622329036, 0.005197763302659642, 6.318788394477984E-4, -0.1309036094567201, -0.01774108288776768, 0.09816877334451773, 0
151, 1231969899, 0.9999794970419941, -0.0021289948134211173, 0.005973764038338881, 8.871414426536232E-4, -0.13153339361081484, -0.01889858133421258, 0.0938103816608926, 0
152, 1231986566, 0.999978094078006, -0.0029389676005547385, 0.005875711199116952, 8.061336526629034E-4, -0.13183314970908314, -0.0228810536197665, 0.09549849103140165, 0
153, 1232003233, 0.9999760683297219, -0.004224381835817297, 0.005459774650346583, 4.563186431901512E-4, -0.13084948182000078, -0.024798864300479333, 0.09941104410312632, 0
154, 1232019900, 0.999975654074988, -0.00473048344356726, 0.005106779053546951, 4.8434635166483275E-4, -0.13227227319660356, -0.0238915514735652, 0.10152885053533392, 0
155, 1232036567, 0.9999771622769529, -0.0041535714830110496, 0.005282162771328037, 7.221668265099055E-4, -0.13661990343337127, -0.02507561332424325, 0.10204860351336939, 0
156, 1232053234, 0.999977614010038, -0.0033908256891983027, 0.005666965780616818, 0.0010766980905008022, -0.1385350384106634, -0.025867475979164493, 0.10082716311216247, 0
157, 1232069901, 0.9999774997453603, -0.003369018535921732, 0.005708969914230089, 0.0010282896678591726, -0.13638122990658805, -0.02838544523711283, 0.09870476742696736, 0
158, 1232086568, 0.9999766017503886, -0.004460748754726164, 0.00515180411130517, 5.971488011675546E-4, -0.1368150932608422, -0.028271121875970782, 0.09810384612561174, 0
159, 1232103235, 0.9999760215772413, -0.005143556814508843, 0.00461260848655043, 4.732196091012213E-4, -0.13845349647304583, -0.027754829851438925, 0.0965906708392952, 0
160, 1232119902, 0.9999790825566793, -0.0043075671123359305, 0.00474449213153333, 8.769886477509696E-4, -0.13843830866022439, -0.029200565001353773, 0.0940385108855647, 0
161, 1232136569, 0.9999823107492398, -0.0022726610240685757, 0.005367570882146289, 0.0011842226587487558, -0.14030878374316766, -0.03178321043735811, 0.08775829881181252, 0
162, 1232153236, 0.9999803295786802, -0.0012377945950955288, 0.006034921532824756, 0.0011781520900300477, -0.14248225650162455, -0.03128323463082881, 0.07883918200432107, 0
163, 1232169903, 0.9999794788934376, -0.001672423376330022, 0.0061254402265354954, 8.507491348358592E-4, -0.1435945195578791, -0.028077681443683635, 0.07502978111742283, 0
164, 1232186570, 0.9999791201271521, -0.002168788774096417, 0.006034542877074057, 7.999732776640019E-4, -0.14628533229759885, -0.02408294589483126, 0.07064803156892889, 0
165, 1232203237, 0.9999742045232488, -0.0032702491731664146, 0.006315669378556432, 0.0010040312454745808, -0.14881333133884117, -0.0256135164154008, 0.07279757786928648, 0
166, 1232219904, 0.9999729132265663, -0.0040210141046281775, 0.006074359733761859, 0.0010518614781946135, -0.14624494033992919, -0.029847724035681884, 0.08171185740739823, 0
167, 1232236571, 0.9999752069143902, -0.004148882872512381, 0.005632019065609784, 8.078915009196234E-4, -0.14439087525725777, -0.03373683327216908, 0.08482827568247736, 0
168, 1232253238, 0.9999782856606327, -0.003995786586216583, 0.005221130527093444, 4.491022137680812E-4, -0.1436561441847807, -0.03426981144993102, 0.08424208101302924, 0
169, 1232269905, 0.9999810620888925, -0.0031325558341252224, 0.005287396642165543, 3.2556760452350306E-4, -0.14542762783360122, -0.032170417503677724, 0.0803983353575018, 0
170, 1232286572, 0.9999819719819724, -0.0018375470444751824, 0.005698693103499687, 4.516954917710425E-4, -0.1511721596107428, -0.0270128114380809, 0.0717460609219634, 0
171, 1232303239, 0.9999768499422844, -0.002624052740309177, 0.006236617623169128, 7.200884281612035E-4, -0.15370541624454284, -0.02584308440172716, 0.0655742347618917, 0
172, 1232319906, 0.9999725906308018, -0.004669970935327186, 0.005726442725106141, 4.660604060405388E-4, -0.1568086557278663, -0.027416489453585137, 0.07422614953133544, 0
173, 1232336573, 0.9999730320484083, -0.005743571277709941, 0.0045466044074407574, 5.24359850655189E-4, -0.15992827219188122, -0.029813409713809687, 0.08094293710533076, 0
174, 1232353240, 0.9999792968811028, -0.004887918261676644, 0.0040890747130316605, 8.908042622643893E-4, -0.15721880827047063, -0.033196661956828064, 0.07962627323444177, 0
175, 1232369907, 0.9999840670514072, -0.0031477309456145047, 0.00455526535800327, 0.0010986313025207319, -0.15199820318793833, -0.037479881271741136, 0.0722169532100467, 0
176, 1232386574, 0.9999840954131675, -0.0022851042079415074, 0.005057860649423263, 0.0010026291034702286, -0.1499714124374225, -0.03712792816195579, 0.06359341852212184, 0
177, 1232403241, 0.999983153936584, -0.0026615388965778725, 0.0051092912416293434, 7.093636249654306E-4, -0.1501322639896308, -0.035524765443286546, 0.059061341647835816, 0
178, 1232419908, 0.9999829917948148, -0.003042458413343163, 0.004959780200366582, 4.0018528016545914E-4, -0.15377677797126887, -0.032884844005467116, 0.056824891098588085, 0
179, 1232436575, 0.9999806485800635, -0.0035010500687471663, 0.005120514919575992, 4.7480603413441684E-4, -0.15764627971003348, -0.03207952118910798, 0.057955615469421407, 0
180, 1232453242, 0.9999812680518445, -0.0034525788832005105, 0.005009852273548499, 6.668018277036026E-4, -0.1585042243327135, -0.029013425277164828, 0.060154535272775984, 0
181, 1232469909, 0.9999831259285094, -0.0028405063427294625, 0.004979217123911306, 9.416893314584223E-4, -0.15812282509953862, -0.02785505749336953, 0.05722226139043923, 0
182, 1232486576, 0.9999838948239993, -0.0021407983312799334, 0.005152047160174423, 0.0010409059462760722, -0.15655792238560196, -0.028239672100121765, 0.05359914973926574, 0
183, 1232503243, 0.9999830862319407, -0.0017015734340399963, 0.005430048254844167, 0.0012026944091635225, -0.15650322308039227, -0.030156159144805378, 0.051082330915289915, 0
184, 1232519910, 0.9999833615122626, -0.0014093031629175412, 0.005482697834846618, 0.001109318566664335, -0.15850837716027083, -0.03094141302889339, 0.047747805309615296, 0
185, 1232536577, 0.9999828285116702, -0.0017771355856091159, 0.005481378324393549, 0.0010672218957686593, -0.16251399610873085, -0.028878847813019217, 0.04218614988849674, 0
186, 1232553244, 0.9999802549686858, -0.003212773737835309, 0.005318146959519932, 9.407819027432863E-4, -0.1633107111870848, -0.03045130775774814, 0.044478031659802325, 0
187, 1232569911, 0.9999770418226328, -0.00498600324025103, 0.004539895019045615, 6.670476449494469E-4, -0.16437269621266115, -0.03100430803179101, 0.05283881961401336, 0
188, 1232586578, 0.9999813389186377, -0.005211858768849886, 0.0030807408078275538, 8.169325168478226E-4, -0.16346031499923303, -0.03041214343024228, 0.061878061875224065, 0
189, 1232603245, 0.9999818645492679, -0.005129702016714116, 0.002991004697109667, 0.001005296320191248, -0.1618771192594629, -0.041249207548661335, 0.05204320446914259, 0
190, 1232619912, 0.9999854940011287, -0.0037554159754261685, 0.0036843157023743194, 0.0011551865543443299, -0.1594176700000072, -0.03883439662269682, 0.05616849862187176, 0
191, 1232636579, 0.9999875196111787, -0.0018088718038250795, 0.00447851194672172, 0.0012773157099180944, -0.1583108162234762, -0.04323442713819832, 0.052620011979102314, 0
192, 1232653246, 0.9999873221279298, -4.326784205108958E-4, 0.00489573388810799, 0.0010955192801569112, -0.15990090028532666, -0.04032220724255409, 0.05021029807452972, 0
193, 1232669913, 0.9999887603063861, -9.80932396105555E-4, 0.0045680161258043195, 8.063877515264891E-4, -0.16189304005371077, -0.038399088696750475, 0.04577743517126087, 0
194, 1232686580, 0.9999897843883907, -0.0026581697498763712, 0.0036444472370276153, 2.885425049831726E-4, -0.1629287479408209, -0.03431089269631609, 0.045660442798181225, 0
195, 1232703247, 0.9999894784411704, -0.0034881784603051774, 0.002966828306265768, 2.711969507389889E-4, -0.16517893861254102, -0.030960217996903863, 0.04609657000809435, 0
196, 1232719914, 0.9999907768720481, -0.003057593178125831, 0.0029444858724060334, 6.536801525097689E-4, -0.16510881849576214, -0.0327990123659411, 0.04514352762623529, 0
197, 1232736581, 0.9999920146022087, -0.0021464846646749164, 0.003257002243838736, 8.690637399166036E-4, -0.16388034656559353, -0.03707478932301153, 0.04593591084401906, 0
198, 1232753248, 0.9999934946290783, -0.0012456136834881337, 0.003246422218826151, 9.591083631466414E-4, -0.1619025013583702, -0.03714649986858645, 0.0435997181594141, 0
199, 1232769915, 0.9999943684188194, -7.354453672064193E-4, 0.003153199434413834, 8.829405898775276E-4, -0.1608278031505448, -0.03536096635331243, 0.03685738564955908, 0
200, 1232786582, 0.9999946200693014, -9.373487989276369E-4, 0.0030553625278684775, 7.388974937036982E-4, -0.16087345738036773, -0.031782607297965296, 0.030229038903455976, 0
201, 1232803249, 0.9999939665080835, -0.0016198890420587586, 0.002987138317185778, 7.210489550053824E-4, -0.16172055774559713, -0.031199476386320694, 0.02929094395865553, 0
202, 1232819916, 0.9999936620658848, -0.001965562266071197, 0.002887172623112833, 6.903819838184923E-4, -0.16305179642234788, -0.031770268528266164, 0.03200100608773314, 0
203, 1232836583, 0.9999943773966259, -0.0016866951765758809, 0.0028024212182414803, 7.393712406697021E-4, -0.1637142516525341, -0.031215322825180393, 0.03256926638562528, 0
204, 1232853250, 0.9999950933084545, -0.0015092392905265012, 0.0026605496813779665, 6.760408066488269E-4, -0.16451698416149263, -0.030239803030135768, 0.0316853496240644, 0
205, 1232869917, 0.9999957704605794, -0.0013805827573214469, 0.002466326342716818, 6.857744334895639E-4, -0.16425239596905433, -0.028139812539483344, 0.03029317593578948, 0
206, 1232886584, 0.9999957227171044, -0.0015820959446436744, 0.0023592287682248085, 6.968210223378193E-4, -0.16398328174696009, -0.028359078642865517, 0.027443987978248943, 0
207, 1232903251, 0.9999952113719253, -0.0020754168838909154, 0.0022183387529488567, 5.906362280157577E-4, -0.16392525561220606, -0.027474801064748387, 0.028121234316650187, 0
208, 1232919918, 0.9999951201246063, -0.0023418275831167817, 0.0019788111255635292, 5.99897553314313E-4, -0.16431643378985633, -0.02792961384590297, 0.027760145936920125, 0
209, 1232936585, 0.9999955245494424, -0.002235822922200967, 0.0018850307667985233, 6.313762383933845E-4, -0.1642500361822265, -0.02929290080908893, 0.02916317821306015, 0
210, 1232953252, 0.9999965452250278, -0.0018664384145773982, 0.0017201359071707392, 6.834311336190169E-4, -0.16396834529750293, -0.029551123472294494, 0.029140422156176335, 0
211, 1232969919, 0.9999972367616303, -0.0013782895884286578, 0.0016930229237202556, 8.72043745490242E-4, -0.16427763598216172, -0.029556302970560507, 0.02609163162325792, 0
212, 1232986586, 0.9999974922153269, -8.393083270194363E-4, 0.001797564221345971, 0.0010391763371902923, -0.16402348437037267, -0.030090665762911147, 0.02396431751983348, 0
213, 1233003253, 0.9999974068517853, -3.123319036206773E-4, 0.0020044776719692625, 0.0010347984100760948, -0.16345535723545612, -0.03071557193888613, 0.020396203679776695, 0
214, 1233019920, 0.9999973455309338, -5.809357221038536E-5, 0.002061814455306677, 0.0010268774877579961, -0.1617831593368334, -0.03163055177116986, 0.01553187771536109, 0
215, 1233036587, 0.9999973005383567, -1.2376748071155075E-4, 0.0021298744086044046, 9.204523962378295E-4, -0.16146280848705447, -0.03139342202786891, 0.010869466774058228, 0
216, 1233053254, 0.9999967891759898, -3.025986220081822E-4, 0.002327271376620921, 9.559705668331295E-4, -0.15963515095351904, -0.03164709981718985, 0.013380464001653061, 0
217, 1233069921, 0.9999967957925715, -1.934168651527013E-4, 0.0023825429545119015, 8.333568120286878E-4, -0.15857920821562269, -0.03534189871700462, 0.016743512317867512, 0
218, 1233086588, 0.9999966789907623, 1.3020395675812646E-4, 0.002488374510970948, 6.580628153962029E-4, -0.15815922326510728, -0.03408092641666351, 0.014990994736201496, 0
219, 1233103255, 0.9999960445350533, 3.2180654344511617E-4, 0.002756287205578745, 4.5851459814236917E-4, -0.15907588419573515, -0.031962409918296186, 0.011588119122581744, 0
220, 1233119922, 0.999995675454719, 2.1281033580013153E-4, 0.002919317556380641, 2.8525186497012356E-4, -0.1594884679988862, -0.02972004813149643, 0.00931753037749121, 0
221, 1233136589, 0.9999959949133387, -2.0879886711466789E-4, 0.0028162938675854177, 1.8721422612364566E-4, -0.16075024626326215, -0.0281328729177037, 0.0068587631267472, 0
222, 1233153256, 0.9999958838172126, -0.0011123591337341837, 0.0026306935510389544, 2.728685214877305E-4, -0.16243708503218934, -0.027893352947088355, 0.010172383005196933, 0
223, 1233169923, 0.9999972422839407, -0.0012411189243254905, 0.001958482307494403, 3.7335690744689376E-4, -0.1619045761766102, -0.026343188133059352, 0.0206321469533335, 0
224, 1233186590, 0.9999991944726563, -9.666706271899694E-4, 5.954542784455398E-4, 5.674822810908114E-4, -0.16364047079844263, -0.03228801565422794, 0.01843300246476212, 0
225, 1233203257, 0.9999991636384431, -7.26355264133352E-4, 9.871390999515173E-4, 4.131426410513978E-4, -0.16287421761220777, -0.02838735035588229, 0.0188897200205618, 0
226, 1233219924, 0.9999996467442429, -5.435617372680362E-4, 5.518962401471207E-4, 3.2628602082114544E-4, -0.16102654242141606, -0.027623892590534164, 0.012634883844722763, 0
227, 1233236591, 0.9999992536530994, -0.0010584985600305824, 5.467955008602311E-4, 2.7071889996820036E-4, -0.16225540088542845, -0.025664368129146076, 0.008318024890655695, 0
228, 1233253258, 0.9999983318555471, -0.0016780477699294832, 6.20896101989621E-4, 3.673279672317606E-4, -0.16280767919037697, -0.025815573856662073, 0.008459774239398907, 0
229, 1233269925, 0.9999983679972273, -0.001622707835389231, 6.672534409801201E-4, 4.3080739117831035E-4, -0.1640657833374819, -0.027935790531927063, 0.012496624689732172, 0
230, 1233286592, 0.9999989624181408, -0.00125766077971802, 5.780802126809649E-4, 3.9909306280639517E-4, -0.1645144507161207, -0.028922058779770846, 0.013171208115505692, 0
231, 1233303259, 0.9999995243791652, -8.441634673025805E-4, 4.050686380374647E-4, 2.7303641240061105E-4, -0.16193806616257045, -0.02961016332900288, 0.015036256513371218, 0
232, 1233319926, 0.9999995681527637, -9.168977908085851E-4, 1.0666885449384102E-4, 1.0777051053443426E-4, -0.16477561887957265, -0.030137947141788298, 0.009859696326272177, 0
233, 1233336593, 0.9999994975629473, -7.856348931999657E-4, 6.096031081280207E-4, 1.2663221669115962E-4, -0.16146680602618774, -0.02843440191817964, 0.013734904395276262, 0
234, 1233353260, 0.9999997400352093, -3.1351937567204724E-4, 6.36709263588331E-4, 1.2742224492004461E-4, -0.16195696738183682, -0.027909235555594453, 0.0138698192593983, 0
235, 1233369927, 0.9999997517377514, 9.623359760332906E-6, 6.703956904411946E-4, 2.1679816590040177E-4, -0.16323405934394808, -0.02570932991750098, 0.012533627608271036, 0
236, 1233386594, 0.9999998155234132, -6.348640397876859E-5, 5.78940404911188E-4, 1.7248369149699266E-4, -0.16372900708660854, -0.023878954067978776, 0.011743824803466196, 0
237, 1233403261, 0.9999998555209917, -3.6007484550557023E-4, 3.175430349119379E-4, 2.418067875366026E-4, -0.16573074001326804, -0.022101849236556857, 0.011112813993315415, 0
238, 1233419928, 0.999999776552195, -5.447912351984885E-4, 1.616929628891484E-4, 3.5207024282604E-4, -0.16566113404608954, -0.023342292578378433, 0.011172827668289392, 0
239, 1233436595, 0.9999998879093982, -3.6651010885009605E-4, 9.715697108553246E-5, 2.835701925439985E-4, -0.16413184219291285, -0.025811366077323514, 0.011279783788478367, 0
240, 1233453262, 0.9999999616043032, 2.779096069854825E-6, 6.785900400663182E-5, 2.6866116991573763E-4, -0.16330737930245728, -0.026487304405383078, 0.010233490673785886, 0
241, 1233469929, 0.9999999123426359, 3.321780513110689E-4, 1.3596403252397193E-4, 2.156066896099665E-4, -0.16267401780916074, -0.026245714382555473, 0.007641346285981107, 0
242, 1233486596, 0.9999998598840074, 4.927698022412774E-4, 1.805676360189801E-4, 6.931966970138981E-5, -0.16296979331075329, -0.024380260654258412, 0.00523227470819769, 0
243, 1233503263, 0.9999998822149447, 4.3596273015444886E-4, 1.8159156026881232E-4, 1.1194239597040607E-4, -0.16336633274483084, -0.024468170992692276, 0.004653439550305394, 0
244, 1233519930, 0.9999998366006739, 4.642072543933201E-4, 2.2038302358673437E-4, 2.504826806271343E-4, -0.16193935330308398, -0.025202808752802563, 0.004898012075603683, 0
245, 1233536597, 0.999999821440925, 4.872016261884271E-4, 1.9323951487865143E-4, 2.870734807947917E-4, -0.16137613147476446, -0.025054509234530363, 0.004639999113958945, 0
246, 1233553264, 0.9999999021586139, 2.926357974212118E-4, 2.0727778926254994E-4, 2.590038046485915E-4, -0.1610460203261399, -0.02369593028463527, 0.00430927019291058, 0
247, 1233569931, 0.999999969376564, -3.585235330370862E-5, 7.039668422120783E-5, 2.3453312507198262E-4, -0.16185789546707766, -0.024298606653016794, 0.0059059490793566954, 0
248, 1233586598, 0.9999999381102244, -2.4302532189578174E-4, -7.272499467697592E-5, 2.437812862727609E-4, -0.16222521574277765, -0.02525327276853373, 0.007182840788373279, 0
249, 1233603265, 0.9999999805321729, -9.93777266078133E-5, -7.396048991759052E-5, 1.535889555753581E-4, -0.16189812332330686, -0.026051438158546353, 0.005740566670536504, 0
250, 1233619932, 0.9999999858816053, -5.258257436373259E-5, -8.641126518138532E-5, 1.341825445349762E-4, -0.1611852438317789, -0.02462849545450979, 0.0043567939813590195, 0
251, 1233636599, 0.9999999935232834, -6.954678223594635E-5, -8.264432331034356E-5, 3.586912580320901E-5, -0.16109000938671406, -0.02468844451267213, 0.0035530496666401207, 0
252, 1233653266, 0.9999999723416554, -2.042600622493146E-4, -6.345566628690459E-5, -9.781561087602447E-5, -0.16176677006890158, -0.024823556245125975, 0.004014512449391661, 0
253, 1233669933, 0.9999999330912118, -3.120817339932469E-4, -7.380606049234295E-5, -1.75997808434851E-4, -0.16248954698860693, -0.024588182282402494, 0.004850677085435198, 0
254, 1233686600, 0.9999999558350646, -1.6851594034170136E-4, -1.359393018240396E-4, -2.035994913252015E-4, -0.16342765861735264, -0.0233999020170245, 0.00679916630754418, 0
255, 1233703267, 0.9999999745489441, -2.0589541406129674E-6, -2.2512066240498732E-4, 1.4783750261156138E-5, -0.1637348441102271, -0.02339010579004691, 0.007039577005225478, 0
256, 1233719934, 0.9999999403970945, 2.4976011274224774E-4, -2.104751660685911E-4, 1.1191915827861443E-4, -0.1624614208372266, -0.024898161917775646, 0.008097518689010541, 0
257, 1233736601, 0.9999999560210271, 1.7425583677543877E-4, -2.3688182929321178E-4, 3.8468768763393064E-5, -0.1616486014288973, -0.026096124423267083, 0.007769579930991949, 0
258, 1233753268, 0.999999861366562, -3.441735117644257E-4, -3.464231573720445E-4, -1.969833661349188E-4, -0.16260139142168037, -0.026401709165171722, 0.009561734830310462, 0
259, 1233769935, 0.9999996741460069, -5.296467904417901E-4, -5.486093247362712E-4, -2.6497163268105617E-4, -0.16397730944413696, -0.02487481416428436, 0.011920320756101763, 0
260, 1233786602, 0.9999997598931849, -2.703104639434767E-4, -6.333626382203917E-4, -7.744413527518285E-5, -0.16490964453352774, -0.024610921319551338, 0.013075214552816503, 0
261, 1233803269, 0.9999997621497104, 1.2287259957512175E-4, -6.551661771097006E-4, 1.7708790806942462E-4, -0.1641673659857133, -0.026415095096099146, 0.0136531038800239, 0
262, 1233819936, 0.999999635491125, 4.861664573631713E-4, -6.378775386244319E-4, 2.928686370884184E-4, -0.16264641072574793, -0.02878582564598631, 0.01471810712845624, 0
263, 1233836603, 0.9999994210648168, 7.029511623332513E-4, -8.021979488671561E-4, 1.4215535703523965E-4, -0.1618653841544152, -0.029490965639217347, 0.014036555328725803, 0
264, 1233853270, 0.9999994294869589, 5.405630149787344E-4, -9.174783316465708E-4, -8.396960476015486E-5, -0.16134576359021635, -0.028342965300942987, 0.012200166273595478, 0
265, 1233869937, 0.999999496705259, 3.064642766508058E-4, -9.00672614855047E-4, -3.18524279629813E-4, -0.16179965452409525, -0.027500777399535686, 0.012340935282861565, 0
266, 1233886604, 0.9999994582825302, 3.6362433573328135E-4, -9.241362051588543E-4, -3.1174390602829033E-4, -0.16311539535550096, -0.027290668603112984, 0.014801658907806076, 0
267, 1233903271, 0.9999991478447053, 7.507278283283847E-4, -0.0010310764189671586, -2.7856598710224173E-4, -0.16394879264582618, -0.027171944937720814, 0.01575300298621564, 0
268, 1233919938, 0.9999989191160255, 9.553233356605212E-4, -0.0010968208603957532, -2.1472798004881083E-4, -0.16505916610347457, -0.02478608033622718, 0.01467098794247404, 0
269, 1233936605, 0.9999986972537218, 0.0010752837316222175, -0.0011949138434380613, -1.4641264436223575E-4, -0.16383698641502886, -0.02493020583406727, 0.014397259345648408, 0
270, 1233953272, 0.9999985548456946, 0.0010573584596279412, -0.0013024875068174404, -2.753650395134269E-4, -0.1642390813168696, -0.02435169278634984, 0.012688283122899588, 0
271, 1233969939, 0.9999986630970306, 8.27959096919989E-4, -0.001363839330769945, -3.580923979116802E-4, -0.16449012728066986, -0.02293110476549642, 0.011978264495200314, 0
272, 1233986606, 0.9999986628965838, 7.637352498306715E-4, -0.0014250383355859377, -2.453146039642015E-4, -0.16549925984972635, -0.021495621830934956, 0.011947710783834095, 0
273, 1234003273, 0.9999984933095651, 9.764214501121193E-4, -0.00143513175177451, -1.9406348983945502E-5, -0.16563900365595813, -0.02140769238709933, 0.012582249410821311, 0
274, 1234019940, 0.9999981096834989, 0.001349151921042499, -0.001381805410095638, 2.2590336728229438E-4, -0.1642039090681807, -0.02353215007040018, 0.013060063628179602, 0
275, 1234036607, 0.9999980419876205, 0.0014629427362304742, -0.001318842159860112, 1.9098385552070166E-4, -0.16308301442660814, -0.026691356646356093, 0.014934462893514341, 0
276, 1234053274, 0.9999980335102303, 0.0014400680798440924, -0.0013607346928146693, 8.70671789288402E-5, -0.16334535972975162, -0.02569941487722034, 0.016788213240221325, 0
277, 1234069941, 0.9999976430684684, 0.0016793989673050402, -0.0013720535584538784, 1.0462145795945428E-4, -0.1648583921526131, -0.025010233418236924, 0.018880733651645193, 0
278, 1234086608, 0.9999972500600428, 0.0019156177348119696, -0.0013350590471784554, 2.1885700060474134E-4, -0.16430869548603738, -0.023859927681115424, 0.020254509036828933, 0
279, 1234103275, 0.999997209240864, 0.0018300585460436641, -0.0014718506068902017, 2.5700582232471297E-4, -0.1647127980718292, -0.024094251519642604, 0.02246144847725122, 0
280, 1234119942, 0.9999969952036022, 0.0016716173592359884, -0.001783249840338619, 1.8788075487807115E-4, -0.16518362538752973, -0.024884108414221316, 0.025882744817727538, 0
281, 1234136609, 0.9999966240745107, 0.0015517464236161904, -0.0020805070473314813, 1.2414928312891318E-4, -0.16546819341614466, -0.02495449708966173, 0.026658053127796774, 0
282, 1234153276, 0.9999968513491179, 0.0012882561097781325, -0.0021533256906406954, 2.9606011924962483E-5, -0.16612602389587117, -0.024371104739259554, 0.027883255827577433, 0
283, 1234169943, 0.9999965347860228, 0.0011518684908433663, -0.0023633888105345506, 1.3419484564083237E-4, -0.1660039561786129, -0.024875786789173182, 0.031129439265066533, 0
284, 1234186610, 0.9999956470147887, 0.0013578894176803774, -0.0026191378116969814, 4.695664747148692E-5, -0.16641290503699513, -0.025292507546933844, 0.03285022401006227, 0
285, 1234203277, 0.999994578959945, 0.0016228519539310676, -0.0028636948864242395, 8.748631506529105E-5, -0.1669840759427324, -0.02419606227043334, 0.032686706100056154, 0
286, 1234219944, 0.999993847291591, 0.0018356200676549889, -0.0029843535598897968, 1.7178986872157936E-4, -0.16685725185636724, -0.02280599250144622, 0.03066961908774811, 0
287, 1234236611, 0.9999938113868418, 0.001696697019652374, -0.0030752703933668584, 2.0277881703480857E-4, -0.16485169774764022, -0.022868836952957005, 0.029180285200092707, 0
288, 1234253278, 0.9999934342036287, 0.0013121372943324938, -0.0033671497853942083, 2.6860319526323534E-4, -0.16397758309521304, -0.023261536341966718, 0.028909246445771336, 0
289, 1234269945, 0.9999929762489685, 0.001143950884720718, -0.003540151932175273, 4.5404118780001396E-4, -0.16382108411644491, -0.02328649403541739, 0.02762672476507655, 0
290, 1234286612, 0.9999923466934744, 0.0014876168856822886, -0.0035754595247207703, 5.564527533526639E-4, -0.1634174803879827, -0.02427745561235779, 0.026261451738496214, 0
291, 1234303279, 0.9999915414345059, 0.002007256105097499, -0.0035169514882374413, 7.204405588409972E-4, -0.1622213947025693, -0.025532202778809947, 0.02483098674129916, 0
292, 1234319946, 0.9999915686210028, 0.002304411648111987, -0.0033341697063197233, 6.600653239450249E-4, -0.16013151179467272, -0.029041844289215482, 0.022621990979324116, 0
293, 1234336613, 0.9999924457452292, 0.002086793830777159, -0.0032534963136396367, 4.10494482277507E-4, -0.15846516057018653, -0.02869982135345677, 0.021864120243659246, 0
294, 1234353280, 0.9999935117720897, 0.0016852748569242543, -0.003181490855756031, 1.1990961075598189E-4, -0.15975142296805434, -0.027140017455127854, 0.024228319957106406, 0
295, 1234369947, 0.9999939279137467, 0.0017048287937651008, -0.003039351991454942, -5.8217042426464424E-6, -0.16125691045162005, -0.02373288544358218, 0.02791346243821448, 0
296, 1234386614, 0.9999941673071022, 0.0018500613571361402, -0.0028693000701955356, 9.870084662358392E-5, -0.16360438772936503, -0.02277590825424652, 0.030337584862780084, 0
297, 1234403281, 0.9999944442668856, 0.0015321607722638964, -0.002955905233913869, 1.6292016104865056E-4, -0.1636318234873156, -0.02320691191539929, 0.034191078426004495, 0
298, 1234419948, 0.9999937368259435, 9.991914348532055E-4, -0.0033947240311099085, 6.14338246586188E-5, -0.16302361392306353, -0.02399028203911137, 0.03874460186998996, 0
299, 1234436615, 0.9999924769208709, 3.833873877390759E-4, -0.003859707314185668, -4.2133373230605904E-5, -0.1615088398592242, -0.02507806077442565, 0.04165925360563706, 0
300, 1234453282, 0.999991428582144, -1.1111910384566104E-4, -0.004134722665121272, -1.8569671562230355E-4, -0.16028742086800374, -0.02637970363306783, 0.0446538280064617, 0
301, 1234469949, 0.9999907489415791, -2.9823092316866306E-4, -0.004280382778241831, -3.02345576909148E-4, -0.16067127736763814, -0.02758949764936819, 0.04784521338912383, 0
302, 1234486616, 0.9999906056455513, -5.8460506451252225E-5, -0.004323064008628142, -3.1035558632287047E-4, -0.1607570260026785, -0.02966176243280977, 0.05204329489994319, 0
303, 1234503283, 0.9999902188504174, 6.583496734580141E-4, -0.004355110812640729, -4.0223004799284234E-4, -0.16052552813144572, -0.030967530023071344, 0.05387105254780065, 0
304, 1234519950, 0.9999892309178943, 0.001260474259462907, -0.004431838301327652, -5.550334679725391E-4, -0.16132604452112187, -0.030155543012989866, 0.05313868122629023, 0
305, 1234536617, 0.9999888017582322, 0.0012100689333874315, -0.004518031952002288, -7.207486329968567E-4, -0.16194391791139595, -0.027268435259933724, 0.05094620280799081, 0
306, 1234553284, 0.9999888106094662, 0.001133597874638556, -0.004529675979698945, -7.587142034764308E-4, -0.16263637503774386, -0.026679547600147447, 0.050947126243751, 0
307, 1234569951, 0.999988608476787, 0.0015468609500480651, -0.00447134885771533, -6.302200035314885E-4, -0.16473202336148018, -0.026260499215225906, 0.05318779839651724, 0
308, 1234586618, 0.9999881184999221, 0.0018904281174525611, -0.004460001202269915, -5.454629174014153E-4, -0.1643458545957281, -0.02700973598974074, 0.05622991891260476, 0
309, 1234603285, 0.9999862285084803, 0.002260453333200199, -0.004716247297959775, -4.360682724719595E-4, -0.16262454151545672, -0.024873467916887874, 0.05726027543797908, 0
310, 1234619952, 0.9999848439845965, 0.002598287237487701, -0.0048413679329987755, -3.490860509647378E-4, -0.1615377789038855, -0.024254907109340987, 0.055057694482382485, 0
311, 1234636619, 0.9999848486556684, 0.002589623304346797, -0.00484355368163586, -3.6918555597006275E-4, -0.16070533832910083, -0.02447136178595144, 0.05378523200131962, 0
312, 1234653286, 0.9999856108631082, 0.0022776265034922943, -0.004842729935022328, -3.7209007426629304E-4, -0.16034959153188807, -0.02452546990918185, 0.05544195753533764, 0
313, 1234669953, 0.9999850917034979, 0.0021250497493919412, -0.005017829015860287, -3.491794339697957E-4, -0.159874792769125, -0.02281846440936198, 0.05756569410339832, 0
314, 1234686620, 0.9999849577574123, 0.0024516863099731806, -0.004903304037406687, -1.7635946477873726E-4, -0.16008848954556534, -0.02282451272808765, 0.060096765954920674, 0
315, 1234703287, 0.9999836791472838, 0.0030381043262335122, -0.004838487844377516, -1.9913435660608162E-5, -0.15957041777188008, -0.021587386943917444, 0.06161530685549891, 0
316, 1234719954, 0.9999828128269761, 0.003296502251565872, -0.004847225350638863, 1.0737762609210055E-4, -0.15822016861095883, -0.02201176408276327, 0.0621024754270192, 0
317, 1234736621, 0.9999826565511886, 0.003081725746830355, -0.005018570039195147, 5.931282090323315E-5, -0.15632858968777902, -0.021727062784314063, 0.06195389563224825, 0
318, 1234753288, 0.9999828351919472, 0.0027312587244297387, -0.005183075317556352, 7.264645670106845E-5, -0.1566021056484443, -0.02101548625428845, 0.06281807948322868, 0
319, 1234769955, 0.9999828374319836, 0.0025017547469861207, -0.005297121675926998, 8.103465628006569E-5, -0.15691376801171697, -0.020812861277023566, 0.06436838925259895, 0
320, 1234786622, 0.9999822133215552, 0.0026129498400726398, -0.0053597271214825834, 1.3732749181510906E-4, -0.1548566201102804, -0.022599341664617204, 0.06560729145750402, 0
321, 1234803289, 0.9999827343441153, 0.002658007309945337, -0.005240096644267389, 8.601142591204565E-5, -0.15361690108729953, -0.0222066461714416, 0.06608122874326239, 0
322, 1234819956, 0.9999830038482977, 0.0024302792892395356, -0.005299599708964432, 1.908673550980733E-7, -0.15277478049920956, -0.021306347651857686, 0.06669268367097006, 0
323, 1234836623, 0.999982669993803, 0.0018573206565208125, -0.005584494851968159, -1.532621673595511E-4, -0.15158424870435153, -0.019875779901400787, 0.06689170825891724, 0
324, 1234853290, 0.999982718813016, 0.0014597383695678368, -0.005694277970728135, -8.023473632150571E-5, -0.15113285216614733, -0.018893649494732205, 0.06871055848149571, 0
325, 1234869957, 0.9999833194527953, 0.001533767383665341, -0.005568287017529705, -5.053189141349113E-5, -0.151706005990754, -0.01933878800085046, 0.07268902621348824, 0
326, 1234886624, 0.99998327125903, 0.001967534122460861, -0.005439153595672931, 4.02458573934214E-5, -0.14955778353255558, -0.01841589673316494, 0.07517999292899508, 0
327, 1234903291, 0.9999828182588036, 0.0021773259074248444, -0.005441270669843069, 1.2252579643334124E-4, -0.14797957400565856, -0.01785846338615453, 0.07424769357177494, 0
328, 1234919958, 0.9999833316276341, 0.0020037193093657424, -0.005412414119036258, 1.6537602746500776E-4, -0.1460428507455776, -0.019756589841310776, 0.07420716221173622, 0
329, 1234936625, 0.9999842331423254, 0.001620874425951116, -0.005376388817406819, 2.600259335800229E-5, -0.1444941378996218, -0.020180337421528437, 0.07622053191773566, 0
330, 1234953292, 0.9999846871411728, 0.001600727645579239, -0.005297034446424543, 6.767753555811731E-5, -0.14478813206813873, -0.019984995898704276, 0.07990750404225655, 0
331, 1234969959, 0.9999846823135515, 0.001886942308571317, -0.0052032441755695555, -2.8931620681457024E-5, -0.1444929795981194, -0.019969886802329986, 0.08178184341938396, 0
332, 1234986626, 0.9999851045266991, 0.0018897394532122816, -0.005118741890522417, -1.345027274434231E-4, -0.14360954402566742, -0.01914703155289419, 0.08515270998592957, 0
333, 1235003293, 0.9999849605754064, 0.0018304356903047839, -0.0051641057805452695, -2.452339164052201E-4, -0.1422400425717609, -0.01795589398437504, 0.08784886921716185, 0
334, 1235019960, 0.9999853092723371, 0.0018795778122437379, -0.005077601924523723, -2.5765374458008167E-4, -0.14315916853395858, -0.016714970939140948, 0.08935276088342076, 0
335, 1235036627, 0.9999855365186854, 0.0019863778294231804, -0.004995985553925054, -1.4555033683823218E-4, -0.1417919155386401, -0.015501106374609651, 0.09309345639982212, 0
336, 1235053294, 0.9999846411057816, 0.002131689370355981, -0.0051156899703671, -5.6294729701113905E-5, -0.1416110602898507, -0.014220569676935399, 0.09480594467468181, 0
337, 1235069961, 0.9999842709376353, 0.002064105767616335, -0.005214957060660996, -3.959244312516653E-5, -0.1419520642957504, -0.013094212506385577, 0.09585801906882047, 0
338, 1235086628, 0.9999843492416177, 0.0018916868078960383, -0.0052651149701726805, 3.684005909409399E-5, -0.14268335560633766, -0.012341267456659661, 0.09699274991085098, 0
339, 1235103295, 0.999983940949624, 0.0018487704604120136, -0.005356344728110697, 9.727177048117834E-5, -0.14250057553626763, -0.011773963015907562, 0.10092683868388169, 0
340, 1235119962, 0.9999828300343577, 0.0021614752228555426, -0.005436387683614875, 3.366753500719556E-4, -0.14067704791098237, -0.012648548782521887, 0.10313709442082546, 0
341, 1235136629, 0.999982020672778, 0.002505531463532218, -0.0054288986187499, 4.557445121756328E-4, -0.13904969150301633, -0.013252213574829978, 0.10207094605906551, 0
342, 1235153296, 0.9999823552827871, 0.0024217042585939624, -0.005399188368378383, 5.227203233912348E-4, -0.13750987957015212, -0.011898406507987127, 0.10151622568516915, 0
343, 1235169963, 0.9999819220345972, 0.0022510622428872917, -0.005537339683092669, 6.528338268497227E-4, -0.13777864212223637, -0.010632598207593802, 0.10258381883824515, 0
344, 1235186630, 0.9999814727416342, 0.002111140994367277, -0.0056544661220585, 7.90107618547347E-4, -0.1379597904187497, -0.010029089532609465, 0.10272371334454822, 0
345, 1235203297, 0.9999812859276184, 0.0018768662882896504, -0.005731896394868263, 0.0010249542433711306, -0.1359123255016286, -0.009905233150767204, 0.10438684369996913, 0
346, 1235219964, 0.9999809380741213, 0.0017568268964689542, -0.005792322085559577, 0.0012190375356931384, -0.13492208137230188, -0.00983116600799643, 0.10708998450241163, 0
347, 1235236631, 0.9999804226550486, 0.0020073739209255266, -0.005758509213082631, 0.0014015449385964692, -0.1334412515620008, -0.008963704310137089, 0.11001186539661147, 0
348, 1235253298, 0.9999797933871346, 0.0021387383491485133, -0.005788537372127423, 0.0015269089000094355, -0.12968022688576952, -0.00942394636556946, 0.10842928479970114, 0
349, 1235269965, 0.9999802427900542, 0.001509178517150607, -0.005955304145401963, 0.0013306999223663617, -0.12663839870982851, -0.008942685850781996, 0.10758807486866226, 0
350, 1235286632, 0.999979466585146, 8.424979076071606E-4, -0.006235060547783334, 0.001216809487060818, -0.1259304813865778, -0.008685777520239905, 0.10979527126551127, 0
351, 1235303299, 0.9999795124965399, 7.19501864901358E-4, -0.00624691533763544, 0.0011970601543750544, -0.12565408084464716, -0.008437558589131455, 0.11062396085588945, 0
352, 1235319966, 0.9999804278272338, 9.539731865174528E-4, -0.006050608397722258, 0.0012743765688171434, -0.12284764116511615, -0.007777815587055631, 0.11318358483440581, 0
353, 1235336633, 0.9999810546430175, 0.0014712182690536438, -0.0057928180636177, 0.0014727969055664746, -0.12081870187218047, -0.008157498861443478, 0.11519425508749503, 0
354, 1235353300, 0.9999813462785274, 0.002101308372814057, -0.005525593527709428, 0.0015360384997829372, -0.11810251483637083, -0.008916482283757104, 0.11720364412964593, 0
355, 1235369967, 0.9999807638467361, 0.002439674222881043, -0.005499131322605989, 0.001509794979879211, -0.11727418709719656, -0.008783145382826145, 0.11797627807568896, 0
356, 1235386634, 0.9999809421499694, 0.002462248643597722, -0.005483529995073345, 0.0014083917317371727, -0.1138209164750145, -0.0075808052737395305, 0.11796095578443823, 0
357, 1235403301, 0.9999822532693224, 0.0018731924963106446, -0.005549888028213379, 0.0010876760339122024, -0.11170079262775948, -0.007044145141763712, 0.11886510765335145, 0
358, 1235419968, 0.9999826280664064, 0.0010316610765447078, -0.005754987353165542, 7.479046670830561E-4, -0.11488980601033248, -0.004869162998181403, 0.12204077016318907, 0
359, 1235436635, 0.9999834869446986, 0.0010903504026015323, -0.005582492312892596, 8.20215519053938E-4, -0.11551790423056177, -0.003447447775657529, 0.12949620108225782, 0
360, 1235453302, 0.9999818812703649, 0.0022129182208588515, -0.005476689912273237, 0.001160168752561877, -0.11266032540128297, -0.003219981988087991, 0.13399114977460927, 0
361, 1235469969, 0.9999789386881555, 0.0033315233790775223, -0.005442535254964798, 0.0011840363521330585, -0.1088408057720767, -0.005448417950021805, 0.1344355358028005, 0
362, 1235486636, 0.9999780866387632, 0.0036128124186774174, -0.005419094099986894, 0.0011862747746453073, -0.10939059249057159, -0.002949101330274712, 0.12953261821216297, 0
363, 1235503303, 0.999978755963655, 0.003523972100243576, -0.005335555536818999, 0.0012653415076828575, -0.10809096464819973, 2.9549470048466624E-4, 0.1272587351395459, 0
364, 1235519970, 0.9999791262563108, 0.0035916449110752063, -0.005183068249962231, 0.0014081697391879824, -0.10389565802273157, 9.070481246741561E-4, 0.12657234286407779, 0
365, 1235536637, 0.9999806116981117, 0.003223650326913269, -0.005160739789875829, 0.0013232804923451887, -0.10040969433880884, 7.857010777268417E-4, 0.12694470210654174, 0
366, 1235553304, 0.9999827356689666, 0.002283722308068673, -0.005284290207039689, 0.0011786659565490298, -0.10000860998802132, 0.0017865423902244035, 0.12949447677127565, 0
367, 1235569971, 0.999981350899963, 0.0024716669381276007, -0.005442652687427941, 0.0012514977252040332, -0.10273092263227307, 0.004939661061987536, 0.13623368050766588, 0
368, 1235586638, 0.9999799851088884, 0.003484370146125508, -0.005033629974981136, 0.0015972212079678402, -0.10107729746761905, 0.0028664278707825363, 0.13432802695581458, 0
369, 1235603305, 0.999976869060666, 0.004753535248977821, -0.00450914798311558, 0.0018256042098267965, -0.09840616636195867, 0.004785378404958684, 0.13853661906199424, 0
370, 1235619972, 0.9999745759763903, 0.005194761466230671, -0.004479708911890757, 0.001947835263111694, -0.09368370504933515, 0.006561599918866115, 0.1323016029457289, 0
371, 1235636639, 0.9999792962984896, 0.00397249217501186, -0.004740495316830296, 0.0017759460712972674, -0.0931281980928857, 0.009249851917271606, 0.13074330358550632, 0
372, 1235653306, 0.9999815469589732, 0.0023529733836307257, -0.005399446250499874, 0.0014883675563288276, -0.09144994096807912, 0.010549731989450476, 0.13117447707890484, 0
373, 1235669973, 0.9999811177015485, 0.0013862067826497584, -0.005849798079198415, 0.0012737870897910136, -0.08998859907982386, 0.010581583112167187, 0.13114709082441622, 0
374, 1235686640, 0.9999821461352008, 0.001529506142652494, -0.0056311820930310405, 0.0012875597201067596, -0.08787535431929525, 0.010673056909206134, 0.13217715809499908, 0
375, 1235703307, 0.9999834317623043, 0.0023940657072960836, -0.005068568551398784, 0.0013092987107231476, -0.08480313557494243, 0.009914738222516036, 0.1331765118535032, 0
376, 1235719974, 0.9999834948729643, 0.0028782936635029788, -0.004793839914664062, 0.001320797528549085, -0.08476408636685615, 0.013229269520112902, 0.13295003899804558, 0
377, 1235736641, 0.9999832543247282, 0.003223131891991235, -0.004543999944705279, 0.0015667020888922927, -0.08369759978205499, 0.014280225328847781, 0.1317862838761596, 0
378, 1235753308, 0.9999842810824362, 0.0030443076625780857, -0.004401440299642901, 0.0016724539417909828, -0.08114181451226889, 0.014194804286863483, 0.1306086683508351, 0
379, 1235769975, 0.9999864210521547, 0.0023912238342634617, -0.004410132543636592, 0.0014108475554034732, -0.07737631306446298, 0.014697114793124053, 0.130618316963762, 0
380, 1235786642, 0.9999874871656834, 0.0019032026068158125, -0.004454789189918957, 0.001248272875949294, -0.07592580618680433, 0.015348758890205611, 0.13116608826451268, 0
381, 1235803309, 0.9999874086459308, 0.00201384823010968, -0.004435859502607747, 0.0012042073639323902, -0.07614161121553333, 0.016693190767320742, 0.13152673735094347, 0
382, 1235819976, 0.9999884012513544, 0.0020775372024768313, -0.004172009894067381, 0.001214716171124161, -0.07287081732763666, 0.01710914007208256, 0.13150334814182457, 0
383, 1235836643, 0.9999895746214297, 0.001978923884514025, -0.003968294266587514, 0.0010895638232868573, -0.06945725816032469, 0.01545341411674689, 0.13181872934256855, 0
384, 1235853310, 0.999990597051528, 0.0018667736041605432, -0.003824529394530763, 8.330304613960449E-4, -0.06825316965777982, 0.01608414672062085, 0.1321220644351549, 0
385, 1235869977, 0.9999910911012445, 0.0016480933888027571, -0.0038172475030466, 7.280987740079862E-4, -0.06888403741560559, 0.018635801763760968, 0.12965177037870662, 0
386, 1235886644, 0.9999923378285771, 0.001439755224634881, -0.0035519424738603704, 7.969276581985055E-4, -0.06972316109474694, 0.021704561772375987, 0.12877222836392183, 0
387, 1235903311, 0.9999928897744795, 0.0015268997336517348, -0.0032870174072990315, 0.0010413905381909674, -0.06790871248541931, 0.022521500722934885, 0.13380822701301887, 0
388, 1235919978, 0.999992739567827, 0.001827043046952137, -0.003099499143251972, 0.0012553208345647826, -0.06748287114775674, 0.022210480420077436, 0.13618774062284614, 0
389, 1235936645, 0.9999927835148849, 0.002012821435021961, -0.002923597708489517, 0.0013542689771045837, -0.06652218535288736, 0.021932557810312295, 0.13696074206067924, 0
390, 1235953312, 0.9999926713136712, 0.0022121186499397955, -0.002800040304073909, 0.0013869478440564978, -0.06395301385644656, 0.02224459727901296, 0.13514766290941657, 0
391, 1235969979, 0.9999936124872796, 0.002177162260780227, -0.002468009780960401, 0.0013942298418183898, -0.05949886348264534, 0.021650037193254958, 0.13326428963187228, 0
392, 1235986646, 0.9999957992898288, 0.001453274164650159, -0.002248223727344734, 0.0011112546829824335, -0.05812054763474114, 0.02065555462907665, 0.13553713045950339, 0
393, 1236003313, 0.9999966716481944, 8.06287034071651E-4, -0.002283208676437651, 8.908152961488587E-4, -0.058061472685458096, 0.02127591381554531, 0.13964094698516688, 0
394, 1236019980, 0.9999968784347882, 0.001009025780396619, -0.0021010110514048806, 9.004111370475715E-4, -0.05899275811242069, 0.022010648181094147, 0.14303215850065565, 0
395, 1236036647, 0.9999967833253927, 0.001391100124870509, -0.002004543934662984, 6.928079996302989E-4, -0.05711236872810551, 0.022783163129783013, 0.14477090429411904, 0
396, 1236053314, 0.9999968274281434, 9.80669527041525E-4, -0.0023017154459667876, 2.924498802598166E-4, -0.05521424855198048, 0.024125099209845558, 0.14335277947888295, 0
397, 1236069981, 0.9999964084444277, -1.5821824233512582E-4, -0.002670408100342317, -1.6427358512277615E-4, -0.056633820461672854, 0.026448812985752714, 0.14236369428707332, 0
398, 1236086648, 0.9999956551170383, -8.912924358076002E-4, -0.0027834602789072187, -3.843094003987482E-4, -0.05831010606873292, 0.02981536517930895, 0.1437634367592318, 0
399, 1236103315, 0.9999959118918699, -7.75468137627619E-4, -0.0027465373561065963, -1.7714758451959497E-4, -0.06088816372764633, 0.03111452268508713, 0.14440694478288563, 0
400, 1236119982, 0.9999971572365821, 4.8434369355615514E-5, -0.002378301014512974, 1.6388151417295882E-4, -0.06071589955612178, 0.031262615645624915, 0.14557138878188286, 0
401, 1236136649, 0.9999974057954302, 0.0010009566810817855, -0.001967614628956796, 5.612315067111824E-4, -0.05665268314966347, 0.030740952146984316, 0.14513477982446, 0
402, 1236153316, 0.9999977290413692, 9.059127703301278E-4, -0.0018414193726350588, 5.74812013604091E-4, -0.0544435939521216, 0.029986426433451837, 0.14235502157917437, 0
403, 1236169983, 0.9999977504186155, 1.9724820553476685E-4, -0.002060641056778404, 4.6261138015169656E-4, -0.05397258725712707, 0.031089567906975552, 0.1400277846074, 0
404, 1236186650, 0.9999977358013514, -1.6172213768511634E-4, -0.0020532399428874475, 5.352045008504419E-4, -0.05333574750518724, 0.033697882418185644, 0.13938179910022716, 0
405, 1236203317, 0.9999981372543396, 3.325749526026933E-4, -0.001692733621182746, 8.657566860668307E-4, -0.052835747144431386, 0.03271327255996087, 0.13966373658441336, 0
406, 1236219984, 0.9999980503658428, 0.0010940761549788763, -0.0011704120420564792, 0.0011542952534133177, -0.053476997107803195, 0.030777134204333076, 0.13948848908576592, 0
407, 1236236651, 0.9999982484654966, 0.001116646038980193, -9.707073683578733E-4, 0.0011462524885927433, -0.05039528538838114, 0.030174537242871113, 0.1386417601161309, 0
408, 1236253318, 0.9999985572505973, 8.302845693840821E-4, -0.0010078398505255356, 0.0010864543678799077, -0.04968725596523621, 0.03133158888558634, 0.13668110045886267, 0
409, 1236269985, 0.9999984697682981, 8.894232478527803E-4, -8.578375715025399E-4, 0.0012383464980467026, -0.04830259166131909, 0.031324193944583696, 0.13472253390719907, 0
410, 1236286652, 0.999998872437596, 8.048459063327851E-4, -4.000108446866463E-4, 0.0012030535847589521, -0.04504110394926686, 0.028495917426211062, 0.1355604677231932, 0
411, 1236303319, 0.9999994758025312, 2.984552535758994E-4, -1.7648587017138342E-4, 9.634167644214238E-4, -0.04439681549413091, 0.02783429751904224, 0.1395509077046216, 0
412, 1236319986, 0.999999691597177, 6.892515413883804E-5, -2.8052455372890034E-4, 7.303155816465179E-4, -0.04499685759158172, 0.027542655764749468, 0.1417085948117628, 0
413, 1236336653, 0.99999974766567, 2.1961411632681616E-4, -9.01250797004649E-5, 6.695638178183598E-4, -0.04499983167152739, 0.028004209379852527, 0.14135879837434492, 0
414, 1236353320, 0.9999996501348165, 3.9002359711412526E-4, 3.6727255006209497E-4, 6.424349867125839E-4, -0.04450422743784925, 0.028540852579606844, 0.14404216490220387, 0
415, 1236369987, 0.9999995500568372, 5.976972619402138E-4, 4.3121742480528585E-4, 5.972400176425323E-4, -0.04685957944985328, 0.029113690678871294, 0.1464139425960824, 0
416, 1236386654, 0.9999997800487734, 4.0456097161448157E-4, 2.806100870076656E-4, 4.443993745275737E-4, -0.04923516192802779, 0.029568978027968422, 0.14606238679996209, 0
417, 1236403321, 0.9999999491311816, -6.583467999177195E-5, 1.545619416497418E-4, 2.7113471809487455E-4, -0.04824541731883302, 0.0316616539213512, 0.14788318460154018, 0
418, 1236419988, 0.9999999677240837, -1.486543671113949E-4, 1.2079137058668145E-4, 1.6692260287168303E-4, -0.050223420879898534, 0.031802973155797956, 0.15033083268802816, 0
419, 1236436655, 0.9999999587311135, 4.385813308484254E-5, 2.0164058964529388E-4, 1.998882390155596E-4, -0.04887824933733166, 0.030648139982889098, 0.15071752268590288, 0
420, 1236453322, 0.999999955688885, 1.2751791074017138E-5, 2.7360162511470837E-4, 1.1662662879969449E-4, -0.04799248884848791, 0.029956913834920364, 0.15013681222625763, 0
421, 1236469989, 0.9999998803863716, -3.9025069983375515E-4, 2.944316430913696E-4, -1.5544815538760807E-5, -0.05007287427306008, 0.03198070380866142, 0.15102650749229646, 0
422, 1236486656, 0.9999998905965471, -3.162786860953365E-4, 3.194607153431534E-4, 1.293040515127422E-4, -0.053295834102625526, 0.034750692716005206, 0.15334888012131107, 0
423, 1236503323, 0.9999996252553113, 5.615466146378506E-4, 3.447734025702615E-4, 5.615032835202747E-4, -0.054207975983316475, 0.035461899382201095, 0.15301800594681908, 0
424, 1236519990, 0.9999989285427241, 0.0010916959480610777, 4.79559300456775E-4, 8.491974081627843E-4, -0.051691977567239186, 0.03400058681334038, 0.14800753543209294, 0
425, 1236536657, 0.9999993829437789, 4.6142392180829883E-4, 6.900461677971231E-4, 7.382657461990559E-4, -0.05031234308064986, 0.03344395605863792, 0.14566428556198396, 0
426, 1236553324, 0.9999996547941834, -3.5972146349050327E-4, 5.292329660911006E-4, 5.300230656747756E-4, -0.05286391584526895, 0.03457118370297384, 0.14802077959211699, 0
427, 1236569991, 0.9999995793184671, -5.538336148518397E-4, 4.080766566787048E-4, 6.06716291307985E-4, -0.05402121110879503, 0.035565833301725205, 0.1510980505214, 0
428, 1236586658, 0.9999995951194068, -1.6115115835108051E-4, 3.693936009296767E-4, 8.045742316082904E-4, -0.05158539525481847, 0.0338767084139566, 0.15275267984768354, 0
429, 1236603325, 0.9999996164924806, -1.0776834667713953E-7, 4.449278735828288E-4, 7.543567242320749E-4, -0.05078863254122298, 0.03154840719183291, 0.15198540029246446, 0
430, 1236619992, 0.9999997636295609, -4.321309693113562E-4, 3.8264887176227286E-4, 3.736087372695346E-4, -0.05162633370929979, 0.029854571534876945, 0.15463925500625114, 0
431, 1236636659, 0.9999997846215656, -5.939627297639888E-4, 1.253893779032539E-4, 2.4948467308054395E-4, -0.053605038889667944, 0.032119321056956154, 0.15664623375389067, 0
432, 1236653326, 0.9999997757241323, 2.73358198590562E-4, 2.518656577852469E-4, 5.571271585611826E-4, -0.05231112504842973, 0.032648264995732604, 0.1562468023419707, 0
433, 1236669993, 0.999999049417325, 0.0010655721499127219, 5.460043590088393E-4, 6.838126056473577E-4, -0.05205492160330447, 0.031106856628883857, 0.15335940970603854, 0
434, 1236686660, 0.999999524270139, 5.942642622563943E-4, 5.976165953070768E-4, 4.910843992323721E-4, -0.05224811158997214, 0.031341867049420796, 0.15281630987753927, 0
435, 1236703327, 0.9999999113042807, -1.1745552953763838E-4, 3.4347608153262327E-4, 2.1358794618263346E-4, -0.052727760680088304, 0.033171422801740215, 0.15419527640596792, 0
436, 1236719994, 0.9999999378963823, -1.8949852751672103E-4, 1.6498866058919928E-4, 2.471361598375549E-4, -0.05371157649844415, 0.03595750751877379, 0.15605991027558275, 0
437, 1236736661, 0.9999999611754451, -1.529763329970596E-4, 5.102724969555106E-5, 2.272522157960172E-4, -0.05401147270524725, 0.032723514001058954, 0.15342019655006994, 0
438, 1236753328, 0.9999999128300237, 2.45434539528841E-4, 9.026301220947665E-5, 3.255064062970131E-4, -0.05614157452386831, 0.033687541111589094, 0.15696268084920995, 0
439, 1236769995, 0.9999997331809517, 6.428071676718439E-4, 2.0661447955816484E-4, 2.788322572719604E-4, -0.052988631567376675, 0.03340416937836731, 0.15482016746230937, 0
440, 1236786662, 0.9999998209302481, 5.115705097604867E-4, 1.6259017062547623E-4, 2.645742276043417E-4, -0.053085291411832394, 0.03416981983293643, 0.15463726761356494, 0
441, 1236803329, 0.9999999404774403, 2.6678008534795905E-4, 1.1386438719850067E-4, 1.8683790604578923E-4, -0.05433611387177538, 0.03466971189732597, 0.15407706810843697, 0
442, 1236819996, 0.9999999732477801, 9.090348052288866E-5, -6.286710069272618E-5, 2.0319626934287016E-4, -0.05666952830329657, 0.03525975639193061, 0.15479117294699146, 0
443, 1236836663, 0.9999999198269119, 1.6290579787174575E-4, -2.275376043224531E-5, 3.650892180894206E-4, -0.05565260596911253, 0.03637385109308605, 0.15455585159343313, 0
444, 1236853330, 0.9999997654204852, 3.83930169905608E-4, -1.0967376973688993E-5, 5.671298933921792E-4, -0.05208350829881782, 0.03530392434378676, 0.15387505083714423, 0
445, 1236869997, 0.999999828664666, 3.8044287559646506E-4, -5.512470633864397E-6, 4.448634283083092E-4, -0.051430268798554474, 0.033206411722528265, 0.15333137232873983, 0
446, 1236886664, 0.9999999828483078, 6.874927618132076E-5, -1.0841526154303784E-4, 1.3350300349342092E-4, -0.05261961921893648, 0.03226711612008029, 0.15400876445978867, 0
447, 1236903331, 0.9999999490824885, -2.2765481616200678E-4, -2.2344643808763778E-4, -8.94396986921009E-6, -0.05508602061768951, 0.03408100369541261, 0.15438213654699806, 0
448, 1236919998, 0.9999999570406781, -6.054996369186938E-6, -2.450563584710242E-4, 1.6071515229515443E-4, -0.05427681769771076, 0.03634250104578411, 0.15400821198724343, 0
449, 1236936665, 0.9999998867748162, 2.682331395467835E-4, -1.652119473014163E-4, 3.5665999207736004E-4, -0.05316162074364905, 0.03597314177917929, 0.15096167345008718, 0
450, 1236953332, 0.9999999414594803, -1.3507817400690292E-4, -1.39197300508806E-4, 2.8188478879631607E-4, -0.05345925223757897, 0.03451056505865185, 0.14941626632926244, 0
451, 1236969999, 0.9999995635650607, -8.571865419637337E-4, -3.6133115509726094E-4, 8.683729920494489E-5, -0.05334092507644975, 0.033347232722698836, 0.15088104917939651, 0
452, 1236986666, 0.9999994389578668, -9.343102476696147E-4, -4.977159727407727E-4, 3.7777284591505866E-5, -0.05218773797328076, 0.03359723537680362, 0.15269112224008616, 0
453, 1237003333, 0.9999998233203001, -4.265861700424173E-4, -3.8914615876899095E-4, 1.4124048730275454E-4, -0.050790720915195826, 0.03262951470337378, 0.15270370824850754, 0
454, 1237020000, 0.9999999404077273, -1.993491675448683E-4, -2.304718225400876E-4, 1.6225655686076534E-4, -0.051324041698920936, 0.03139936101549284, 0.1516254998340174, 0
455, 1237036667, 0.9999999452541972, -1.889839092375778E-4, -2.557188828660601E-4, 9.156712138504165E-5, -0.05239777110973302, 0.03304927905227331, 0.15158377041093588, 0
456, 1237053334, 0.9999999559382643, 1.0302826549034305E-4, -2.228683129385928E-4, 1.668483176208435E-4, -0.05217140761982247, 0.03416787781761646, 0.15113760103853296, 0
457, 1237070001, 0.9999997893774406, 5.611110907851602E-4, -1.4342030523670224E-4, 2.9296763345978977E-4, -0.050823911672734826, 0.03415000635576118, 0.1479447740846553, 0
458, 1237086668, 0.9999999532564615, 1.8911582029838836E-4, 4.630865648042049E-5, 2.357494215048661E-4, -0.04873122186512009, 0.03229433840772329, 0.14511347712237643, 0
459, 1237103335, 0.9999998244659453, -5.906242409723511E-4, 4.924957817592502E-6, -4.697690354411866E-5, -0.04907473001381589, 0.03182396266882816, 0.14673127453507342, 0
460, 1237120002, 0.9999997569553731, -6.864036147075092E-4, -1.0835192292350805E-4, -5.656088121896996E-5, -0.0507284157656926, 0.03206326488562478, 0.14940030518113684, 0
461, 1237136669, 0.9999999916306681, 2.862219838117852E-5, 9.871270708469715E-5, 7.858266385256386E-5, -0.04987567026574304, 0.0311012041136534, 0.1483279372724294, 0
462, 1237153336, 0.9999998887445529, 3.242093284316072E-4, 3.2953943484984044E-4, 9.382405894038659E-5, -0.04719731119144156, 0.029697132528036695, 0.14661815177862456, 0
463, 1237170003, 0.9999998900614802, -2.304882979601297E-4, 3.742657575957487E-4, -1.6333191606403288E-4, -0.04675585506980813, 0.028867766538784465, 0.14588359733235046, 0
464, 1237186670, 0.9999996387319215, -6.826748135758953E-4, 3.935865113273707E-4, -3.1871740353234257E-4, -0.048096730941413465, 0.030656734920628304, 0.14657531385121175, 0
465, 1237203337, 0.9999997715861898, -3.458211568335007E-4, 4.923833927044374E-4, -3.0788616430098287E-4, -0.04913759017275911, 0.031175926430097426, 0.1481387392641606, 0
466, 1237220004, 0.9999998335307788, 1.1477721445819766E-4, 5.251205255595027E-4, -2.0979284809541365E-4, -0.0497318486648561, 0.03133613100198377, 0.14837255717870246, 0
467, 1237236671, 0.9999997864356435, 2.712318744248349E-4, 5.229584016041567E-4, -2.8297782222502793E-4, -0.049656292786566386, 0.03088501065738252, 0.1465086649915596, 0
468, 1237253338, 0.9999997382692364, 2.4127419391833937E-4, 5.905369924057992E-4, -3.41341885422744E-4, -0.05001751594979928, 0.03269691292209323, 0.1431134214307675, 0
469, 1237270005, 0.9999996070855915, 2.235840994702365E-4, 8.194568753815135E-4, -2.536321007045456E-4, -0.050554635296333375, 0.03446802492012196, 0.13920586419455996, 0
470, 1237286672, 0.9999993106161607, 1.1518912099377221E-4, 0.0011577521084567834, -1.584573301847969E-4, -0.049130032937338114, 0.03449640498180653, 0.13882144872513336, 0
471, 1237303339, 0.9999990965564843, -2.0732597492487126E-4, 0.0013013498998618591, -2.6531225657376595E-4, -0.04826513117246436, 0.03147640507255923, 0.1396080848097403, 0
472, 1237320006, 0.9999988304410543, -7.1849881624092E-4, 0.0012451366664607002, -5.220255321980449E-4, -0.05051296470299828, 0.03205240506044967, 0.1411856673965944, 0
473, 1237336673, 0.9999989963986304, -6.912563271708194E-4, 0.0011419495315398154, -4.746764049244207E-4, -0.05244604341207615, 0.03306756549413481, 0.1411097916632731, 0
474, 1237353340, 0.9999989019968689, 1.4339070184860025E-5, 0.0014586378095420157, -2.611037880887318E-4, -0.052325927299073906, 0.034059518787204396, 0.1371709648530578, 0
475, 1237370007, 0.9999982135439212, 2.917317130024938E-4, 0.0018602730504011513, -1.6488102313970412E-4, -0.05148575331342219, 0.032515573444815836, 0.1332643022843755, 0
476, 1237386674, 0.9999981041762658, -1.1885190661571621E-4, 0.0019267941056471396, -2.5491679583974913E-4, -0.05108478279296798, 0.031652703884917754, 0.13000797882492698, 0
477, 1237403341, 0.9999976716555016, -4.196486900984592E-4, 0.002095178256309324, -3.0134137896688234E-4, -0.05151107800426395, 0.031667749537206746, 0.12645597540399592, 0
478, 1237420008, 0.9999967099598809, -3.5183200591870634E-4, 0.0025238270250279586, -2.9424615763333495E-4, -0.0500785408372499, 0.0310645584886529, 0.12324393819405752, 0
479, 1237436675, 0.9999952034445979, -6.770317589762792E-4, 0.002988230891090127, -4.529811652430327E-4, -0.05032293041344432, 0.03008311246795624, 0.1232885305252121, 0
480, 1237453342, 0.9999932313190062, -0.0014148435977789364, 0.0033008540403067364, -7.999352291716694E-4, -0.049379317590423744, 0.029500796326366978, 0.12604620871293865, 0
481, 1237470009, 0.9999917299118445, -0.0021908764855776697, 0.0032462711518172205, -0.0010963082370007706, -0.054988160055455926, 0.03064403696046849, 0.12997795502840184, 0
482, 1237486676, 0.9999908911386287, -0.0024980165572860286, 0.003272511246249499, -0.0011261541608201808, -0.058495604600659154, 0.03213215762775513, 0.13279396524546194, 0
483, 1237503343, 0.9999912621246629, -0.002252605111228184, 0.0033910829559385407, -9.497372913159497E-4, -0.06012276060046416, 0.03294173453616829, 0.13370370499687756, 0
484, 1237520010, 0.9999912923027955, -0.0020193987288336934, 0.0035600085744912084, -8.146694474636951E-4, -0.05579566593077202, 0.031035299630240563, 0.13126219443428408, 0
485, 1237536677, 0.999988913236292, -0.0027092774168732264, 0.0037163538426947806, -0.0010109077572716676, -0.058318882724218764, 0.02748865102994169, 0.12786860323111723, 0
486, 1237553344, 0.999985598537396, -0.003459390730504497, 0.0038717881780868384, -0.0013581567964000563, -0.06186793184433558, 0.026392510006305034, 0.1300514558769217, 0
487, 1237570011, 0.9999834781251239, -0.0036807982842012726, 0.004152148169589171, -0.0015016212400554426, -0.06359585765907266, 0.026336706297002584, 0.13182088609407933, 0
488, 1237586678, 0.9999813655065087, -0.003946292871796514, 0.004351947592555029, -0.0016601097734263853, -0.06569757862969114, 0.02511932496487591, 0.13337360788933972, 0
489, 1237603345, 0.9999760590148471, -0.0048841438587355485, 0.004521992533434688, -0.001891591771475021, -0.06625231313285014, 0.023386699076810517, 0.1349301415601768, 0
490, 1237620012, 0.9999686126791877, -0.00644928902157571, 0.004004825651257039, -0.0022675314948570474, -0.0704245616340425, 0.020568231386732867, 0.14214213217672284, 0
491, 1237636679, 0.9999646292806575, -0.007398924659918232, 0.003165037237275681, -0.002445125919183486, -0.07443810751959574, 0.018926623916909163, 0.145355682496142, 0
492, 1237653346, 0.9999677110133615, -0.007141702996262059, 0.0028872054399322893, -0.0022884610023247848, -0.0751422902003397, 0.01747179079864149, 0.14533217570106433, 0
493, 1237670013, 0.9999756393390496, -0.005842007967589137, 0.003349113168474055, -0.0018371478846967162, -0.07638100327699643, 0.016204562703430833, 0.14269229885180723, 0
494, 1237686680, 0.9999804220248948, -0.0040647862141713065, 0.004541754087211886, -0.0014161743386751774, -0.07892856263188414, 0.0142897838225645, 0.1416943209585269, 0
495, 1237703347, 0.9999820132001501, -0.0025371479694482196, 0.0053663014291368, -8.596309251319435E-4, -0.08269832819756406, 0.013522321341441965, 0.1426852500972947, 0
496, 1237720014, 0.9999838679655891, -0.0018590180311422039, 0.005335829056690362, -5.803350899567933E-4, -0.08665281766399989, 0.012821476562186074, 0.14097525588413115, 0
497, 1237736681, 0.9999859081516761, -0.001991638178519939, 0.004909535533500098, -3.36654539157405E-4, -0.08809965792862912, 0.014537625915689325, 0.13468346245654322, 0
498, 1237753348, 0.9999845777165998, -0.002107380879629521, 0.005138050162727365, 6.095331958765049E-5, -0.08502962166093818, 0.012505563566777834, 0.13117570795929784, 0
499, 1237770015, 0.9999829232819735, -0.001588716974325298, 0.005609644545021387, 4.012616262985686E-4, -0.08601794348547759, 0.008870259416516781, 0.13218580776188993, 0
500, 1237786682, 0.9999744377581048, 7.554222643502834E-4, 0.007015715942138013, 0.0011545117513537262, -0.08629756639359833, 0.0061534415768180655, 0.13326975858866136, 0
501, 1237803349, 0.9999478599960949, 0.003953731010454757, 0.00920530030023975, 0.0019768021422168357, -0.08820238911358527, 0.0048712278881771435, 0.13467637319713407, 0
502, 1237820016, 0.9999331660811072, 0.0054299085274359254, 0.009955038058417411, 0.0022531492742554615, -0.09093364178856635, 0.004566145989805417, 0.13876304964625957, 0
503, 1237836683, 0.9999615034842265, 0.003092898321491587, 0.008093904599420223, 0.0013835598554514247, -0.09154865367918481, 0.00526076476840226, 0.135711591967186, 0
504, 1237853350, 0.9999831540280085, -9.284951591524773E-4, 0.0057260737416640626, 2.040500932247169E-4, -0.09162020727699174, 0.0070011819062933646, 0.12662889555714008, 0
505, 1237870017, 0.9999804185263369, -0.0033586056215422974, 0.005228330988496677, -7.395182525094386E-4, -0.09072119420134299, 0.008195563897800824, 0.12351133451423645, 0
506, 1237886684, 0.9999747560058989, -0.003958657162227382, 0.005789295116347738, -0.0011403711986661402, -0.09726137421441489, 0.006993011815264312, 0.12894923016117654, 0
507, 1237903351, 0.9999744879928893, -0.003824493689657149, 0.005913975138586131, -0.001192270706245613, -0.10537258405351085, 0.00792108663216276, 0.13592902534536472, 0
508, 1237920018, 0.999978512503076, -0.002927161894469704, 0.005811476507385866, -7.956105725692997E-4, -0.10948434184161557, 0.008615332651210509, 0.14007786509280604, 0
509, 1237936685, 0.9999842221563912, -6.196686638006918E-4, 0.005567163357733829, -4.2206773499968436E-4, -0.10871751084556379, 0.009754840195254012, 0.13986589218752332, 0
510, 1237953352, 0.9999816772569152, 2.515075333412581E-4, 0.006047377316639125, -1.0546088142818211E-4, -0.10724698226562415, 0.007085246993612468, 0.12449291019950919, 0
511, 1237970019, 0.999976529373337, 3.3458654717521616E-4, 0.0068431024268155735, 2.652308677671134E-5, -0.10677763484517716, 0.006806481658505426, 0.1253960739294603, 0
512, 1237986686, 0.9999791309565322, -5.403329977365576E-4, 0.0064357707065678125, -1.6293275482869019E-4, -0.11220575802608451, 0.005785804409019316, 0.12226699139863315, 0
513, 1238003353, 0.9999819608502566, -0.00231667950492203, 0.005525958914220641, -4.1802897721771043E-4, -0.11850715861341754, 0.006343775537698866, 0.12495691145199299, 0
514, 1238020020, 0.9999821434772441, -0.00362043795192097, 0.004724818044022084, -5.303302213262168E-4, -0.11501607674284284, 0.006967640128583527, 0.13623567967724753, 0
515, 1238036687, 0.9999870999398656, -0.0030714579853012985, 0.004027585948125635, -3.803302939580783E-4, -0.11412638385302087, 0.007040340849423197, 0.1434822570001483, 0
516, 1238053354, 0.9999907719528315, -0.002342171027460635, 0.0035995226652350003, -1.1696427139333554E-4, -0.11615291651359731, 0.003958866761569117, 0.13365985925095888, 0
517, 1238070021, 0.9999907573221529, -0.001732054105401143, 0.003935130304317469, -2.8863629980835363E-6, -0.11597221117644083, 0.00626479367698316, 0.12185935016197133, 0
518, 1238086688, 0.9999876962453909, -0.001967077327915144, 0.004553690129332933, 4.3253070846516195E-5, -0.1127339642771587, 0.004557050281180867, 0.11353713582028062, 0
519, 1238103355, 0.9999847318172047, -0.0025618989332113207, 0.004892414142862956, -1.9258811997378836E-4, -0.11255117284370983, 0.0033992117077851344, 0.11241084071125215, 0
520, 1238120022, 0.999984764174456, -0.0027042682861318605, 0.004805192233831469, -2.6168605268449274E-4, -0.11401276025304324, 0.0022050142290914124, 0.10900392692775089, 0
521, 1238136689, 0.9999855846400989, -0.0025006698867812358, 0.004746677078223294, -2.149856552994406E-4, -0.11512618631707686, 8.060176012424515E-4, 0.10076983851863869, 0
522, 1238153356, 0.999982476007411, -0.0032244234745691935, 0.004958657570442394, -2.499728856218686E-4, -0.11588068457594691, -0.0028509959067874167, 0.09442546939193731, 0
523, 1238170023, 0.9999773341608527, -0.004198812884776117, 0.00523392037779269, -5.542674372322199E-4, -0.1163467065799362, -0.008918724170346476, 0.09842426467542609, 0
524, 1238186690, 0.9999760067845295, -0.0038663817510346705, 0.005684023233286318, -8.537138311290882E-4, -0.11779336990197098, -0.010087782061021228, 0.10197762275250574, 0
525, 1238203357, 0.9999769807887899, -0.002230539531053618, 0.006365085641684698, -7.404530441459529E-4, -0.12225494977392606, -0.007111080316596038, 0.10266019247564952, 0
526, 1238220024, 0.9999773449007546, -2.6666252822157843E-4, 0.006717891538858435, -3.294079620143331E-4, -0.1277907986921519, -0.004160697460279466, 0.09670907740846019, 0
527, 1238236691, 0.9999743206387108, -5.722264301604892E-4, 0.0071414746890692835, -1.7308762727452634E-4, -0.1295836485855592, -0.005128295190985135, 0.09001904359078089, 0
528, 1238253358, 0.999971594186452, -0.0021938871848823024, 0.007188353917118918, -5.703044695055254E-4, -0.12612470329492767, -0.006876426894955484, 0.09495065483946995, 0
529, 1238270025, 0.999971672294913, -0.003739683386222971, 0.006443970554766865, -0.0010698688588082624, -0.12517657450300365, -0.01126572498168536, 0.10405370163659688, 0
530, 1238286692, 0.9999733418550205, -0.0038147924770182383, 0.006093814572547874, -0.001276072731080588, -0.13003908289658508, -0.01193797313304589, 0.10843725998285758, 0
531, 1238303359, 0.9999782473016278, -0.0023291715086793605, 0.0060509915764006, -0.001210530706021354, -0.1348962563792017, -0.009414637015482133, 0.10473220554398086, 0
532, 1238320026, 0.9999763537831663, -0.0014245648807219707, 0.006580126258496467, -0.001401580481739939, -0.13508940276201825, -0.006809663151496296, 0.09879086060621492, 0
533, 1238336693, 0.9999786533224551, -0.0013142967051020388, 0.006349077077231646, -8.091624358499556E-4, -0.13600614077546358, -0.003792449277435596, 0.09440954954385436, 0
534, 1238353360, 0.9999772062801031, -0.0010810971477113185, 0.006641869501817111, -5.511068118872336E-4, -0.1347535389945934, -0.009511675209110237, 0.0884112545710543, 0
535, 1238370027, 0.9999749460585776, -7.720427238780969E-4, 0.007009124721992056, -6.191734884438278E-4, -0.1368437292071986, -0.010233618953144202, 0.085254492050126, 0
536, 1238386694, 0.9999735068454468, -6.401622908060386E-4, 0.00720836063370195, -7.844338308932303E-4, -0.13892565496030024, -0.011822245754515065, 0.07955838668712385, 0
537, 1238403361, 0.9999713380861315, -4.940161544174856E-4, 0.007501803486294756, -8.954879808412559E-4, -0.14224382567259636, -0.010150576623634229, 0.07548288395285707, 0
538, 1238420028, 0.9999675605044557, -1.6560972589214212E-4, 0.008004967081841065, -8.780741454281066E-4, -0.14631282281948566, -0.009653811797498739, 0.07310257650708857, 0
539, 1238436695, 0.9999643217150972, 4.053720307386349E-5, 0.008400676641631856, -8.844690856615185E-4, -0.14727413562743924, -0.009127645235260893, 0.07568630518094847, 0
540, 1238453362, 0.9999661669582871, -8.31405508538649E-5, 0.008187360036314708, -7.906718888038844E-4, -0.14739251271270748, -0.01091892684424104, 0.07452910474600645, 0
541, 1238470029, 0.9999675344968789, -9.403724819297202E-4, 0.007947226462097834, -9.419359790066585E-4, -0.1477817525528402, -0.012781565948871924, 0.07119777783491608, 0
542, 1238486696, 0.9999663549658314, -0.002681304674573441, 0.0075975550033157155, -0.0015416548130268715, -0.14701108616397612, -0.015451881871592842, 0.07252508260131987, 0
543, 1238503363, 0.9999620675187658, -0.0046044156886909035, 0.007053528124962961, -0.002215992046753657, -0.1491331195345893, -0.01572849845009934, 0.07914730634750405, 0
544, 1238520030, 0.999962779288583, -0.005187753364429566, 0.00646118636422749, -0.002404230282045325, -0.14992680584049367, -0.015607789626883008, 0.0849146353015637, 0
545, 1238536697, 0.9999696472941025, -0.00400517990021735, 0.006342120883681579, -0.0021072558391834893, -0.15232483627186977, -0.01586655901298329, 0.08575427681021532, 0
546, 1238553364, 0.9999754816853775, -0.0017806309391942207, 0.006527105234586495, -0.0018061779569501016, -0.15675396571398775, -0.01656393165567101, 0.07820770705056143, 0
547, 1238570031, 0.9999702068944843, -5.702113045325044E-4, 0.007566903521402214, -0.0014149747587546768, -0.16011289080598978, -0.014942275503860987, 0.07088246785575902, 0
548, 1238586698, 0.9999682160459348, -0.0012545438495100494, 0.007742016586223755, -0.001433246949722411, -0.16084543126559941, -0.013777705501217225, 0.07086474160619499, 0
549, 1238603365, 0.999971475356133, -0.0026910103170939698, 0.0068943652130005195, -0.0015081995430838437, -0.16436644145617707, -0.011050370965268752, 0.0713112863264502, 0
550, 1238620032, 0.9999749763964645, -0.0031598472794958365, 0.006180587043083053, -0.0013646574161018318, -0.16447539549226936, -0.011090989581949911, 0.06876498484545755, 0
551, 1238636699, 0.9999775898066874, -0.0023178309611027875, 0.006182151011776272, -0.0011084010609116112, -0.16228032660944644, -0.012966148042495644, 0.06245301698006501, 0
552, 1238653366, 0.9999767292393129, -0.0015051682347789752, 0.006628850491497752, -5.77745265893527E-4, -0.16235836187844788, -0.016074335596971086, 0.057045227938244375, 0
553, 1238670033, 0.9999731962538246, -0.0015680887971362134, 0.0071043908671077904, -8.218891905113005E-4, -0.16102959770439262, -0.020860968520561966, 0.05455793427353316, 0
554, 1238686700, 0.9999725687296953, -0.0023640159376346337, 0.006921930706954572, -0.0011662298528123186, -0.16551393911633186, -0.016441409446429904, 0.05453416398091268, 0
555, 1238703367, 0.9999743166682475, -0.002903696782591725, 0.0064426496007140574, -0.0011944936118585064, -0.16594684398421897, -0.013414064716147103, 0.051973623227569675, 0
556, 1238720034, 0.9999755188642115, -0.002661187097732373, 0.00639932160966017, -9.635550933210293E-4, -0.16595979278257011, -0.013574533236277312, 0.04850527858134779, 0
557, 1238736701, 0.9999737520438364, -0.002293602383513199, 0.006845449628146427, -6.119075639467315E-4, -0.1679968586871723, -0.014429109120075641, 0.04515393724565973, 0
558, 1238753368, 0.999969686171153, -0.0026973170663725093, 0.007264626921791196, -7.59220057933857E-4, -0.1677587328302313, -0.017321490847439752, 0.05167092696748235, 0
559, 1238770035, 0.9999734261135571, -0.0030277506752315886, 0.006560425776575064, -9.698485412600045E-4, -0.17014067658332765, -0.017024360345801688, 0.056821540943417397, 0
560, 1238786702, 0.9999777121498876, -0.0032063562831088077, 0.005787835258864894, -8.918777261594027E-4, -0.17069234498620578, -0.016898926253589595, 0.05495611274161654, 0
561, 1238803369, 0.9999802010486706, -0.0031475501346948515, 0.005424982509789622, -5.099054602136778E-4, -0.16933988650009638, -0.015147347004676775, 0.04968043238399508, 0
562, 1238820036, 0.9999810344515342, -0.0023954164342608053, 0.005673739956209346, -3.7312938091740855E-5, -0.1674663935954226, -0.016442068410948578, 0.04444552860866767, 0
563, 1238836703, 0.9999781733435291, -0.0018050180576543312, 0.0063533679921258255, 1.7164354631555442E-4, -0.1682918845992913, -0.020532349170346954, 0.041836599611065076, 0
564, 1238853370, 0.9999772978263742, -0.001899693696313584, 0.006464812170956292, 3.4631160325974963E-5, -0.1692114026064513, -0.020783005280938276, 0.044758837044467564, 0
565, 1238870037, 0.9999811390403278, -0.0020770318948708233, 0.00577678626410566, -1.9037482805728953E-4, -0.17168604687932443, -0.018267626096401306, 0.04517076839049297, 0
566, 1238886704, 0.9999838973637295, -0.002249362131096083, 0.005207698302751474, -1.5893909782555699E-4, -0.17346352480563654, -0.014370754687277852, 0.04184130060041866, 0
567, 1238903371, 0.9999831525429382, -0.001969821850798817, 0.005451631983460493, 3.068238575660576E-4, -0.17449319740280156, -0.015470775930396856, 0.042438066777913536, 0
568, 1238920038, 0.9999842649524303, -0.0012153841812605898, 0.005419855575925892, 7.860371338263145E-4, -0.17239769988406772, -0.01915286190158845, 0.040894206870120825, 0
569, 1238936705, 0.999984066728965, -0.001332741804305454, 0.005438137459529202, 7.188521790401429E-4, -0.17105915061349797, -0.020786721884725523, 0.03848402787337987, 0
570, 1238953372, 0.9999854400753369, -0.0018335093081320586, 0.005056473147407815, 4.358443087793054E-4, -0.17135000077528237, -0.019784219773343555, 0.0353124654634049, 0
571, 1238970039, 0.9999869691067192, -0.0021739372022248626, 0.004595197770940863, 4.687976578858916E-4, -0.16925463938207513, -0.01640685682538326, 0.03303556124039228, 0
572, 1238986706, 0.9999876558046088, -0.0019360186191770407, 0.004514224520833555, 7.495647303515235E-4, -0.16876430467622738, -0.01865925984475546, 0.03200583306514074, 0
573, 1239003373, 0.9999882995059083, -0.0013011654523905486, 0.004573007277366148, 8.918655663358866E-4, -0.16954827802056055, -0.018869614103774593, 0.031707628703846316, 0
574, 1239020040, 0.9999885353433889, -6.265529393083558E-4, 0.004617811062074429, 0.0011011058953866795, -0.16985664353492774, -0.018425690626207487, 0.029806966465476523, 0
575, 1239036707, 0.9999889439746544, 1.612097958993003E-4, 0.004559945550485668, 0.0011370296538314314, -0.17054702418259382, -0.017274725628389026, 0.028679051429059937, 0
576, 1239053374, 0.9999890575978175, 3.4159336700807785E-4, 0.004492737441425921, 0.0012582960235475865, -0.1729164843208174, -0.017317339540331003, 0.021699769747036912, 0
577, 1239070041, 0.9999880132242229, -3.335684816131307E-4, 0.004660474912204726, 0.001463596095999012, -0.17125467891352986, -0.016351564746347278, 0.0192484534218354, 0
578, 1239086708, 0.9999885179325685, -0.0010461228082164625, 0.004431614765271875, 0.0014934592955392484, -0.17068334955260062, -0.017651938680654015, 0.023783870608144506, 0
579, 1239103375, 0.9999910553702718, -0.001319659767316017, 0.003789977403517109, 0.001335570600684226, -0.17154904396484408, -0.021416836136543962, 0.028246030722077778, 0
580, 1239120042, 0.999993817477619, -0.001601735862080067, 0.002914449958213661, 0.0011425542471261985, -0.17077703346456424, -0.022128626571388133, 0.02742812941363286, 0
581, 1239136709, 0.9999956273692788, -0.0017378437735295488, 0.0022765699051335297, 7.364582868685175E-4, -0.16906059131615367, -0.021793424581175398, 0.022011895715602137, 0
582, 1239153376, 0.9999962565218269, -0.0017994808158631886, 0.002002461720805871, 4.888334916649667E-4, -0.16815927166460548, -0.020159254068986426, 0.017774512861901903, 0
583, 1239170043, 0.9999960302364589, -0.001806954840767927, 0.0021414741850718792, 2.975127581666959E-4, -0.1669418445894148, -0.021691472712664094, 0.01848838050837502, 0
584, 1239186710, 0.9999957638705461, -0.0019408331689667185, 0.0020947106402494646, 5.63555593341078E-4, -0.16831967409443302, -0.02203729209917798, 0.01963760512092204, 0
585, 1239203377, 0.99999591598637, -0.0020105424777674824, 0.0018652436545021356, 8.04111705584934E-4, -0.16696704319207248, -0.023849064738864306, 0.01826999723347375, 0
586, 1239220044, 0.999996161588447, -0.0022025156246706645, 0.001491463494796841, 7.754159783801562E-4, -0.16785723762457283, -0.023133484756275895, 0.015949599613421503, 0
587, 1239236711, 0.9999962803255649, -0.0022908259930933816, 0.0011673622035269229, 9.103388322515006E-4, -0.1683257889845797, -0.0221666484407885, 0.013358289647998886, 0
588, 1239253378, 0.9999968246336729, -0.0019473002786223742, 0.0012395713223725682, 0.0010110425969451359, -0.16687140566902622, -0.0238037159231954, 0.013045827933180015, 0
589, 1239270045, 0.9999973517071385, -0.001562800327567157, 0.0012904389518580417, 0.00109041329646567, -0.16379339875343737, -0.025572083232614142, 0.011660166015273865, 0
590, 1239286712, 0.9999973279712964, -0.0017806032828386748, 0.001173058680539352, 8.929924684740187E-4, -0.16228678761985246, -0.028085435752155555, 0.010304040023588534, 0
591, 1239303379, 0.999997122284053, -0.002202241991245066, 7.979129095498917E-4, 5.185449001991195E-4, -0.16206164681450105, -0.02729384156681646, 0.008135295852099739, 0
592, 1239320046, 0.9999966065416406, -0.002539322557073953, 5.185697274960322E-4, 2.642566784376438E-4, -0.16292505942178623, -0.025662508885061164, 0.006845844171169638, 0
593, 1239336713, 0.9999968909295185, -0.0024453045215940133, 3.779725489416741E-4, 3.094411827062605E-4, -0.16274210699833003, -0.02677328159545081, 0.010336070207001932, 0
594, 1239353380, 0.9999984891947885, -0.001673096698357801, 3.8239843210119423E-4, 2.759112494896826E-4, -0.1627121531224601, -0.028842577272332557, 0.011915589129200183, 0
595, 1239370047, 0.9999994714694614, -8.566069690527783E-4, 5.013830236231255E-4, 2.681424285194551E-4, -0.16279157676180273, -0.0269740374739352, 0.008137119933423323, 0
596, 1239386714, 0.9999996285841821, -6.523654786252941E-4, 5.42793879587722E-4, 1.504180324021498E-4, -0.16321416595566704, -0.024077633799599804, 0.0039000623602323953, 0
597, 1239403381, 0.9999994854612443, -9.24940868979901E-4, 4.160385693208202E-4, 2.1761079821977506E-5, -0.16303963841836322, -0.021056538240954097, 0.0013538166867534535, 0
598, 1239420048, 0.9999992821613838, -0.001122543435166462, 4.1313722050351226E-4, 6.993275678388033E-5, -0.16300291658292837, -0.021473563442930728, 0.002153920594405598, 0
599, 1239436715, 0.9999994707263393, -9.635313871448753E-4, 3.607064316005771E-4, 6.721414679042304E-6, -0.16300113861679047, -0.022356271852489097, 0.0034973127945235327, 0
600, 1239453382, 0.9999996980319047, -7.358027013978918E-4, 2.480188297220299E-4, -3.189269587235144E-5, -0.1630138494048162, -0.022366331958904334, 0.0025915370663634196, 0
601, 1239470049, 0.9999998257222795, -5.709042687963434E-4, 1.430507946600379E-4, -4.647791605305596E-5, -0.16256350104948786, -0.02064136296221735, 0.001475116367930851, 0
602, 1239486716, 0.9999999213605241, -3.9170359901329055E-4, 6.140160864087642E-5, -8.779449320150956E-6, -0.16242873577695321, -0.02008845893386278, 0.0017661059260047907, 0
603, 1239503383, 0.9999999717654243, -1.8916715573716325E-4, 7.705877657859796E-5, 1.2143674342152135E-4, -0.16310945697771068, -0.01966031171506157, 0.0011380583604486127, 0
604, 1239520050, 0.9999999753857538, 9.014253796975347E-5, 1.838375050721708E-4, 8.547857205812304E-5, -0.16246703746697988, -0.019318750122919826, -0.001177798421213072, 0
605, 1239536717, 0.9999999502795885, 9.21849916201839E-5, 2.963382921500335E-4, 5.591390067637148E-5, -0.1625673516852592, -0.018962092283119424, -0.0032937093749330765, 0
606, 1239553384, 0.9999999411091902, -1.8165536025327444E-4, 2.819605176956897E-4, -7.267195157292794E-5, -0.16349030515837143, -0.017976294717175295, -0.002654613830276334, 0
607, 1239570051, 0.9999998756172166, -4.828462507890513E-4, 9.580554311228175E-5, -8.028914754713846E-5, -0.16394826349836455, -0.017341982328758766, -0.0010120060145716314, 0
608, 1239586718, 0.999999980213016, -1.7196045181967767E-4, 9.870733410183298E-5, 1.6137927652842832E-5, -0.16338894261967635, -0.017132422415745877, -5.521030865766607E-4, 0
609, 1239603385, 0.9999999117872265, 3.1975897279644394E-4, 2.577688791325916E-4, 8.794852852236913E-5, -0.16265715617465765, -0.017170720863007166, -0.0017282322954641632, 0
610, 1239620052, 0.9999998831801402, 3.177217225760892E-4, 3.6372162829317883E-4, 1.9979746094300754E-5, -0.16170096056169414, -0.018180510996257213, -0.003476781008857052, 0
611, 1239636719, 0.9999999186463883, 7.04311070008623E-6, 3.8385795168321973E-4, -1.2373635091524063E-4, -0.1621680139857357, -0.018420252914888788, -0.004142893602439454, 0
612, 1239653386, 0.9999998888378333, -2.0140124005962878E-4, 3.730061632866711E-4, -2.0646613208241682E-4, -0.1627391358688739, -0.01722425381595306, -0.0031786995714858796, 0
613, 1239670053, 0.999999921379258, -1.472926416855036E-4, 3.495976552713165E-4, -1.1544624268909621E-4, -0.1635169504196914, -0.015598158804934176, -0.001692670027755236, 0
614, 1239686720, 0.9999999275047001, 8.443246243733382E-5, 3.698340225192776E-4, 3.293249913560725E-5, -0.1642908702848736, -0.015880838933285943, -8.633947096208516E-4, 0
615, 1239703387, 0.9999999351730783, 1.3652728328071573E-4, 3.188558105921558E-4, 9.66701195970754E-5, -0.16411749217608693, -0.015618971275263852, -7.657275207734598E-4, 0
616, 1239720054, 0.999999969474602, 1.6702388046062333E-4, 1.6986195590157352E-4, 6.557998357312189E-5, -0.16309745404991263, -0.0161299657033061, -7.836245094605676E-4, 0
617, 1239736721, 0.9999999665794964, 2.2012727074276206E-4, 7.146981344408054E-5, 1.152261102182889E-4, -0.1627847198289345, -0.015934888077485547, -0.002325425425149949, 0
618, 1239753388, 0.9999999593559692, 2.1629971451896102E-4, 1.365077960303607E-4, 1.2596870626190027E-4, -0.16308752340439675, -0.016066471826380255, -0.0028690531137419706, 0
619, 1239770055, 0.9999999223843989, 2.1393482529268038E-4, 2.527226222239221E-4, 2.1352836534670186E-4, -0.16345978933885794, -0.01574707450403628, -0.0023241007292622295, 0
620, 1239786722, 0.9999998793496389, 2.563550129617703E-4, 3.6489175126908085E-4, 2.0600200209575092E-4, -0.16344431933537779, -0.016233148646026697, -9.789835086400772E-4, 0
621, 1239803389, 0.9999999015521827, 2.482292197144159E-4, 3.111959541757803E-4, 1.960483550851461E-4, -0.16337890463366891, -0.01600685506763182, -7.761678883195233E-4, 0
622, 1239820056, 0.9999999603807342, 1.827500840924784E-4, 1.5361574411404402E-4, 1.4914134191790218E-4, -0.16386151403609944, -0.015207343242704573, -5.4313068503474E-4, 0
623, 1239836723, 0.9999999486622975, 2.550392654918493E-4, 4.2685570950218306E-5, 1.8923085756955563E-4, -0.16398548778119887, -0.015299170149748693, -0.0016299748557349475, 0
624, 1239853390, 0.999999938486413, 3.017665780060824E-4, 8.863957018895309E-5, 1.5526470619660337E-4, -0.16400599147998618, -0.01559420755290504, -0.00274441016210826, 0
625, 1239870057, 0.9999999693342456, 1.1976848273238805E-4, 1.3870199867349609E-4, 1.665796316755175E-4, -0.16498055310535517, -0.015053515593689878, -0.001526352968235542, 0
626, 1239886724, 0.9999999477906144, 1.8338770014102168E-4, 7.535260586255534E-5, 2.551660337494627E-4, -0.16410590189257612, -0.015920822046902778, 5.300766024265019E-4, 0
627, 1239903391, 0.9999998636813381, 4.297543855996122E-4, 4.616918602123877E-5, 2.9294518199238234E-4, -0.1638003923416683, -0.01639454326783722, 3.8018888192765943E-4, 0
628, 1239920058, 0.9999999026131284, 3.7005065619877264E-4, -3.289450429372343E-5, 2.3823139429976492E-4, -0.16414959543605312, -0.015615881631028897, -5.779272066632896E-4, 0
629, 1239936725, 0.9999999546992047, 1.2925533727407845E-4, -2.0163749239260342E-4, 1.8231008765146053E-4, -0.1643342240902943, -0.014746786104072367, -8.874043751844612E-4, 0
630, 1239953392, 0.9999999581156906, 1.0675323757300403E-5, -1.9377915715368402E-4, 2.147191015540728E-4, -0.16470065471447898, -0.014760489071828947, 5.5096943101212714E-5, 0
631, 1239970059, 0.9999999354924046, 1.7668478027801915E-4, -1.2085971145014975E-4, 2.884278159338561E-4, -0.16543385882095027, -0.015928877074832686, 0.003085653848274167, 0
632, 1239986726, 0.9999997679041288, 5.19424215443598E-4, -2.541352569496725E-4, 3.6028522578464284E-4, -0.16540413746952048, -0.017013069870564432, 0.004757736923867842, 0
633, 1240003393, 0.9999996243750382, 6.65897134151619E-4, -3.7292270932087757E-4, 4.1080341044667795E-4, -0.16508292459421012, -0.017581368065606246, 0.0035876272541325027, 0
634, 1240020060, 0.9999996949712595, 5.018322256830909E-4, -4.769237775565372E-4, 3.6161514851412724E-4, -0.16513877827696796, -0.01725415768506775, 0.0032837752077662236, 0
635, 1240036727, 0.9999998140874525, 1.3951736533929227E-4, -5.539328877317008E-4, 2.133502311960356E-4, -0.16557476843323748, -0.018000236374787242, 0.005395523745856584, 0
636, 1240053394, 0.999999717324448, -2.1890850960017139E-4, -7.156831494033457E-4, 7.230296087312738E-5, -0.1664200933152196, -0.01835854040998516, 0.009205531438891995, 0
637, 1240070061, 0.9999996161278705, -1.7550896188420206E-4, -8.512391714803891E-4, -1.1105218997399525E-4, -0.16786447759948042, -0.019516575351529064, 0.013969492846685791, 0
638, 1240086728, 0.9999994889039449, 2.3672493357058955E-4, -9.594583731708518E-4, -2.1352467083428361E-4, -0.17050481661555533, -0.01814897671492393, 0.016464425691517542, 0
639, 1240103395, 0.9999991576348535, 5.056841911627724E-4, -0.0011862473824837962, -1.4775056634755426E-4, -0.17189480523766276, -0.015720785428033096, 0.01959629821732388, 0
640, 1240120062, 0.9999985321028035, 5.389820189942718E-4, -0.0016250235256054515, -6.774335826320588E-5, -0.17324991654137936, -0.014881334278507623, 0.02223895998176814, 0
641, 1240136729, 0.9999977343435862, 1.8368591404670231E-4, -0.0021197078693824256, -6.637565692220461E-5, -0.1736019675135802, -0.016197844970500964, 0.024531055758257383, 0
642, 1240153396, 0.9999965858527006, -2.267501866844157E-5, -0.0026124408059766684, -5.405387349527446E-5, -0.17320951235120635, -0.016924512651136054, 0.02614474033306481, 0
643, 1240170063, 0.9999956940288421, 1.6652078925455394E-4, -0.0029249792473303175, 1.6938419030436416E-4, -0.17268438849509749, -0.018338068673800455, 0.026622214993129084, 0
644, 1240186730, 0.9999951066948668, 8.005033922673238E-4, -0.0030010125947853576, 3.737700454892884E-4, -0.17197942673746944, -0.020797553005469628, 0.027068401870371392, 0
645, 1240203397, 0.9999937446150376, 0.001380034553942533, -0.003228044694272958, 4.3123413177641184E-4, -0.17125173083033293, -0.022360138607614575, 0.027323687145629966, 0
646, 1240220064, 0.9999925220713265, 0.0014667461398267245, -0.003551217949502972, 4.396683566621623E-4, -0.17077345976113434, -0.023482429589677514, 0.02640378956552003, 0
647, 1240236731, 0.9999915975566096, 0.0012433017055155787, -0.003899047289220692, 2.3758637421272824E-4, -0.17000131008058045, -0.024738169079776995, 0.027725391044204448, 0
648, 1240253398, 0.9999902317768625, 0.0011314148785501743, -0.00427259220358911, -3.4743217822374994E-5, -0.17020351608083611, -0.024652235129595374, 0.029625479975035937, 0
649, 1240270065, 0.9999886282569155, 0.0014558544283603675, -0.004539547587881165, -1.278766331694048E-4, -0.17139429753706792, -0.024016161358063552, 0.030346935686764165, 0
650, 1240286732, 0.9999871115245071, 0.00192378665898367, -0.004696757676308228, -1.276600710502368E-4, -0.17346573764608672, -0.022915805240091774, 0.029902484217465636, 0
651, 1240303399, 0.9999853096897764, 0.002314219556014435, -0.004901336434487259, -4.115391325827667E-5, -0.17312643915517267, -0.02155981503893677, 0.029354080437169333, 0
652, 1240320066, 0.9999838631094585, 0.0025391459331045446, -0.005081941961340265, -1.1158662013871501E-5, -0.1745213284273216, -0.02141556839736909, 0.028610452935146052, 0
653, 1240336733, 0.9999827301790533, 0.0025083324988202232, -0.005314838411892453, -1.0216535472007406E-5, -0.1749651986360909, -0.019980732409787753, 0.0282724434029889, 0
654, 1240353400, 0.999980972404113, 0.0026789222034337007, -0.005555644199942867, 1.1411869289881804E-4, -0.17569096744285617, -0.019675889978726813, 0.027271535887773493, 0
655, 1240370067, 0.9999802914344353, 0.003059164856744165, -0.0054766426034149615, 2.542417654311652E-4, -0.1745824569515659, -0.019724296521582935, 0.02681001232861409, 0
656, 1240386734, 0.9999792344262525, 0.0032477085748742612, -0.005560132035952904, 2.608391100766827E-4, -0.17420481960611522, -0.020395618972711003, 0.027318924729104077, 0
657, 1240403401, 0.9999798302551529, 0.0024910778090089097, -0.005841937771523975, 7.333006702550661E-5, -0.17698646848087685, -0.02001176563962222, 0.02880995768903709, 0
658, 1240420068, 0.9999795308026422, 0.0011574077014890743, -0.006292473584789738, -5.620787080605483E-5, -0.178018870744032, -0.0195147084522291, 0.03572033690661944, 0
659, 1240436735, 0.9999767540054176, 1.534310206352807E-4, -0.006813023737474167, -2.249783610322326E-4, -0.17384553401447828, -0.021233638195783423, 0.045201159908538846, 0
660, 1240453402, 0.9999716927205142, -7.226029036939974E-5, -0.007514303621119379, -3.7917965342910975E-4, -0.17048495916990528, -0.02310381297629943, 0.05013968986286162, 0
661, 1240470069, 0.9999684063868164, 7.81212647445878E-5, -0.007925143305336113, -6.101056210763707E-4, -0.16759459880592378, -0.025939197027882287, 0.05354028628121207, 0
662, 1240486736, 0.9999662508288668, 8.116441898541882E-4, -0.0081343024230936, -8.194882907371498E-4, -0.16867783963218208, -0.02637550727918146, 0.05529620418266028, 0
663, 1240503403, 0.9999658370139433, 0.0019416445287469691, -0.007988350677425706, -8.608571207570915E-4, -0.1696396230967946, -0.02636450686064473, 0.055517763260624936, 0
664, 1240520070, 0.9999661802525002, 0.0028781614764561564, -0.007660084126805245, -8.231943330591351E-4, -0.17087770953107154, -0.026307672755103133, 0.05506072955693738, 0
665, 1240536737, 0.9999653292332967, 0.00315875080955233, -0.00764134697487695, -9.86124270620212E-4, -0.17047151238370772, -0.024551130747376353, 0.05857195049932125, 0
666, 1240553404, 0.9999604871582406, 0.0031603623290465954, -0.00824729901875776, -0.0010091041068544526, -0.1722413702002688, -0.024334363623554248, 0.06117714226158552, 0
667, 1240570071, 0.9999562844604251, 0.003359676489567656, -0.008661219292607937, -0.0010606707086714547, -0.171747391120407, -0.023819606423024386, 0.060758087519352924, 0
668, 1240586738, 0.999954691935597, 0.003628338070285439, -0.00873380647792066, -0.0010816021630925543, -0.17115521632827818, -0.02367739055760882, 0.06002308860871831, 0
669, 1240603405, 0.9999541423840405, 0.003710933755500939, -0.00874036193293648, -0.0012442559792275878, -0.16987668241260362, -0.022299252017735798, 0.0606805727384328, 0
670, 1240620072, 0.9999532654657888, 0.0037915134245998378, -0.008805480601285833, -0.001246924872318228, -0.16970155659208824, -0.019546270076389524, 0.0628545755338919, 0
671, 1240636739, 0.9999512087552643, 0.004078524654260424, -0.00891464753980037, -0.0012144154031603629, -0.1695155308804469, -0.018182353046666027, 0.06459917064089167, 0
672, 1240653406, 0.9999489911746631, 0.00423355413993573, -0.009108980187742978, -0.0010576143234281993, -0.16997829427641278, -0.017738817406726757, 0.0671321936916296, 0
673, 1240670073, 0.999946188978956, 0.004224567172979213, -0.009432849656398012, -8.908007761161408E-4, -0.1704640887696608, -0.016262083093967004, 0.07038039890739718, 0
674, 1240686740, 0.9999447148157563, 0.004372710656894208, -0.009535727156740394, -7.187636182531959E-4, -0.16956682949833357, -0.01580448033482356, 0.07078799514057513, 0
675, 1240703407, 0.999945501883445, 0.004733889424763493, -0.009291356659082374, -5.042275408657927E-4, -0.16676401472335783, -0.013390167903502333, 0.06902873841924187, 0
676, 1240720074, 0.9999480346665286, 0.004682176857586776, -0.009051066779498353, -2.88750020414022E-4, -0.16594967031049698, -0.01145691219522446, 0.06979876147633562, 0
677, 1240736741, 0.9999491569863216, 0.004484200962829074, -0.009031563173421353, -7.906145889879924E-5, -0.16495998944686352, -0.009680958436481158, 0.07374787531647842, 0
678, 1240753408, 0.9999474861626226, 0.004772307751094447, -0.00906639364482681, 2.2472662830128054E-4, -0.16331468222050827, -0.009128772168619941, 0.07759133170199962, 0
679, 1240770075, 0.9999444653296449, 0.004921696232858458, -0.00930781681727977, 4.557509167617616E-4, -0.16104508028520992, -0.0077785480136411626, 0.0779543718215698, 0
680, 1240786742, 0.9999452238499562, 0.00441117490051076, -0.009472837891521925, 5.968064501629608E-4, -0.15860351844885912, -0.005165835435535697, 0.07690901075401835, 0
681, 1240803409, 0.9999463186186167, 0.0038360978483453143, -0.009595618914911341, 7.5387798317976E-4, -0.15664386622059318, -0.004917094363188912, 0.07896603567424423, 0
682, 1240820076, 0.9999469768032311, 0.0036609980992076546, -0.009573817917203855, 9.91304940122402E-4, -0.1545333754038984, -0.004008527594166037, 0.08069285717983293, 0
683, 1240836743, 0.9999470348232807, 0.003831096380205852, -0.009461019871698841, 0.0013188448132357008, -0.15220190977689108, -0.004306031648708667, 0.08395174004671846, 0
684, 1240853410, 0.999946824311904, 0.004148567227992561, -0.009303275804928625, 0.0016084146823577075, -0.15047049743711668, -0.005486733500078661, 0.08450322203903987, 0
685, 1240870077, 0.9999469799000189, 0.00421088923562039, -0.009237522109693308, 0.0017245248474240529, -0.14716828760928502, -0.004645154196417414, 0.08432118445129776, 0
686, 1240886744, 0.9999478713190257, 0.004204817966678508, -0.009114681952130778, 0.0018699527608273536, -0.14276589689673866, -0.003835383148771453, 0.08465677898544557, 0
687, 1240903411, 0.999950997478893, 0.0041372608648461776, -0.0087772612148051, 0.0019609689110378363, -0.13800459543257063, -0.0026675245425053346, 0.08470584073571616, 0
688, 1240920078, 0.999954185176017, 0.003934398428864578, -0.008501340909521428, 0.0019685681880309697, -0.1344680025538177, -0.0017626227125553287, 0.08656135775575594, 0
689, 1240936745, 0.9999566247895046, 0.003645238378514923, -0.00835961963715437, 0.0018914376192535611, -0.13325298626197624, -0.001419482630610311, 0.08780296051614846, 0
690, 1240953412, 0.9999587171008857, 0.00330989050615825, -0.008242028400002656, 0.0019177295538195388, -0.13155547724648486, -6.632093184552239E-4, 0.09084370353145158, 0
691, 1240970079, 0.9999591100339578, 0.0033603131740509787, -0.008162887033745072, 0.001963117607709203, -0.12812380295613435, 0.0013816041075978627, 0.09392945533582586, 0
692, 1240986746, 0.9999613882190796, 0.003374111971691199, -0.00786174366976883, 0.0020075920512966916, -0.12487603947651882, 0.0019355323286818988, 0.09487559504573849, 0
693, 1241003413, 0.9999640253871346, 0.003077638760393353, -0.007656709609818013, 0.001962363159503142, -0.12269388549522726, 0.0031862429068441472, 0.09740394559022084, 0
694, 1241020080, 0.9999658114935672, 0.0029024047311893703, -0.007442123184894956, 0.0021369822855552695, -0.12066428092352716, 0.003312964844087993, 0.10034818897118257, 0
695, 1241036747, 0.9999671572005498, 0.0030146779515820878, -0.0072337681289026965, 0.0020661161042621755, -0.11683447791118581, 0.003725205703228448, 0.1034557201513801, 0
