DeviceTag:,Xsens DOT 1,,,,,,,,,,,,,,,,,
FirmwareVersion:,1.3.0,,,,,,,,,,,,,,,,,
AppVersion:,2020.1.1,,,,,,,,,,,,,,,,,
Measurement Mode:,Sensor fusion Mode - Extended (Quaternion),,,,,,,,,,,,,,,,,
StartTime:,2020-08-03 15:37:19.059 +0200,,,,,,,,,,,,,,,,,
© Xsens Technologies B. V. 2005-2020,,,,,,,,,,,,,,,,,,,
PacketCounter,SampleTimeFine,Quat_W,Quat_X,Quat_Y,Quat_Z,FreeAcc_X,FreeAcc_Y,FreeAcc_Z,Status
1, 175828531, 0.04576834, 0.55991703, -0.21653938, 0.79844147, 0.07286326, -0.14420472, 0.14019203, 0
2, 175845198, 0.04566256, 0.55898803, -0.21559606, 0.7993535, -0.0683757, -0.18655694, 0.10797691, 0
3, 175861865, 0.046479788, 0.5586349, -0.21437736, 0.79988074, -0.10190075, -0.0718084, 0.0939455, 0
4, 175878532, 0.047173906, 0.5585485, -0.21376596, 0.8000642, -0.047306504, 0.043042533, 0.13558197, 0
5, 175895199, 0.04742358, 0.5584055, -0.21371397, 0.800163, 0.078302056, 0.11406669, 0.174819, 0
6, 175911866, 0.047191173, 0.5580088, -0.21388562, 0.80040765, 0.13611348, 0.058998898, 0.14561558, 0
7, 175928533, 0.046698064, 0.55744046, -0.21400666, 0.8008, 0.10035845, 0.03597254, 0.097164154, 0
8, 175945200, 0.046004117, 0.5569203, -0.21400708, 0.8012021, 0.12263143, 0.037561186, 0.03955555, 0
9, 175961867, 0.045131046, 0.5563946, -0.21395753, 0.80162996, -0.002806743, 0.011373568, 0.064888954, 0
10, 175978534, 0.04433563, 0.55578715, -0.21397889, 0.80208987, -0.028460778, -0.01072119, 0.11883068, 0
11, 175995201, 0.04366919, 0.55514723, -0.21401638, 0.80255944, -0.030574191, -0.07228613, 0.08412933, 0
12, 176011868, 0.043142214, 0.55455035, -0.21407574, 0.80298465, -0.045084115, -0.0921564, 0.07679081, 0
13, 176028535, 0.04273073, 0.5540021, -0.21409075, 0.8033809, -0.04586654, -0.07281859, 0.06447315, 0
14, 176045202, 0.042313542, 0.5536263, -0.21396348, 0.803696, 0.028145177, -0.08784537, -0.011096001, 0
15, 176061869, 0.041857947, 0.5533643, -0.2137636, 0.80395347, 0.011798292, -0.08768451, -0.034374237, 0
16, 176078536, 0.04144011, 0.55309135, -0.21360002, 0.8042064, 0.022471126, -0.06686379, -0.024442673, 0
17, 176095203, 0.040939283, 0.55280894, -0.21337765, 0.80448526, -0.0012142481, -0.099649966, -0.006549835, 0
18, 176111870, 0.04035852, 0.552626, -0.213045, 0.8047283, 0.00913969, -0.14693649, -0.002029419, 0
19, 176128537, 0.039831307, 0.5525114, -0.21272306, 0.80491847, -0.04393972, -0.22401157, 7.7342987E-4, 0
20, 176145204, 0.0395343, 0.5522706, -0.21258809, 0.8051338, -0.10053257, -0.22179957, 0.016371727, 0
21, 176161871, 0.03938542, 0.5520495, -0.21251623, 0.8053117, -0.03927867, -0.121467054, -0.037890434, 0
22, 176178538, 0.039265364, 0.55201507, -0.2124844, 0.8053496, 0.04382334, -0.061737534, -0.055688858, 0
23, 176195205, 0.039060693, 0.5520781, -0.21246286, 0.8053221, 0.06472042, -0.08201683, -0.049067497, 0
24, 176211872, 0.038822986, 0.5519979, -0.21249148, 0.80538094, 0.034534343, -0.12534404, 0.0039110184, 0
25, 176228539, 0.0386224, 0.5518834, -0.2125505, 0.8054534, 0.070880055, -0.12393564, 0.006562233, 0
26, 176245206, 0.03832816, 0.5518493, -0.21254265, 0.80549294, 0.02759623, -0.053899072, 0.030937195, 0
27, 176261873, 0.037949942, 0.55184793, -0.21244393, 0.80553776, -0.034718875, -0.033016622, 0.066495895, 0
28, 176278540, 0.037515465, 0.5518674, -0.2123117, 0.80557996, -0.0170829, -0.015157433, 0.05876541, 0
29, 176295207, 0.037034795, 0.55197835, -0.21216185, 0.80556554, 0.03459129, -0.067926705, 0.015166283, 0
30, 176311874, 0.03659813, 0.55210435, -0.2121104, 0.80551267, -0.06895828, -0.14270088, 0.10402298, 0
31, 176328541, 0.03638391, 0.55212337, -0.21221927, 0.8054807, -0.13071811, -0.11723815, 0.13321877, 0
32, 176345208, 0.03627138, 0.55211186, -0.21234216, 0.8054612, -0.081866674, 0.012364639, 0.08622646, 0
33, 176361875, 0.03611992, 0.55212015, -0.21243046, 0.8054391, -0.018323956, 0.026444154, 0.055321693, 0
34, 176378542, 0.035879903, 0.5522039, -0.21256183, 0.80535764, 0.013865892, 0.005985467, 0.09076309, 0
35, 176395209, 0.035655946, 0.5523252, -0.21266878, 0.8052562, 0.0022861185, -0.021245815, 0.18139458, 0
36, 176411876, 0.035429936, 0.55238265, -0.21265031, 0.80523163, -0.06324199, -0.0072245114, 0.17336369, 0
37, 176428543, 0.035194222, 0.5524743, -0.2126023, 0.80519176, -0.06274828, 0.013527786, 0.11379719, 0
38, 176445210, 0.034911808, 0.55265707, -0.21254069, 0.80509484, -0.051643737, 0.022365056, 0.12330818, 0
39, 176461877, 0.034690402, 0.5527554, -0.21256755, 0.80502987, -0.019871559, 0.01833168, 0.18947029, 0
40, 176478544, 0.03451512, 0.5527897, -0.21254592, 0.8050196, -0.036665723, -0.006320276, 0.22065067, 0
41, 176495211, 0.034389667, 0.55280465, -0.21246088, 0.80503714, -0.047521543, 0.0066320626, 0.15819073, 0
42, 176511878, 0.03422777, 0.5528978, -0.21232243, 0.8050166, -0.01843294, 0.051579975, 0.11199856, 0
43, 176528545, 0.0340062, 0.5530395, -0.212185, 0.804965, 0.01320196, 0.063728824, 0.06764889, 0
44, 176545212, 0.033712775, 0.5531717, -0.21204515, 0.80492306, 0.003041271, 0.07897791, 0.06857681, 0
45, 176561879, 0.0333545, 0.553278, -0.21188585, 0.80490714, -0.02947047, 0.059999816, 0.085977554, 0
46, 176578546, 0.03301521, 0.5533059, -0.21172842, 0.8049432, -0.056151904, 0.051649667, 0.12094498, 0
47, 176595213, 0.03282671, 0.55331945, -0.21166514, 0.80495846, -0.015761562, 0.033522684, 0.08771896, 0
48, 176611880, 0.032602657, 0.5534276, -0.21163076, 0.8049021, -0.022545634, 0.010302173, 0.073797226, 0
49, 176628547, 0.032406982, 0.55348974, -0.21171097, 0.8048462, -0.05319084, 0.027320227, 0.13914204, 0
50, 176645214, 0.032198362, 0.553515, -0.21178375, 0.8048181, -0.05435924, 0.06626346, 0.14019108, 0
51, 176661881, 0.032013506, 0.5535236, -0.21177147, 0.80482286, -0.018535389, 0.12196842, 0.124783516, 0
52, 176678548, 0.03179134, 0.5535861, -0.2117251, 0.80480087, 0.019798176, 0.10881691, 0.09504986, 0
53, 176695215, 0.031476762, 0.55368143, -0.21166919, 0.8047622, 0.010131472, 0.10377745, 0.10078144, 0
54, 176711882, 0.03103871, 0.5538318, -0.21153486, 0.80471104, -0.0071646343, 0.10497612, 0.074739456, 0
55, 176728549, 0.030513097, 0.55394685, -0.21130651, 0.80471206, -0.11096555, 0.109747, 0.09547424, 0
56, 176745216, 0.030106863, 0.5539985, -0.2111326, 0.8047375, -0.108210444, 0.10713816, 0.07684517, 0
57, 176761883, 0.029861718, 0.55404866, -0.2111064, 0.8047189, -0.10493668, 0.021575622, 0.09570789, 0
58, 176778550, 0.02982464, 0.55404055, -0.2112285, 0.80469394, -0.15573424, -0.061346315, 0.09282398, 0
59, 176795217, 0.029915836, 0.55401933, -0.21142033, 0.8046547, -0.11921442, 0.05667301, 0.07275486, 0
60, 176811884, 0.029990017, 0.55399734, -0.21145843, 0.8046571, -0.062296275, 0.18094122, 0.13619328, 0
61, 176828551, 0.030042276, 0.55399126, -0.21136901, 0.80468285, 0.01356535, 0.15466619, 0.18420696, 0
62, 176845218, 0.029950518, 0.5540536, -0.21118365, 0.8046921, 0.018004626, 0.0918953, 0.16170788, 0
63, 176861885, 0.029761719, 0.5541426, -0.21090274, 0.8047112, -0.015535478, 0.08849046, 0.101202965, 0
64, 176878552, 0.029519482, 0.55421937, -0.21050262, 0.80477214, -0.0841129, 0.13609362, 0.12238884, 0
65, 176895219, 0.029295053, 0.55424565, -0.21002015, 0.8048884, -0.113097735, 0.19051905, 0.18298817, 0
66, 176911886, 0.029128974, 0.5543073, -0.20949598, 0.80498856, -0.054003425, 0.1616203, 0.20954514, 0
67, 176928553, 0.028984072, 0.55438966, -0.20898312, 0.8050702, -0.06448214, 0.07396802, 0.1676569, 0
68, 176945220, 0.028824875, 0.5544106, -0.20854999, 0.8051739, -0.11151765, 0.0035338376, 0.13529682, 0
69, 176961887, 0.028730154, 0.55429125, -0.20823814, 0.80534005, -0.16809475, 0.09141641, 0.15715313, 0
70, 176978554, 0.02872359, 0.5541491, -0.20803563, 0.80549043, -0.0894549, 0.1599889, 0.18102074, 0
71, 176995221, 0.02873559, 0.55412334, -0.20788519, 0.8055466, -0.0057063173, 0.12971984, 0.17794228, 0
72, 177011888, 0.02867884, 0.5541876, -0.20779459, 0.80552787, 0.014924194, 0.008147801, 0.07777786, 0
73, 177028555, 0.028453033, 0.5542153, -0.20775826, 0.80552614, -0.017271677, -0.085711084, 0.026088715, 0
74, 177045222, 0.028254338, 0.5540668, -0.20784219, 0.8056137, -0.091299586, -0.011165185, 0.10192776, 0
75, 177061889, 0.028211502, 0.55382186, -0.20791298, 0.8057654, -0.056637336, 0.0213481, 0.14517307, 0
76, 177078556, 0.028161202, 0.5536256, -0.2078757, 0.80591154, -0.01308698, 0.08544245, 0.11221218, 0
77, 177095223, 0.028051214, 0.55349743, -0.20777813, 0.8060286, 0.030016303, 0.1476233, 0.11890125, 0
78, 177111890, 0.027798533, 0.5534059, -0.20752528, 0.80616534, 0.06501739, 0.15982777, 0.19604683, 0
79, 177128557, 0.027552178, 0.5533613, -0.20713988, 0.80630344, 0.059617784, 0.09664869, 0.16941452, 0
80, 177145224, 0.027284576, 0.55337685, -0.2066814, 0.80641943, -0.030246919, 0.01448695, 0.04082203, 0
81, 177161891, 0.027101744, 0.55325013, -0.20641427, 0.80658096, -0.14861342, -0.09050904, 0.045833588, 0
82, 177178558, 0.027172009, 0.552899, -0.20640744, 0.8068213, -0.18181352, -0.036794282, 0.054898262, 0
83, 177195225, 0.027407043, 0.5525183, -0.20655808, 0.8070356, -0.06995972, 0.04712691, 0.017604828, 0
84, 177211892, 0.02762299, 0.55230516, -0.20675047, 0.80712473, 0.07363099, 0.038372803, -0.038100243, 0
85, 177228559, 0.027708327, 0.55228454, -0.206993, 0.8070738, 0.09394322, -0.01633853, -0.037873268, 0
86, 177245226, 0.027754752, 0.55220747, -0.20724958, 0.807059, 0.010393087, -0.12797213, 0.041204453, 0
87, 177261893, 0.02783149, 0.551938, -0.20741875, 0.8071973, -0.062459577, -0.10687786, 0.0900898, 0
88, 177278560, 0.027902538, 0.5517371, -0.20753285, 0.8073029, 0.029419683, 0.045852844, -0.009774208, 0
89, 177295227, 0.0278946, 0.5517387, -0.20761964, 0.8072797, 0.09417579, 0.061794166, -0.014391899, 0
90, 177311894, 0.027789103, 0.55180645, -0.20763275, 0.8072336, -8.573398E-4, -0.04199279, 0.039952278, 0
91, 177328561, 0.027656615, 0.5518566, -0.20752637, 0.80723125, -0.0566548, -0.06635154, 0.10980034, 0
92, 177345228, 0.027649404, 0.5519631, -0.20735604, 0.80720246, -0.061022304, -0.03295278, 0.12834549, 0
93, 177361895, 0.02775842, 0.55219036, -0.20722638, 0.80707645, -0.05718351, -0.13640273, 0.09734917, 0
94, 177378562, 0.027985211, 0.5523883, -0.20720088, 0.8069397, -0.12442788, -0.17980756, 0.07624245, 0
95, 177395229, 0.02836939, 0.55242056, -0.20727226, 0.80688584, -0.14005004, -0.13767819, 0.10390282, 0
96, 177411896, 0.028897412, 0.5524029, -0.20737934, 0.80685186, -0.026966572, -0.015715322, 0.096541405, 0
97, 177428563, 0.029329084, 0.55252904, -0.20735358, 0.80675656, 0.05402544, -0.031396292, 0.0921278, 0
98, 177445230, 0.029729992, 0.5527186, -0.20729771, 0.8066263, 0.0138204275, -0.09204646, 0.11696625, 0
99, 177461897, 0.030576454, 0.55276334, -0.20750324, 0.8065113, -0.05498004, -0.06896802, 0.14508724, 0
100, 177478564, 0.031175392, 0.5527854, -0.20744438, 0.80648834, -0.061309554, -0.023082085, 0.16572475, 0
101, 177495231, 0.03216464, 0.5527586, -0.20764078, 0.80641717, -0.013059666, -7.8267255E-4, 0.12164593, 0
102, 177511898, 0.032228686, 0.5530107, -0.2071999, 0.8063553, -0.036924683, -0.0012864707, 0.118766785, 0
103, 177528565, 0.032805614, 0.5531045, -0.20717365, 0.80627424, -0.016001726, -0.038418636, 0.060626984, 0
104, 177545232, 0.03334555, 0.55316377, -0.20723036, 0.80619687, -0.018904664, -0.0605921, 0.060725212, 0
105, 177561899, 0.03389024, 0.5531969, -0.20737489, 0.80611444, -0.03757514, 0.0073480024, 0.1230278, 0
106, 177578566, 0.034376975, 0.55325484, -0.20746706, 0.80603045, 0.0015173247, 0.103667684, 0.1476469, 0
107, 177595233, 0.035716802, 0.5531156, -0.20809062, 0.80590683, 0.05262579, 0.13272575, 0.089728355, 0
108, 177611900, 0.036635913, 0.5530124, -0.20853129, 0.80582255, 0.042815283, 0.026254125, 0.096876144, 0
109, 177628567, 0.03717574, 0.55293894, -0.20871884, 0.8057996, 0.043497305, 0.004809468, 0.059988976, 0
110, 177645234, 0.03763244, 0.55296814, -0.20885135, 0.8057241, -0.023227705, 0.0911497, 0.104081154, 0
111, 177661901, 0.0381674, 0.55291504, -0.20903827, 0.80568695, -0.031346478, 0.13759206, 0.19785786, 0
112, 177678568, 0.03903365, 0.5527512, -0.20936741, 0.80567235, -0.010112949, 0.09545304, 0.21061611, 0
113, 177695235, 0.03856867, 0.5529478, -0.20871969, 0.80572784, 0.015922252, 0.087646976, 0.16832352, 0
114, 177711902, 0.038582657, 0.5530896, -0.20850958, 0.8056843, 0.027450066, 0.07263762, 0.17203045, 0
115, 177728569, 0.038643423, 0.55323446, -0.2084034, 0.8056095, -0.0117995, 0.03924238, 0.17972183, 0
116, 177745236, 0.038966157, 0.553283, -0.20845228, 0.80554783, -0.014060606, 0.013807401, 0.16137886, 0
117, 177761903, 0.038734667, 0.5534097, -0.20809366, 0.80556476, -0.0017073316, -0.006348257, 0.100346565, 0
118, 177778570, 0.039154407, 0.5533244, -0.20822693, 0.8055685, -0.007770477, 0.0044681495, 0.058286667, 0
119, 177795237, 0.038747843, 0.5533892, -0.20790014, 0.80562806, -0.0402375, 0.057324786, 0.14981747, 0
120, 177811904, 0.039092343, 0.55327606, -0.20806983, 0.8056454, 0.007840352, 0.055570364, 0.15546131, 0
121, 177828571, 0.038791075, 0.5534151, -0.20778668, 0.80563754, -0.039675854, 0.0010361501, 0.15510559, 0
122, 177845238, 0.039251756, 0.5533492, -0.2080222, 0.80559963, -0.05654759, -0.017015819, 0.073620796, 0
123, 177861905, 0.039181508, 0.55345064, -0.20798631, 0.8055426, -0.059894145, -0.018184973, 0.081653595, 0
124, 177878572, 0.039703213, 0.5533546, -0.20841521, 0.8054723, -0.049889833, -0.03291333, 0.15477085, 0
125, 177895239, 0.03997489, 0.5533045, -0.2086846, 0.80542344, -0.03863059, -0.060583454, 0.1694107, 0
126, 177911906, 0.039210387, 0.5534702, -0.20821579, 0.8054686, -0.03652888, -0.1373592, 0.15535831, 0
127, 177928573, 0.03962324, 0.55331874, -0.20846954, 0.80548686, -0.11297885, -0.2817942, 0.15812111, 0
128, 177945240, 0.040145747, 0.5531117, -0.20848939, 0.8055981, -0.26076117, -0.28723654, 0.17705345, 0
129, 177961907, 0.041128334, 0.5528361, -0.2087214, 0.8056773, -0.22998257, -0.102820754, 0.14750195, 0
130, 177978574, 0.04188088, 0.55272704, -0.20877895, 0.80569863, -0.0033399542, 0.0742859, 0.13506699, 0
131, 177995241, 0.042342033, 0.5529002, -0.20857158, 0.80560946, 0.1685507, 0.10255978, 0.05099964, 0
132, 178011908, 0.041863486, 0.5534439, -0.20767981, 0.8054915, 0.15942326, 0.03573793, 0.074092865, 0
133, 178028575, 0.04148537, 0.5539399, -0.20665509, 0.8054337, 0.08674884, -0.1353106, 0.111335754, 0
134, 178045242, 0.040938534, 0.5545768, -0.20511577, 0.80541694, -0.1709403, -0.346201, 0.122592926, 0
135, 178061909, 0.041265447, 0.55494297, -0.20384689, 0.80547, -0.38117766, -0.45598146, 0.12369156, 0
136, 178078576, 0.04200766, 0.55527765, -0.20274097, 0.80548006, -0.34992737, -0.396925, 0.05533123, 0
137, 178095243, 0.04387539, 0.5554785, -0.20228477, 0.80535674, -0.2526085, -0.29345492, 0.13513088, 0
138, 178111910, 0.045278188, 0.5559412, -0.20123783, 0.8052222, -0.079895824, -0.28253087, 0.2736187, 0
139, 178128577, 0.046996996, 0.5563111, -0.19997536, 0.80518293, 0.0045836917, -0.28791794, 0.36091328, 0
140, 178145244, 0.048756015, 0.5566915, -0.19813092, 0.8052711, 0.10558386, -0.2728997, 0.33823395, 0
141, 178161911, 0.050297294, 0.5573503, -0.19560327, 0.80533874, 0.15990634, -0.24261448, 0.33152294, 0
142, 178178578, 0.05175256, 0.5581629, -0.1924436, 0.80544496, 0.16354041, -0.20772962, 0.417634, 0
143, 178195245, 0.05325293, 0.5591129, -0.1887651, 0.8055585, 0.26154146, -0.30738473, 0.3715849, 0
144, 178211912, 0.054487664, 0.5601134, -0.18440531, 0.8057908, 0.18890668, -0.26187912, 0.3336668, 0
145, 178228579, 0.055408556, 0.56091785, -0.17923379, 0.8063352, 0.19312346, -0.04053952, 0.32798672, 0
146, 178245246, 0.05579408, 0.5617363, -0.17301758, 0.8070962, 0.30946437, 0.115434885, 0.32094288, 0
147, 178261913, 0.055570558, 0.5627183, -0.16571665, 0.8079594, 0.34724566, 0.29059938, 0.30049133, 0
148, 178278580, 0.054886397, 0.5638744, -0.15732656, 0.80887675, 0.4549062, 0.39725584, 0.2344408, 0
149, 178295247, 0.05345853, 0.56527305, -0.1478532, 0.809783, 0.44429544, 0.3819118, 0.17413521, 0
150, 178311914, 0.051250096, 0.5666991, -0.13749206, 0.81075376, 0.29309803, 0.38949427, 0.18842983, 0
151, 178328581, 0.048315708, 0.5680843, -0.12642062, 0.8117659, 0.12928383, 0.41116464, 0.12945366, 0
152, 178345248, 0.044708516, 0.569469, -0.11490179, 0.8127138, -0.02511201, 0.45317203, 0.09126949, 0
153, 178361915, 0.040676326, 0.5707209, -0.10329027, 0.8136058, -0.20783295, 0.6042189, 0.07600975, 0
154, 178378582, 0.03623127, 0.57183295, -0.09158043, 0.8144371, -0.23525442, 0.7504342, -0.022799492, 0
155, 178395249, 0.03117808, 0.5731349, -0.07970812, 0.8149791, -0.33640173, 0.8722985, -0.05540657, 0
156, 178411916, 0.025666367, 0.574636, -0.06786225, 0.815187, -0.4631389, 0.8466295, -0.08213997, 0
157, 178428583, 0.01970002, 0.576468, -0.056072257, 0.8149556, -0.53882384, 0.7825771, -0.17364502, 0
158, 178445250, 0.013206996, 0.57872826, -0.044505365, 0.8141981, -0.7199934, 0.6356018, -0.20056343, 0
159, 178461917, 0.006273596, 0.5812267, -0.033355474, 0.8130337, -0.9064477, 0.48970425, -0.27243805, 0
160, 178478584, -0.0011108024, 0.5841366, -0.02277492, 0.8113349, -1.0398537, 0.3553186, -0.34477806, 0
161, 178495251, -0.0088253105, 0.5875422, -0.013016632, 0.8090408, -1.1893737, 0.29945773, -0.3598776, 0
162, 178511918, -0.016641393, 0.5916474, -0.0043629846, 0.8060135, -1.2632031, 0.28969833, -0.43182945, 0
163, 178528585, -0.024712866, 0.5966266, 0.0033668685, 0.8021315, -1.42451, 0.3849695, -0.47641087, 0
164, 178545252, -0.033018883, 0.6023194, 0.010446573, 0.7975038, -1.5787545, 0.5041128, -0.4633751, 0
165, 178561919, -0.04141942, 0.6087373, 0.017185561, 0.7921036, -1.551982, 0.57359093, -0.4700098, 0
166, 178578586, -0.04975642, 0.615875, 0.023692338, 0.78591424, -1.3831172, 0.3268423, -0.32962704, 0
167, 178595253, -0.057631824, 0.6231201, 0.029930675, 0.7794257, -1.2296057, -0.080191866, -0.16370678, 0
168, 178611920, -0.06470192, 0.6303504, 0.0355379, 0.7727931, -0.9958736, -0.16593845, -0.08154678, 0
169, 178628587, -0.07148795, 0.6375648, 0.04063492, 0.765996, -0.8149534, 0.026830243, 0.029060364, 0
170, 178645254, -0.07864478, 0.6445739, 0.04547676, 0.75912535, -0.7347481, 0.23904325, 0.15420818, 0
171, 178661921, -0.08647785, 0.6512727, 0.050157797, 0.75222987, -0.7677394, 0.46397588, 0.24805546, 0
172, 178678588, -0.09504783, 0.6577407, 0.054758653, 0.74521446, -0.76799923, 0.8010662, 0.24863243, 0
173, 178695255, -0.10440918, 0.6640634, 0.059381615, 0.7379649, -0.7165626, 0.95466125, 0.2597456, 0
174, 178711922, -0.114840895, 0.6699948, 0.06435295, 0.7306008, -0.71874905, 1.0180554, 0.34999084, 0
175, 178728589, -0.12649177, 0.67533433, 0.06989588, 0.7232138, -0.77083737, 1.107947, 0.4202156, 0
176, 178745256, -0.13921995, 0.6799437, 0.07613312, 0.7158898, -0.777189, 1.2150007, 0.41157722, 0
177, 178761923, -0.15297475, 0.6839561, 0.08345174, 0.7084057, -0.7557497, 1.1406634, 0.36989594, 0
178, 178778590, -0.16763206, 0.6873311, 0.09157941, 0.70077723, -0.8367139, 0.7665357, 0.74578, 0
179, 178795257, -0.18268783, 0.68957883, 0.10010936, 0.6936025, -0.8903737, 0.3832731, 1.0251284, 0
180, 178811924, -0.19752404, 0.69105184, 0.108682975, 0.6867458, -0.8731416, 0.15112293, 1.0159922, 0
181, 178828591, -0.21201861, 0.69165087, 0.117395155, 0.6803569, -0.8922167, -0.13130213, 1.0415068, 0
182, 178845258, -0.22626919, 0.6910005, 0.12646724, 0.674779, -0.80033416, -0.52003396, 1.1978378, 0
183, 178861925, -0.2397186, 0.6888282, 0.13536312, 0.6706174, -0.8445273, -0.96558523, 1.5442104, 0
184, 178878592, -0.2522907, 0.6852172, 0.14408372, 0.66788244, -0.9688918, -1.1490933, 1.5972719, 0
185, 178895259, -0.26450008, 0.6807146, 0.15315205, 0.6657416, -1.2616546, -1.052527, 1.4428663, 0
186, 178911926, -0.27654028, 0.6753586, 0.16249216, 0.6640881, -1.4756564, -0.8746444, 1.3037205, 0
187, 178928593, -0.2878808, 0.6692725, 0.17124556, 0.6632302, -1.2716457, -0.8791069, 0.9753094, 0
188, 178945260, -0.2982801, 0.66294205, 0.17895584, 0.6629568, -0.96026486, -1.2009983, 0.4995489, 0
189, 178961927, -0.30840868, 0.65619886, 0.18602873, 0.6630841, -1.050241, -1.4133283, 0.40913773, 0
190, 178978594, -0.318744, 0.64850366, 0.19275714, 0.6638448, -1.4434234, -1.4356844, 0.4454794, 0
191, 178995261, -0.32910457, 0.64007086, 0.1991173, 0.6650954, -1.7209877, -1.4727957, 0.37712193, 0
192, 179011928, -0.33933994, 0.63118273, 0.20466085, 0.6667615, -1.7523512, -1.5020787, 0.3838749, 0
193, 179028595, -0.3497952, 0.621845, 0.20947582, 0.6686346, -1.9084457, -1.5840563, 0.37269592, 0
194, 179045262, -0.36051762, 0.61208975, 0.21374382, 0.67058724, -2.0345285, -1.6267333, 0.19953442, 0
195, 179061929, -0.3714407, 0.6024298, 0.21783759, 0.6720543, -2.2513592, -1.6516213, -0.13433647, 0
196, 179078596, -0.3824516, 0.59330857, 0.22181237, 0.6726926, -2.4342988, -1.7472662, -0.12244034, 0
197, 179095263, -0.3936624, 0.584392, 0.22537428, 0.67284673, -2.6653607, -1.974122, 0.25838852, 0
198, 179111930, -0.4049131, 0.5752442, 0.2282548, 0.6730822, -2.6891208, -1.9501154, 0.35984325, 0
199, 179128597, -0.41579148, 0.56612444, 0.23066373, 0.67336106, -2.335483, -1.6474268, -0.031573296, 0
200, 179145264, -0.42603832, 0.5574816, 0.2327531, 0.67344767, -1.8527608, -1.3001865, -0.49676228, 0
201, 179161931, -0.43578005, 0.5494928, 0.23447621, 0.67318237, -1.5752735, -1.1139187, -0.60078907, 0
202, 179178598, -0.44523323, 0.5420472, 0.23630159, 0.6723942, -1.5276796, -0.78236485, -0.5978842, 0
203, 179195265, -0.45464188, 0.5348573, 0.23893005, 0.67092556, -1.551771, -0.42956352, -0.6464195, 0
204, 179211932, -0.46435672, 0.52742815, 0.24271615, 0.6687908, -1.4359674, -0.11566147, -0.99534607, 0
205, 179228599, -0.47465238, 0.519763, 0.24770069, 0.66572976, -1.1769341, 0.1784143, -1.4074411, 0
206, 179245266, -0.4857788, 0.51200044, 0.25374532, 0.6614288, -0.9744651, 0.31795076, -1.4653788, 0
207, 179261933, -0.49748224, 0.5044119, 0.26048553, 0.6559173, -0.64922434, 0.47968966, -1.1868267, 0
208, 179278600, -0.5092014, 0.49746895, 0.2676051, 0.6493276, -0.25321224, 0.67267746, -0.89491653, 0
209, 179295267, -0.5208218, 0.49185422, 0.2753176, 0.6411119, 0.2517395, 0.9134172, -0.8352308, 0
210, 179311934, -0.5324298, 0.48809233, 0.28363544, 0.6307421, 0.45220974, 0.7299691, -0.3860941, 0
211, 179328601, -0.54449606, 0.48449904, 0.29188442, 0.61934507, -0.19918044, 0.10120421, 0.32806396, 0
212, 179345268, -0.55708987, 0.48009568, 0.3002997, 0.60743666, -0.86126506, -0.035669986, 0.48335552, 0
213, 179361935, -0.56988037, 0.475299, 0.3101574, 0.5942473, -0.8262901, 0.20078884, 0.17452145, 0
214, 179378602, -0.5826303, 0.47058302, 0.3209424, 0.5797326, -0.36530188, 0.024886379, 0.002609253, 0
215, 179395269, -0.59521544, 0.46612814, 0.3320849, 0.5640593, 0.0566412, -0.1848736, 0.122177124, 0
216, 179411936, -0.60726917, 0.46173996, 0.34274784, 0.5482195, 0.22314058, -0.4350358, 0.37166214, 0
217, 179428603, -0.61850786, 0.4574513, 0.35215658, 0.533078, 0.266948, -0.4704239, 0.20021915, 0
218, 179445270, -0.62887406, 0.45341885, 0.360483, 0.5186339, 0.2795776, -0.3362406, -0.024550438, 0
219, 179461937, -0.6387781, 0.44930208, 0.3679763, 0.5046621, 0.20903312, -0.1540476, -0.19645786, 0
220, 179478604, -0.64811724, 0.44499516, 0.37527668, 0.49101025, -0.2405185, -0.115722045, -0.22996616, 0
221, 179495271, -0.65698653, 0.44023085, 0.38226518, 0.47795314, -0.51381826, -0.10583584, -0.29196835, 0
222, 179511938, -0.66554534, 0.43485302, 0.38934958, 0.46514475, -0.6607465, -0.02773684, -0.4289837, 0
223, 179528605, -0.6740105, 0.42874974, 0.39656296, 0.452351, -0.7058481, -0.110084824, -0.39208317, 0
224, 179545272, -0.68260777, 0.4215448, 0.40399808, 0.43946826, -0.80073047, -0.33045563, -0.34895897, 0
225, 179561939, -0.69131887, 0.4132707, 0.41168755, 0.42637897, -0.83304214, -0.60786384, -0.18087673, 0
226, 179578606, -0.7000418, 0.40412578, 0.4195475, 0.41304216, -0.65380913, -0.93852127, -0.0056591034, 0
227, 179595273, -0.7085261, 0.39449027, 0.4275155, 0.39949837, -0.3048455, -1.107601, 0.027376175, 0
228, 179611940, -0.71667564, 0.38471726, 0.43517822, 0.38599062, 0.12342005, -1.2382964, -0.029578209, 0
229, 179628607, -0.7243657, 0.37513027, 0.44223112, 0.3728316, 0.4470829, -1.1972612, -0.22698689, 0
230, 179645274, -0.7315212, 0.36600164, 0.44854182, 0.36018044, 0.7180964, -1.1371295, -0.35910606, 0
231, 179661941, -0.73797375, 0.3575222, 0.45429653, 0.34811985, 0.87082523, -1.0918416, -0.5076113, 0
232, 179678608, -0.7436016, 0.34984118, 0.45967594, 0.33669853, 1.0056188, -1.0726098, -0.5729084, 0
233, 179695275, -0.74856955, 0.3428415, 0.46440038, 0.32624486, 0.9941787, -0.9032145, -0.76302147, 0
234, 179711942, -0.75276154, 0.3365668, 0.46891683, 0.3165283, 0.92164314, -0.7226889, -1.046299, 0
235, 179728609, -0.7563072, 0.33090037, 0.47332886, 0.30735046, 0.88076574, -0.6724233, -1.1145296, 0
236, 179745276, -0.75922155, 0.32584497, 0.47759065, 0.29885647, 0.8527947, -0.6113531, -1.2075176, 0
237, 179761943, -0.76143014, 0.32142034, 0.48184475, 0.29109988, 0.7619713, -0.53967917, -1.3730955, 0
238, 179778610, -0.7629423, 0.31755432, 0.48624486, 0.28398007, 0.57411337, -0.46245858, -1.6523533, 0
239, 179795277, -0.76375914, 0.31440118, 0.4908792, 0.27723917, 0.46394405, -0.46625876, -1.5956345, 0
240, 179811944, -0.7639949, 0.31200612, 0.4954091, 0.2711715, 0.4052672, -0.40385124, -1.3540897, 0
241, 179828611, -0.7637196, 0.3103626, 0.49959835, 0.2660998, 0.36665535, -0.24300194, -1.247304, 0
242, 179845278, -0.76307714, 0.3094822, 0.5034052, 0.26175848, 0.3450747, -0.14343251, -1.1624365, 0
243, 179861945, -0.7622582, 0.30930054, 0.5067565, 0.2578638, 0.3745914, -0.2914468, -0.85536766, 0
244, 179878612, -0.76130587, 0.3098625, 0.50947815, 0.25461894, 0.35913503, -0.24619594, -0.6638832, 0
245, 179895279, -0.75993913, 0.3114135, 0.51180047, 0.25213978, 0.21111648, 0.03181439, -0.59190273, 0
246, 179911946, -0.7580619, 0.31396595, 0.5139748, 0.25019488, 0.055818785, 0.37311623, -0.55655193, 0
247, 179928613, -0.755719, 0.31725982, 0.51617515, 0.24859227, -0.2062524, 0.7591691, -0.64412785, 0
248, 179945280, -0.75293845, 0.3213708, 0.5186074, 0.24667972, -0.46733207, 0.940552, -0.26943684, 0
249, 179961947, -0.7500378, 0.32654575, 0.52136326, 0.24288172, -0.16465975, 0.3289722, 2.0155125, 0
250, 179978614, -0.7478045, 0.3321886, 0.52358735, 0.23726693, 0.992267, -1.4388454, 6.202585, 0
251, 179995281, -0.7463636, 0.3352644, 0.5247788, 0.23483306, 1.4735149, -0.97977865, 5.6864986, 0
252, 180011948, -0.7440758, 0.33696988, 0.5276562, 0.23319875, 1.4088446, 0.41106135, 2.880952, 0
253, 180028615, -0.7407357, 0.33920345, 0.5318943, 0.23095514, 0.9451232, 1.0236828, 1.5613298, 0
254, 180045282, -0.73665214, 0.3429357, 0.53545314, 0.23027965, 0.6147956, 1.0295261, 1.4919586, 0
255, 180061949, -0.7331198, 0.3465981, 0.5373754, 0.23158793, 0.46705222, 0.30849034, 2.2073126, 0
256, 180078616, -0.7316452, 0.34782428, 0.53808326, 0.23276582, 0.008348209, -0.24939308, 2.274747, 0
257, 180095283, -0.7322085, 0.3459687, 0.53892237, 0.23181733, -0.21767524, 0.08437167, 1.6757507, 0
258, 180111950, -0.73410934, 0.3421178, 0.5402658, 0.22836772, -0.022180084, 0.54416823, 1.1395912, 0
259, 180128617, -0.73644793, 0.33817837, 0.5415532, 0.22360715, 0.36215177, 0.60035735, 0.91778183, 0
260, 180145284, -0.7386608, 0.3351278, 0.5424758, 0.21860874, 0.88757306, 0.2883078, 0.9715004, 0
261, 180161951, -0.74095124, 0.33254862, 0.5427234, 0.21413602, 1.4019797, 0.1693057, 0.8920927, 0
262, 180178618, -0.7430401, 0.3300835, 0.5429, 0.21022844, 1.3713354, 0.52211577, 0.2579794, 0
263, 180195285, -0.7444762, 0.3282646, 0.5434546, 0.20652992, 1.3124706, 0.92661107, -0.11350536, 0
264, 180211952, -0.74573827, 0.32728752, 0.5434941, 0.2034003, 1.4616618, 1.245709, -0.344985, 0
265, 180228619, -0.74729663, 0.32690698, 0.54246426, 0.20102762, 1.4762508, 1.2300624, -0.70937634, 0
266, 180245286, -0.74920624, 0.32695964, 0.5404266, 0.19931522, 1.3792933, 0.8999386, -0.9692364, 0
267, 180261953, -0.7512247, 0.32736155, 0.5377639, 0.19825734, 1.2140995, 0.46701702, -1.1791735, 0
268, 180278620, -0.75299263, 0.3281628, 0.53489906, 0.19797605, 1.0465192, 0.20961437, -1.3402214, 0
269, 180295287, -0.75445473, 0.3293881, 0.5318994, 0.19845632, 0.89361215, 0.095799774, -1.3733978, 0
270, 180311954, -0.75570285, 0.33111638, 0.5286151, 0.19960272, 0.7732672, -0.061251715, -1.2706852, 0
271, 180328621, -0.75677323, 0.3331358, 0.52515924, 0.20130245, 0.6910236, -0.18431169, -1.192708, 0
272, 180345288, -0.7575698, 0.33538094, 0.5216707, 0.20363592, 0.7270702, -0.094969094, -1.2317038, 0
273, 180361955, -0.75804627, 0.33820143, 0.5179099, 0.20677301, 0.89160526, 0.0037554647, -1.107625, 0
274, 180378622, -0.7583636, 0.34146306, 0.5137106, 0.21068677, 0.8871292, 0.029853508, -1.101944, 0
275, 180395289, -0.7582845, 0.34532273, 0.50927615, 0.2153945, 0.7142048, -0.0036349911, -1.1996002, 0
276, 180411956, -0.75776714, 0.34980926, 0.5046643, 0.22076371, 0.5100186, -0.13091289, -1.0340548, 0
277, 180428623, -0.75667816, 0.35507995, 0.49982694, 0.22700123, 0.34375712, -0.22184555, -0.64197063, 0
278, 180445290, -0.7549963, 0.3610385, 0.49474138, 0.23422858, 0.14998882, -0.14558919, -0.11374855, 0
279, 180461957, -0.7530406, 0.36691245, 0.4897159, 0.24183361, -0.14876106, -0.27763304, 0.41731644, 0
280, 180478624, -0.7509653, 0.37221864, 0.48507327, 0.24941629, -0.4749762, -0.44974315, 0.70403576, 0
281, 180495291, -0.7486438, 0.37701404, 0.48099604, 0.25697443, -0.64172536, -0.38238618, 0.7170763, 0
282, 180511958, -0.7463244, 0.38104442, 0.4771847, 0.264764, -0.64975375, -0.3100945, 0.6090336, 0
283, 180528625, -0.7445608, 0.38382572, 0.47315913, 0.27281415, -0.4456674, -0.53921676, 0.7261801, 0
284, 180545292, -0.7436441, 0.38514093, 0.46866673, 0.28109008, -0.059704557, -0.6017521, 0.9348011, 0
285, 180561959, -0.74301237, 0.38595113, 0.46371573, 0.289728, 0.7201, -0.5580057, 1.3898573, 0
286, 180578626, -0.74234617, 0.3877957, 0.45713228, 0.29927734, 1.986627, -0.91284525, 2.2333384, 0
287, 180595293, -0.7408964, 0.39160323, 0.4491485, 0.30981526, 2.4537024, -0.5111833, 3.1953382, 0
288, 180611960, -0.73704344, 0.39806575, 0.4417573, 0.3211872, 2.419319, -0.21783595, 3.8886194, 0
289, 180628627, -0.73105425, 0.40603894, 0.4346958, 0.33426318, 1.6296557, -0.20289835, 3.9168453, 0
290, 180645294, -0.72328484, 0.41418555, 0.4287694, 0.34852028, 0.14207244, 1.107266, 1.7390995, 0
291, 180661961, -0.7146807, 0.4216317, 0.4250571, 0.3616422, -0.5300688, 2.24301, -0.0724659, 0
292, 180678628, -0.7073542, 0.42749962, 0.42178616, 0.37281463, -0.056156512, 2.5460124, -0.7337265, 0
293, 180695295, -0.70224196, 0.43126598, 0.41807544, 0.38220266, 0.7349511, 2.1757812, -0.49682808, 0
294, 180711962, -0.698935, 0.43322924, 0.41348723, 0.3909357, 1.4898312, 1.4523026, -0.45837688, 0
295, 180728629, -0.6962742, 0.43490058, 0.40769032, 0.39981553, 1.8015887, 1.1225712, -1.0176525, 0
296, 180745296, -0.692845, 0.43769974, 0.40128583, 0.40908986, 1.759676, 0.71143615, -1.3768263, 0
297, 180761963, -0.6877118, 0.4422539, 0.3940245, 0.4197724, 1.6818202, 0.07277716, -1.2159481, 0
298, 180778630, -0.6805073, 0.4486742, 0.38535488, 0.4325542, 1.2294071, -0.26993167, -1.154685, 0
299, 180795297, -0.67119354, 0.45669323, 0.37577996, 0.44690093, 0.38291055, 7.382633E-4, -1.6546297, 0
300, 180811964, -0.6604997, 0.46554387, 0.36576012, 0.46176687, -0.462628, 0.4846389, -2.1455774, 0
301, 180828631, -0.6492914, 0.47436216, 0.3555821, 0.4764062, -1.242638, 0.9856058, -2.5009212, 0
302, 180845298, -0.63815564, 0.48261136, 0.34566572, 0.49026415, -1.9323057, 1.3744462, -2.4876652, 0
303, 180861965, -0.62779784, 0.4898946, 0.33631104, 0.5027606, -2.3996441, 1.499553, -2.0883079, 0
304, 180878632, -0.61857116, 0.4961235, 0.32771513, 0.513648, -2.5894728, 1.6776606, -1.771966, 0
305, 180895299, -0.61016124, 0.50180733, 0.32016653, 0.5228635, -2.4338827, 1.9712622, -1.6972084, 0
306, 180911966, -0.60228, 0.5072735, 0.31339192, 0.5307711, -2.0998394, 2.1366706, -1.4467974, 0
307, 180928633, -0.5948419, 0.5125232, 0.30691877, 0.53785133, -1.7831506, 2.0364637, -0.90217113, 0
308, 180945300, -0.58789164, 0.51728487, 0.30071682, 0.5443983, -1.6137859, 1.8031766, -0.52839756, 0
309, 180961967, -0.58109236, 0.5217616, 0.2947113, 0.550674, -1.569495, 1.9945453, -0.8133297, 0
310, 180978634, -0.5743681, 0.5264494, 0.28876334, 0.5563885, -1.5908673, 2.3927372, -1.3399296, 0
311, 180995301, -0.5679211, 0.53173584, 0.2825224, 0.561163, -1.6200923, 2.696367, -1.3619823, 0
312, 181011968, -0.56212646, 0.5371367, 0.27570707, 0.5652288, -1.6281079, 2.7598715, -0.77194023, 0
313, 181028635, -0.5570393, 0.54201716, 0.26831514, 0.56914985, -1.7103933, 2.818451, -0.33602142, 0
314, 181045302, -0.55267423, 0.5462264, 0.26116413, 0.5726966, -1.6736495, 3.01671, -0.19427872, 0
315, 181061969, -0.54915154, 0.5501335, 0.25480223, 0.5752057, -1.6653584, 2.9376462, 0.30990887, 0
316, 181078636, -0.5464243, 0.5541288, 0.24956697, 0.5762622, -1.8038611, 2.592127, 1.4086246, 0
317, 181095303, -0.54381603, 0.5580394, 0.2455861, 0.57666594, -1.5551478, 2.4514964, 1.8800983, 0
318, 181111970, -0.54096925, 0.5623042, 0.24253435, 0.57649237, -1.2369174, 2.295415, 2.2362204, 0
319, 181128637, -0.5383178, 0.56711537, 0.23924509, 0.57563525, -1.2125583, 1.6298958, 3.8187208, 0
320, 181145304, -0.53577626, 0.57103807, 0.2357625, 0.5755654, -1.1056236, 1.1203176, 4.6926517, 0
321, 181161971, -0.53288937, 0.5738428, 0.23296766, 0.57659316, -0.8312981, 1.2264786, 4.0765333, 0
322, 181178638, -0.5297433, 0.5766322, 0.23091438, 0.5775344, -0.588456, 1.8101282, 3.3472033, 0
323, 181195305, -0.5267189, 0.57951355, 0.22893761, 0.578203, -0.62489396, 2.3569698, 3.1733284, 0
324, 181211972, -0.5246156, 0.5809068, 0.22761607, 0.57923806, -0.80174476, 2.6887279, 2.7037354, 0
325, 181228639, -0.5247691, 0.57957137, 0.22771272, 0.58039755, -1.0428472, 2.7860744, 1.8881073, 0
326, 181245306, -0.5280253, 0.5759151, 0.22884578, 0.5806381, -1.426744, 2.4730742, 1.4069462, 0
327, 181261973, -0.53392106, 0.5707665, 0.23124361, 0.57937926, -1.288958, 1.8194265, 1.0388851, 0
328, 181278640, -0.54156613, 0.5646576, 0.23468287, 0.5768812, -0.7611211, 0.77980494, 0.9771452, 0
329, 181295307, -0.55024225, 0.55767167, 0.23825364, 0.57399565, 0.06579406, -0.113939755, 0.82084846, 0
330, 181311974, -0.5593419, 0.5500449, 0.24127007, 0.57129335, 0.5969915, -0.80970097, 0.5043144, 0
331, 181328641, -0.56841946, 0.5424733, 0.24348103, 0.56862926, 0.78962165, -1.168167, 0.12168312, 0
332, 181345308, -0.5773714, 0.53522533, 0.24496667, 0.56583345, 0.7206688, -1.2607963, -0.42411423, 0
333, 181361975, -0.58602494, 0.52858526, 0.24557169, 0.56290936, 0.6312911, -1.1779591, -1.0660172, 0
334, 181378642, -0.5942251, 0.5229307, 0.24513832, 0.55977434, 0.63080275, -1.254941, -1.3775549, 0
335, 181395309, -0.60180306, 0.5182159, 0.24372254, 0.55667293, 0.57685363, -1.3623718, -1.5251684, 0
336, 181411976, -0.6086331, 0.51430285, 0.24184462, 0.5536872, 0.29546782, -1.3838172, -1.5548363, 0
337, 181428643, -0.6146736, 0.51102793, 0.24005501, 0.5508179, 0.060324136, -1.2646089, -1.6580372, 0
338, 181445310, -0.61991674, 0.50838435, 0.23872538, 0.5479588, -0.09311896, -0.987166, -1.9884453, 0
339, 181461977, -0.6244233, 0.50665486, 0.23814927, 0.5446846, -0.13426547, -0.8276935, -2.1400895, 0
340, 181478644, -0.6282314, 0.5056783, 0.23779728, 0.54135686, 0.17972162, -0.77663845, -1.9574485, 0
341, 181495311, -0.6315921, 0.50490266, 0.23705663, 0.5384878, 0.5148324, -0.9592622, -1.6562767, 0
342, 181511978, -0.6345269, 0.5042007, 0.23654862, 0.5359125, 0.50756, -0.9673808, -1.6261635, 0
343, 181528645, -0.6367687, 0.5037402, 0.23589997, 0.533969, 0.40848088, -0.9985059, -1.8031263, 0
344, 181545312, -0.63850504, 0.5036447, 0.2353117, 0.5322423, 0.37875074, -0.8566784, -1.9009738, 0
345, 181561979, -0.63965374, 0.504301, 0.2348691, 0.530434, 0.34641927, -0.88525075, -1.7305536, 0
346, 181578646, -0.63986593, 0.50583595, 0.23441444, 0.5289154, 0.3768433, -0.9728788, -1.446845, 0
347, 181595313, -0.6389977, 0.5081749, 0.23394237, 0.52793145, 0.42019787, -0.97719866, -1.1091852, 0
348, 181611980, -0.63718766, 0.5111771, 0.233579, 0.52738124, 0.39385396, -1.0402988, -0.6034765, 0
349, 181628647, -0.6343741, 0.5146355, 0.2333286, 0.5275203, 0.3448741, -0.85419655, -0.24730492, 0
350, 181645314, -0.63045186, 0.51873726, 0.23336597, 0.5281881, 0.25174657, -0.56702155, 0.0070152283, 0
351, 181661981, -0.6254413, 0.5232341, 0.23370384, 0.5295582, -0.12302276, -0.3528123, 0.3694439, 0
352, 181678648, -0.6193865, 0.5279396, 0.23504597, 0.531407, -0.35141656, 0.15096088, 0.7297821, 0
353, 181695315, -0.613036, 0.53279084, 0.23847951, 0.53239894, -0.2571826, 0.21935785, 1.3649521, 0
354, 181711982, -0.60701334, 0.5372131, 0.2437817, 0.53245425, 0.082424425, 0.056789726, 2.1766005, 0
355, 181728649, -0.6016635, 0.54070586, 0.2484703, 0.5328235, 0.52948856, -0.6386114, 3.61656, 0
356, 181745316, -0.5958416, 0.5434053, 0.2512788, 0.53529674, 1.5514361, -0.4146648, 3.5247602, 0
357, 181761983, -0.58912647, 0.54630417, 0.25402677, 0.53847206, 1.451746, 0.15803707, 3.8392134, 0
358, 181778650, -0.5819053, 0.54864097, 0.25528812, 0.54332995, 1.3349664, 0.61845076, 2.9758835, 0
359, 181795317, -0.5738031, 0.5508211, 0.2572019, 0.548811, 0.98006946, 1.7943813, 1.0271711, 0
360, 181811984, -0.56505007, 0.5537818, 0.25803256, 0.5544939, 1.3344554, 1.871086, 0.2550888, 0
361, 181828651, -0.5572696, 0.55573285, 0.2572208, 0.5607578, 1.4196947, 1.2876936, 0.46733952, 0
362, 181845318, -0.55081266, 0.55565435, 0.25642174, 0.5675401, 1.3474939, 1.1511394, 0.099295616, 0
363, 181861985, -0.5456357, 0.55407155, 0.2577839, 0.5734404, 1.18784, 1.1968008, -0.40716362, 0
364, 181878652, -0.54114723, 0.5517264, 0.2603417, 0.5787745, 1.264133, 0.85996073, -0.55254936, 0
365, 181895319, -0.5366301, 0.5490979, 0.2632154, 0.5841554, 1.332437, 0.49832526, -0.6095381, 0
366, 181911986, -0.53178823, 0.54641986, 0.26669002, 0.58949405, 1.0453469, 0.40309376, -0.46227074, 0
367, 181928653, -0.5263453, 0.5443404, 0.27197403, 0.5938725, 0.15998778, -0.019603204, -0.7978983, 0
368, 181945320, -0.5197677, 0.5428717, 0.27485585, 0.59965515, 1.063, -0.23749168, -0.910799, 0
369, 181961987, -0.51104957, 0.54329866, 0.27618086, 0.6061182, 0.25918597, -0.42113394, -0.92071724, 0
370, 181978654, -0.50151545, 0.5431247, 0.27504113, 0.6146955, 0.18238668, -0.58665466, -0.7125311, 0
371, 181995321, -0.49157193, 0.54221576, 0.2708053, 0.6253189, -0.7273498, 0.58327985, -0.59597397, 0
372, 182011988, -0.48224467, 0.5411041, 0.26767924, 0.63481843, -2.3931692, 2.2212944, -0.99902916, 0
373, 182028655, -0.47269917, 0.5403954, 0.26480037, 0.6437462, -2.2823963, 0.98818564, -1.0213652, 0
374, 182045322, -0.46504766, 0.5388976, 0.26225865, 0.65156776, -1.8595853, 2.090408, -1.2098789, 0
375, 182061989, -0.4589766, 0.53780675, 0.26100072, 0.65725416, -1.8304248, 2.555858, -0.95854664, 0
376, 182078656, -0.45467275, 0.5363884, 0.26099232, 0.66139483, -2.0134187, 2.6434033, -0.9378309, 0
377, 182095323, -0.4521864, 0.5345921, 0.26245627, 0.6639697, -2.1218884, 2.5822358, -1.1444502, 0
378, 182111990, -0.451032, 0.53253555, 0.26526538, 0.66528976, -1.9729533, 2.4181113, -1.276515, 0
379, 182128657, -0.4510463, 0.5303573, 0.2687926, 0.66560423, -1.6244805, 2.294024, -1.3351955, 0
380, 182145324, -0.4519799, 0.5282735, 0.2724899, 0.6651244, -1.3810794, 2.1122983, -1.253417, 0
381, 182161991, -0.45381415, 0.5262783, 0.275943, 0.66403264, -1.3871443, 2.015049, -1.0719872, 0
382, 182178658, -0.45667404, 0.52414936, 0.27927637, 0.66236025, -1.4808505, 1.8734885, -0.8834505, 0
383, 182195325, -0.4608469, 0.5217335, 0.28280315, 0.65987635, -1.6195092, 1.6755778, -0.7071781, 0
384, 182211992, -0.4664573, 0.5193252, 0.2866257, 0.65617424, -1.7575287, 1.3931625, -0.31579876, 0
385, 182228659, -0.47313908, 0.5173057, 0.2906122, 0.6512133, -1.6844249, 1.1548597, 0.079574585, 0
386, 182245326, -0.48037925, 0.51621497, 0.29439986, 0.64504784, -1.5094959, 0.94782907, 0.4228983, 0
387, 182261993, -0.48761404, 0.51649815, 0.2973596, 0.63799673, -1.3282188, 0.7857846, 0.73453903, 0
388, 182278660, -0.4948887, 0.5180272, 0.2990247, 0.6303311, -1.3500673, 0.684858, 1.3747044, 0
389, 182295327, -0.502853, 0.5202726, 0.29956052, 0.6218673, -1.78698, 0.48086667, 2.7082424, 0
390, 182311994, -0.5110027, 0.5227106, 0.2998636, 0.6129698, -2.0493004, 0.43284, 3.528285, 0
391, 182328661, -0.5188533, 0.5252671, 0.30122262, 0.60344905, -2.1638727, 0.64095426, 3.6269379, 0
392, 182345328, -0.5269282, 0.52742237, 0.30356362, 0.59331423, -2.3316278, 0.6985743, 3.4077892, 0
393, 182361995, -0.5357048, 0.52873605, 0.30737516, 0.58221936, -2.6030493, 0.89860165, 2.8213615, 0
394, 182378662, -0.5455845, 0.52852947, 0.31349713, 0.5698367, -2.6304352, 0.8058062, 2.3901958, 0
395, 182395329, -0.55723727, 0.52567035, 0.32205248, 0.5562729, -2.4307992, 0.206357, 1.8311682, 0
396, 182411996, -0.5709571, 0.51973915, 0.3325063, 0.5415892, -2.0371516, -0.6604444, 1.3430843, 0
397, 182428663, -0.58651453, 0.5110266, 0.34373137, 0.52602404, -1.5195291, -1.4405609, 0.9437494, 0
398, 182445330, -0.60303855, 0.5004629, 0.35491246, 0.50982237, -1.0855755, -2.07772, 0.63699245, 0
399, 182461997, -0.61965287, 0.4890302, 0.3653182, 0.49337858, -0.67605215, -2.7047238, 0.37990952, 0
400, 182478664, -0.63592505, 0.47728148, 0.37428266, 0.47719425, -0.07729704, -3.2302365, 0.13404179, 0
401, 182495331, -0.65171045, 0.46555668, 0.38141838, 0.4615741, 0.6237908, -3.4498978, -0.15530872, 0
402, 182511998, -0.66672075, 0.4544043, 0.38733768, 0.44606048, 1.1528965, -3.43723, -0.34427166, 0
403, 182528665, -0.68068916, 0.44450644, 0.3915487, 0.43100604, 1.6028348, -3.4598773, -0.41240025, 0
404, 182545332, -0.69353104, 0.43613786, 0.39413804, 0.41647783, 2.12517, -3.2469487, -0.65522766, 0
405, 182561999, -0.7052359, 0.42952475, 0.39510763, 0.40254304, 2.5895839, -2.9341166, -0.95641994, 0
406, 182578666, -0.7157403, 0.4248282, 0.3945457, 0.38932097, 2.9278367, -2.6489456, -1.233963, 0
407, 182595333, -0.7251564, 0.421895, 0.39246532, 0.3769932, 3.1375792, -2.4214342, -1.4266481, 0
408, 182612000, -0.733452, 0.42056173, 0.38920256, 0.36564675, 3.1310577, -2.2878146, -1.4516687, 0
409, 182628667, -0.7405495, 0.42056355, 0.3851698, 0.35546753, 2.9400609, -2.1628635, -1.3462076, 0
410, 182645334, -0.74636257, 0.42163992, 0.38086766, 0.34655824, 2.6464489, -2.0817647, -1.284831, 0
411, 182662001, -0.75086033, 0.42354354, 0.37673202, 0.33895844, 2.3788903, -1.9744035, -1.2240658, 0
412, 182678668, -0.75434345, 0.42587164, 0.37290943, 0.33247247, 2.1434276, -1.8432273, -1.2139664, 0
413, 182695335, -0.7570182, 0.42839557, 0.369785, 0.3265886, 1.8943661, -1.5641468, -1.2195024, 0
414, 182712002, -0.75915766, 0.43071315, 0.36755016, 0.3210495, 1.6531059, -1.4590434, -1.0985746, 0
415, 182728669, -0.7613433, 0.4318316, 0.36619464, 0.31587878, 1.3918178, -1.5398628, -0.86121845, 0
416, 182745336, -0.7636615, 0.43168852, 0.3656071, 0.31112343, 1.1429563, -1.4028077, -0.5209398, 0
417, 182762003, -0.7662106, 0.43007207, 0.365994, 0.3066071, 0.8299595, -1.3272811, -0.22435188, 0
418, 182778670, -0.76916015, 0.4268548, 0.36720377, 0.30224028, 0.5614312, -1.3091505, 0.1584673, 0
419, 182795337, -0.772667, 0.42203262, 0.36928725, 0.29749158, 0.2537795, -1.4609716, 0.9014387, 0
420, 182812004, -0.77670544, 0.41601548, 0.3722819, 0.29166138, 0.28198418, -1.5373452, 2.00914, 0
421, 182828671, -0.78113186, 0.4088151, 0.3765891, 0.2844017, 0.7537413, -1.1749938, 3.0437746, 0
422, 182845338, -0.7854878, 0.40121344, 0.38263354, 0.27500635, 1.4671834, -1.0894723, 4.2751036, 0
423, 182862005, -0.7887983, 0.3943491, 0.38915053, 0.26617327, 2.0333748, -0.47626856, 4.23927, 0
424, 182878672, -0.78975874, 0.3883237, 0.39792505, 0.25911707, 0.95434624, 0.79184204, 1.6838322, 0
425, 182895339, -0.7890454, 0.38261646, 0.40899202, 0.2524636, 0.41102847, 1.2761977, -0.41615582, 0
426, 182912006, -0.7888712, 0.37612668, 0.4187019, 0.24677913, 0.37048545, 1.5618048, -1.6101398, 0
427, 182928673, -0.7905576, 0.3681771, 0.42569306, 0.24134982, 0.25031304, 1.7292455, -2.1222425, 0
428, 182945340, -0.7946812, 0.35930756, 0.42924294, 0.2347991, 0.25546458, 0.9174146, -1.1143007, 0
429, 182962007, -0.80017346, 0.35007632, 0.43068507, 0.22733071, -0.021070119, 0.32115972, -0.11509609, 0
430, 182978674, -0.8052681, 0.339452, 0.43387553, 0.21924427, -0.53673327, 0.2536034, 0.43544102, 0
431, 182995341, -0.80944556, 0.3269356, 0.4397777, 0.21096608, -0.64018446, 0.20810866, 0.4348631, 0
432, 183012008, -0.81288594, 0.31394327, 0.44688535, 0.20236084, -0.40016553, 0.20936236, -0.0064229965, 0
433, 183028675, -0.8151532, 0.30302322, 0.4541232, 0.1935828, 0.19926716, -0.24017383, 0.045806885, 0
434, 183045342, -0.816394, 0.2947415, 0.46056324, 0.18576825, 0.5341792, -0.5624833, 0.28742886, 0
435, 183062009, -0.8170636, 0.28811553, 0.46610865, 0.17927398, 0.44059142, -0.6996937, -0.0073919296, 0
436, 183078676, -0.81776446, 0.28191224, 0.47085392, 0.17344555, -0.28138673, -0.7575833, -0.51850224, 0
437, 183095343, -0.819033, 0.2759422, 0.47432083, 0.16751297, -0.9287846, -0.88071394, -1.0437489, 0
438, 183112010, -0.820478, 0.2691714, 0.47822902, 0.16018634, -1.3942525, -1.2513487, -1.20895, 0
439, 183128677, -0.8220112, 0.26143777, 0.48268196, 0.15154645, -1.5647581, -1.6119639, -1.1708002, 0
440, 183145344, -0.82326174, 0.25249815, 0.4883988, 0.1412506, -1.6067003, -1.692306, -1.278614, 0
441, 183162011, -0.8242539, 0.24242216, 0.4950968, 0.12929188, -1.3015037, -1.6442033, -1.1060619, 0
442, 183178678, -0.82510245, 0.23135245, 0.5022136, 0.11603296, -1.0030434, -1.4791979, -0.90841293, 0
443, 183195345, -0.82576925, 0.21983205, 0.5092896, 0.10199625, -0.6879083, -1.2862219, -0.66632843, 0
444, 183212012, -0.82621324, 0.20830649, 0.5160423, 0.08763929, -0.48665276, -1.2617497, -0.48652172, 0
445, 183228679, -0.8263694, 0.19688465, 0.52247554, 0.07327735, -0.3695572, -1.1616398, -0.41161823, 0
446, 183245346, -0.82609874, 0.18573019, 0.5287521, 0.059046615, -0.25252405, -1.043076, -0.3925991, 0
447, 183262013, -0.82539076, 0.17460498, 0.5349892, 0.045053706, -0.15406927, -0.92138255, -0.35695362, 0
448, 183278680, -0.82440287, 0.16320828, 0.54105526, 0.03134082, -0.12040553, -0.963713, -0.30474758, 0
449, 183295347, -0.8233815, 0.15138446, 0.54663265, 0.017849166, -0.07831894, -1.0015677, -0.2192545, 0
450, 183312014, -0.8224101, 0.13906193, 0.55162024, 0.0043299254, -0.074060574, -1.0186894, -0.13481426, 0
451, 183328681, -0.82135373, 0.12613435, 0.5562136, -0.009723528, 0.04276116, -0.8862558, 0.2414856, 0
452, 183345348, -0.820162, 0.11270155, 0.5603975, -0.024233313, 0.34241515, -0.72886825, 0.83770466, 0
453, 183362015, -0.8189668, 0.09893637, 0.56389225, -0.039121926, 0.8677868, -0.41516078, 1.5722427, 0
454, 183378682, -0.8177616, 0.08503384, 0.56660396, -0.05472672, 1.239635, 0.0036986924, 2.3428688, 0
455, 183395349, -0.8159666, 0.0713506, 0.56928587, -0.070862204, 1.6229879, 0.31453246, 3.052352, 0
456, 183412016, -0.8135406, 0.058836956, 0.57196224, -0.0868854, 2.3010788, 0.61686885, 3.7893677, 0
457, 183428683, -0.8109052, 0.047550187, 0.57448304, -0.10070276, 2.475833, 0.89544255, 3.0030403, 0
458, 183445350, -0.80797, 0.03655195, 0.57733184, -0.11196694, 2.2606695, 1.161001, 0.91013813, 0
459, 183462017, -0.80597866, 0.025555663, 0.5786428, -0.12213892, 2.6805928, 1.4969792, -0.31204128, 0
460, 183478684, -0.80619586, 0.014819072, 0.5764849, -0.13226451, 3.2293315, 1.87374, -0.9222145, 0
461, 183495351, -0.80777794, 0.005137295, 0.5719998, -0.14242499, 3.5220091, 2.2692287, -1.0656185, 0
462, 183512018, -0.81004655, -0.0031659475, 0.56607306, -0.15289177, 3.838869, 2.3548346, -0.42722797, 0
463, 183528685, -0.8130133, -0.009702528, 0.55881983, -0.16320448, 3.958532, 1.9219394, 0.055921555, 0
464, 183545352, -0.81575245, -0.015075523, 0.5517062, -0.17303535, 3.7258258, 1.3857328, -0.046613693, 0
465, 183562019, -0.81749976, -0.019257689, 0.54619104, -0.18165565, 3.4299579, 1.0541967, -0.1275692, 0
466, 183578686, -0.8182023, -0.022090893, 0.54270244, -0.18849681, 3.2549508, 0.9086821, 0.015417099, 0
467, 183595353, -0.81845284, -0.023847174, 0.54027575, -0.19408374, 2.9730756, 1.1293721, 0.10250378, 0
468, 183612020, -0.8185488, -0.024680289, 0.53815466, -0.19939531, 2.5287974, 1.7106037, 0.08739853, 0
469, 183628687, -0.8188176, -0.024127783, 0.5357244, -0.20482932, 2.0972812, 2.4975307, -0.016482353, 0
470, 183645354, -0.8194548, -0.022194644, 0.53261757, -0.21052295, 1.9522809, 2.8061764, -0.21801758, 0
471, 183662021, -0.8206554, -0.01914732, 0.5284283, -0.21661475, 1.7300615, 2.6392672, -0.47840118, 0
472, 183678688, -0.82228416, -0.014984893, 0.5234332, -0.22280475, 1.6476065, 2.063892, -0.550004, 0
473, 183695355, -0.82387084, -0.009962113, 0.51854116, -0.22858877, 1.6786985, 1.5836619, -0.10347366, 0
474, 183712022, -0.82531816, -0.0051571727, 0.51389885, -0.23394802, 1.7498244, 1.5774887, 0.44465542, 0
475, 183728689, -0.8266796, -5.687312E-4, 0.50957483, -0.23860876, 1.5265045, 1.9309324, 0.7305012, 0
476, 183745356, -0.8280514, 0.004581305, 0.5054534, -0.24254291, 1.1095446, 2.2476826, 0.7742624, 0
477, 183762023, -0.829727, 0.010828817, 0.50090444, -0.24603027, 1.1113073, 2.388371, 0.7629013, 0
478, 183778690, -0.8319981, 0.018408312, 0.49531984, -0.24919601, 1.2505322, 2.1781998, 0.8909569, 0
479, 183795357, -0.8348425, 0.027088337, 0.4886833, -0.2519782, 1.359302, 1.7272545, 1.0446014, 0
480, 183812024, -0.8378307, 0.03623712, 0.48169875, -0.254348, 1.1663536, 1.2258531, 0.9279709, 0
481, 183828691, -0.84059876, 0.044732094, 0.4746929, -0.25702032, 1.082563, 1.0524595, 0.72353363, 0
482, 183845358, -0.8431788, 0.053050894, 0.46755588, -0.26005122, 1.0013014, 1.2002957, 0.5962448, 0
483, 183862025, -0.8456711, 0.061640985, 0.46000782, -0.2635025, 1.2168752, 1.2530012, 0.60244274, 0
484, 183878692, -0.84822065, 0.07104544, 0.451941, -0.26687735, 1.356172, 1.2067697, 0.6755533, 0
485, 183895359, -0.85092205, 0.08111347, 0.44322026, -0.27001554, 1.5462309, 1.1413602, 0.5212078, 0
486, 183912026, -0.85355663, 0.0913116, 0.43430352, -0.27291727, 1.3739797, 0.93998027, 0.1966896, 0
487, 183928693, -0.8558606, 0.10144103, 0.4254418, -0.276065, 1.448034, 0.8182011, 0.0015821457, 0
488, 183945360, -0.8578408, 0.11142901, 0.41657576, -0.27956718, 1.3552817, 0.72606313, -0.10940933, 0
489, 183962027, -0.85929585, 0.12114487, 0.4081263, -0.28349194, 1.3064181, 0.7968674, -0.27312756, 0
490, 183978694, -0.8603088, 0.1308732, 0.40006766, -0.28755298, 1.3482449, 0.9140221, -0.52699757, 0
491, 183995361, -0.86093456, 0.14082615, 0.39241052, -0.29150236, 1.3186618, 0.94673985, -0.8080063, 0
492, 184012028, -0.8611438, 0.15105888, 0.3852668, -0.29526606, 1.2443256, 0.8527501, -0.89162445, 0
493, 184028695, -0.8608614, 0.16148834, 0.37885803, -0.2988406, 1.0793202, 0.79697514, -0.789135, 0
494, 184045362, -0.86006844, 0.1718035, 0.37343705, -0.30217692, 0.9170374, 0.7184765, -0.6786175, 0
495, 184062029, -0.85892737, 0.18201807, 0.36898744, -0.30489594, 0.85698265, 0.5361913, -0.45941734, 0
496, 184078696, -0.8575228, 0.19183679, 0.36580598, -0.3066588, 0.5690412, 0.26968414, -0.4299574, 0
497, 184095363, -0.8560009, 0.20047158, 0.36371142, -0.30787605, 0.28360665, -0.0967306, -0.6765528, 0
498, 184112030, -0.85448563, 0.20747383, 0.36213714, -0.3092991, 0.05803447, -0.4727707, -0.9150076, 0
499, 184128697, -0.8529862, 0.21245474, 0.36074287, -0.31167668, -0.030533658, -0.7779392, -0.9666748, 0
500, 184145364, -0.8514657, 0.21514556, 0.35966933, -0.3152091, -0.015469555, -0.81609005, -0.94367504, 0
501, 184162031, -0.849901, 0.21561955, 0.35925892, -0.31954598, 0.13203536, -0.7106202, -0.9694176, 0
502, 184178698, -0.84830856, 0.21431924, 0.3596703, -0.32415658, 0.3535508, -0.48001364, -1.1585846, 0
503, 184195365, -0.846752, 0.21186587, 0.360668, -0.32869858, 0.5311562, -0.46391174, -1.2793894, 0
504, 184212032, -0.8450615, 0.20835303, 0.36233795, -0.3334237, 0.7113304, -0.64279264, -1.1112432, 0
505, 184228699, -0.843122, 0.20379569, 0.364865, -0.33835784, 0.77882373, -0.888004, -0.7360935, 0
506, 184245366, -0.84079015, 0.19769719, 0.36845002, -0.34384966, 0.7310452, -0.93287635, -0.4748993, 0
507, 184262033, -0.8381604, 0.18989797, 0.37289822, -0.34981868, 0.7641148, -1.0391154, -0.34260464, 0
508, 184278700, -0.8349514, 0.18008204, 0.37869495, -0.3563943, 0.3548259, -0.98920876, -0.64241314, 0
509, 184295367, -0.8309625, 0.16895545, 0.38556987, -0.363719, 0.2309584, -0.8273262, -1.1873703, 0
510, 184312034, -0.8262437, 0.15758693, 0.39291152, -0.37162957, 0.48925868, -0.6358577, -1.3236961, 0
511, 184328701, -0.8207277, 0.1463942, 0.40099436, -0.3797082, 0.32663536, -0.50024533, -1.1979561, 0
512, 184345368, -0.8144513, 0.13545802, 0.40981945, -0.3877736, 0.18884476, -0.21209669, -1.1482267, 0
513, 184362035, -0.80755365, 0.12540115, 0.41925126, -0.39542443, 0.26510984, -0.13936312, -0.8631792, 0
514, 184378702, -0.8001009, 0.11589734, 0.4293011, -0.40262502, -0.09460744, -0.14567518, -0.6121216, 0
515, 184395369, -0.7918979, 0.10660081, 0.43998164, -0.40981734, -0.45587814, 0.021865323, -0.6693859, 0
516, 184412036, -0.7826307, 0.09789624, 0.45138314, -0.4173237, -0.31612042, 0.3710361, -0.44826794, 0
517, 184428703, -0.77326447, 0.090486124, 0.46232963, -0.4244124, -0.02518164, 0.5755794, -0.013244629, 0
518, 184445370, -0.76400805, 0.083480746, 0.47312596, -0.43066782, -0.3458836, 0.22247602, 0.18115616, 0
519, 184462037, -0.75420845, 0.07580858, 0.48441738, -0.43676385, -0.1691233, 0.106465034, 0.7683344, 0
520, 184478704, -0.745016, 0.06738336, 0.4948618, -0.4421795, -0.15435223, 0.1229899, 1.4046879, 0
521, 184495371, -0.737622, 0.05781909, 0.50342727, -0.44624186, -0.55860984, 0.06709764, 2.0724688, 0
522, 184512038, -0.7317919, 0.04612979, 0.5106578, -0.44897828, -1.9679829, -0.36021444, 2.2481737, 0
523, 184528705, -0.7269008, 0.032155808, 0.5165061, -0.45144522, -3.1124353, 0.1509864, 1.3356705, 0
524, 184545372, -0.7231394, 0.01786638, 0.5200944, -0.45414984, -2.7309082, 0.32123798, 0.63779736, 0
525, 184562039, -0.72008765, 0.0031620287, 0.5214441, -0.45777744, -2.0438254, -0.20494649, 0.7880573, 0
526, 184578706, -0.71710056, -0.012185689, 0.52147394, -0.4622591, -1.200369, -0.32902122, 1.1882496, 0
527, 184595373, -0.71439487, -0.027716959, 0.5206996, -0.46663043, -0.5856064, -0.586829, 1.2249374, 0
528, 184612040, -0.71150464, -0.044492763, 0.51909924, -0.47150567, -0.44753486, -0.6936148, 0.6721983, 0
529, 184628707, -0.70807034, -0.06187493, 0.51587385, -0.47820738, -0.22252816, -0.29809195, 0.7876959, 0
530, 184645374, -0.704565, -0.0798424, 0.50857836, -0.48842776, 0.18097174, -1.0993617, 1.5088272, 0
531, 184662041, -0.69955033, -0.09668659, 0.50106823, -0.50021166, 1.560917, -1.9119289, 0.965621, 0
532, 184678708, -0.6914213, -0.111846164, 0.49848044, -0.5108273, 2.2673628, -1.3501022, -0.2958088, 0
533, 184695375, -0.6808856, -0.12598792, 0.5005739, -0.51956487, 1.6064332, -0.089688264, -1.1571636, 0
534, 184712042, -0.66971064, -0.1393889, 0.50477064, -0.52655965, 0.05522044, 1.7895103, -1.0495634, 0
535, 184728709, -0.66090566, -0.14926483, 0.50786847, -0.53197116, -1.3089576, 3.2230353, -0.27313423, 0
536, 184745376, -0.6564123, -0.15239072, 0.510084, -0.53452253, -2.306955, 2.3252764, -0.0042858124, 0
537, 184762043, -0.6547182, -0.1500962, 0.5133285, -0.53414327, -2.5848863, 0.52718604, -0.023050308, 0
538, 184778710, -0.6539489, -0.14595601, 0.51768357, -0.53202605, -1.6302416, -0.4766872, 0.092274666, 0
539, 184795377, -0.65314007, -0.14245377, 0.52197695, -0.5297689, -0.60837454, -0.7485497, 0.39469528, 0
540, 184812044, -0.651742, -0.14115904, 0.5251081, -0.5287422, -0.091817334, -1.1486949, 0.8546829, 0
541, 184828711, -0.64934653, -0.14312343, 0.5265803, -0.5296962, 0.009501088, -1.4014585, 1.010931, 0
542, 184845378, -0.6459453, -0.14785501, 0.5269487, -0.5321828, -0.2378075, -1.074355, 0.8793087, 0
543, 184862045, -0.6422449, -0.15342668, 0.5269169, -0.5351078, -0.74531424, -0.08817173, 0.6608658, 0
544, 184878712, -0.6392846, -0.15787429, 0.52705485, -0.5372188, -1.4407475, 0.7866762, 0.59907436, 0
545, 184895379, -0.63819766, -0.16013494, 0.52683634, -0.5380559, -1.6313506, 1.4234593, 0.36301327, 0
546, 184912046, -0.6388043, -0.1602914, 0.5264955, -0.5376228, -1.2279531, 1.3408577, -0.12569618, 0
547, 184928713, -0.63992643, -0.15910183, 0.5269579, -0.5361869, -0.51235205, 0.88661385, -0.44550705, 0
548, 184945380, -0.64132255, -0.15667266, 0.52841485, -0.53379476, -0.27092743, 0.5164323, -0.27410698, 0
549, 184962047, -0.643264, -0.15342678, 0.53002924, -0.5307925, -0.42110065, 0.315128, 0.101325035, 0
550, 184978714, -0.6456666, -0.15028697, 0.53092337, -0.527872, -0.40345207, 0.044453934, 0.1879158, 0
551, 184995381, -0.6477245, -0.14814864, 0.5314339, -0.525436, -0.11967956, -0.24359587, -0.103155136, 0
552, 185012048, -0.6487741, -0.14727323, 0.53231335, -0.5234933, 0.18991762, -0.036479384, -0.34702492, 0
553, 185028715, -0.64905816, -0.14719513, 0.53375965, -0.52168745, 0.1228729, 0.41026908, -0.37581062, 0
554, 185045382, -0.6494311, -0.14684442, 0.5353421, -0.5196969, -0.21732768, 0.7793977, -0.12924099, 0
555, 185062049, -0.65045404, -0.1455069, 0.53697115, -0.5171067, -0.4695263, 0.92488587, 0.02572918, 0
556, 185078716, -0.6521797, -0.14320818, 0.5388204, -0.51364005, -0.5279698, 0.89726233, -0.018260956, 0
557, 185095383, -0.6543749, -0.14036961, 0.54096764, -0.5093564, -0.48009732, 0.75307846, -0.18456936, 0
558, 185112050, -0.6567907, -0.13722979, 0.54342717, -0.50446135, -0.3380933, 0.5899445, -0.15303802, 0
559, 185128717, -0.65928406, -0.13400365, 0.54601604, -0.49925378, -0.31754082, 0.4741707, 0.08945942, 0
560, 185145384, -0.6619957, -0.13097686, 0.5483155, -0.49392006, -0.37900802, 0.50187206, 0.25849056, 0
561, 185162051, -0.6649478, -0.12817866, 0.55033237, -0.48841518, -0.39377752, 0.617008, 0.31067753, 0
562, 185178718, -0.66833144, -0.12532556, 0.5520556, -0.48255706, -0.20145021, 0.926044, 0.5718231, 0
563, 185195385, -0.67309594, -0.12206217, 0.5526344, -0.4760651, -0.13666476, 1.1359578, 0.6100035, 0
564, 185212052, -0.6792479, -0.11790054, 0.55226624, -0.46874702, -0.8025166, 0.91539735, 0.25786877, 0
565, 185228719, -0.68558455, -0.1124975, 0.5524286, -0.46058786, -1.1300553, 0.69788873, 0.3443098, 0
566, 185245386, -0.6926595, -0.10547497, 0.55235046, -0.45167118, -0.57098556, 1.0505449, 1.2039766, 0
567, 185262053, -0.7016463, -0.09700222, 0.55069476, -0.441609, -0.4160345, 0.90662366, 1.5445156, 0
568, 185278720, -0.7115418, -0.08792908, 0.5481239, -0.43074027, -0.2218755, 0.52159196, 1.2453375, 0
569, 185295387, -0.72186357, -0.077688076, 0.54536057, -0.41887876, -0.5532397, -0.0031276727, 0.91913223, 0
570, 185312054, -0.7318076, -0.065803014, 0.54279196, -0.40682265, -0.18144827, -0.3131131, 1.181962, 0
571, 185328721, -0.74234986, -0.051397115, 0.5391444, -0.3944597, 0.622902, -0.6419452, 1.582797, 0
572, 185345388, -0.7537486, -0.034753844, 0.5338087, -0.38171175, 0.7301368, -1.0344089, 1.7593288, 0
573, 185362055, -0.76553094, -0.016108302, 0.5269869, -0.36876544, 0.5937796, -1.2942566, 1.6766386, 0
574, 185378722, -0.77680415, 0.0039507644, 0.51925033, -0.3562852, 0.4365302, -1.4742424, 1.5559464, 0
575, 185395389, -0.7873568, 0.025331913, 0.5105024, -0.34469578, 0.87691194, -1.624413, 1.6418982, 0
576, 185412056, -0.79740363, 0.047275085, 0.50024134, -0.33417237, 1.1451848, -2.157354, 1.4804583, 0
577, 185428723, -0.80623645, 0.06824323, 0.48926368, -0.3254947, 1.0180993, -2.451104, 1.190731, 0
578, 185445390, -0.81365436, 0.0880137, 0.47804374, -0.31889585, 0.85874885, -2.2968562, 1.0190067, 0
579, 185462057, -0.8197246, 0.10624979, 0.46671516, -0.31454688, 0.7010323, -2.2005847, 0.87179184, 0
580, 185478724, -0.8249045, 0.122517645, 0.45451644, -0.3129486, 0.9224746, -2.047412, 0.99979687, 0
581, 185495391, -0.82919663, 0.1356324, 0.44185337, -0.31432897, 0.9973888, -2.1348987, 0.71013355, 0
582, 185512058, -0.83212745, 0.14599578, 0.4300773, -0.31824976, 1.3021443, -2.1259649, 0.23468208, 0
583, 185528725, -0.8337969, 0.15457182, 0.41960272, -0.32376552, 1.1885035, -1.8013213, -0.061250687, 0
584, 185545392, -0.83499354, 0.1630468, 0.40931326, -0.329643, 1.2466183, -0.7822769, 0.036764145, 0
585, 185562059, -0.8363468, 0.17148946, 0.39837387, -0.33528197, 1.1927594, -0.26951885, -0.09830761, 0
586, 185578726, -0.83744645, 0.17918125, 0.38767982, -0.34100145, 1.2777413, -0.5511102, -0.27105427, 0
587, 185595393, -0.8378451, 0.18621406, 0.3778892, -0.34718862, 1.1718105, -0.9623975, -0.4494877, 0
588, 185612060, -0.8375859, 0.19291396, 0.3688503, -0.35381317, 0.8120608, -1.167219, -0.53948784, 0
589, 185628727, -0.83677995, 0.19836968, 0.36027756, -0.36145377, 0.76199657, -1.128904, -0.62142944, 0
590, 185645394, -0.83548516, 0.2018132, 0.35223955, -0.37035573, 1.121153, -1.0903621, -0.5080805, 0
591, 185662061, -0.83368844, 0.2026322, 0.34524682, -0.3804057, 1.3120953, -0.9492212, -0.5204725, 0
592, 185678728, -0.83136016, 0.20135756, 0.33967194, -0.3910478, 1.4792206, -0.76270777, -0.8237381, 0
593, 185695395, -0.82849514, 0.19816737, 0.3353773, -0.40230298, 1.2158314, -0.48208794, -1.3024559, 0
594, 185712062, -0.82489544, 0.19407009, 0.33250675, -0.41391274, 1.3138301, -0.3007198, -1.5630093, 0
595, 185728729, -0.8208141, 0.18922412, 0.3305324, -0.42568383, 1.2543033, -0.11224072, -1.7308998, 0
596, 185745396, -0.8164553, 0.18387143, 0.32932174, -0.43719473, 1.0471379, -0.06276423, -1.8305306, 0
597, 185762063, -0.81181514, 0.17813945, 0.32907104, -0.4482576, 0.7213275, 0.116485454, -2.0081735, 0
598, 185778730, -0.80682784, 0.17211922, 0.3300319, -0.45878416, 0.7013074, 0.36520967, -2.1659045, 0
599, 185795397, -0.8016331, 0.16554044, 0.33198825, -0.46879086, 0.95409185, 0.48808357, -2.0233998, 0
600, 185812064, -0.7962627, 0.15739457, 0.33493993, -0.4785478, 0.98236114, 0.24595924, -1.7566996, 0
601, 185828731, -0.7906369, 0.14712898, 0.3388656, -0.4882792, 1.1008402, 0.13233599, -1.6440163, 0
602, 185845398, -0.7847329, 0.13490015, 0.34376913, -0.49781448, 1.2277972, 0.31596282, -1.5785732, 0
603, 185862065, -0.7784361, 0.1208817, 0.3498513, -0.5069805, 1.0270704, 0.34114474, -1.7390757, 0
604, 185878732, -0.77117324, 0.105295256, 0.35767314, -0.51601815, 0.61793643, 0.28167975, -2.1812582, 0
605, 185895399, -0.7626324, 0.089222856, 0.36743695, -0.52480596, 0.36996043, 0.58983135, -2.436051, 0
606, 185912066, -0.752894, 0.07366472, 0.37901583, -0.5329835, 0.34206355, 1.2906586, -2.5109186, 0
607, 185928733, -0.7425523, 0.05943762, 0.3916978, -0.54005194, 0.8249747, 1.8670824, -2.3697305, 0
608, 185945400, -0.73250115, 0.04700459, 0.40464383, -0.545432, 0.9908164, 1.6171583, -1.8676257, 0
609, 185962067, -0.72208494, 0.03533246, 0.41871473, -0.5495663, 0.42155996, 1.1695426, -1.3377228, 0
610, 185978734, -0.71056503, 0.024509542, 0.4347506, -0.55271035, -0.078674324, 1.3978224, -0.81293774, 0
611, 185995401, -0.69858176, 0.015122529, 0.451314, -0.55504096, 0.03375962, 1.7553064, 0.04248905, 0
612, 186012068, -0.68732053, 0.007083619, 0.46657097, -0.5566433, 0.1511113, 1.2150415, 0.89891434, 0
613, 186028735, -0.6758888, -7.591869E-4, 0.48116854, -0.55825704, -0.058105547, 0.20253153, 1.7388735, 0
614, 186045402, -0.6628502, -0.00926298, 0.49590856, -0.5609088, -0.49821037, -0.32970265, 2.5448208, 0
615, 186062069, -0.64912856, -0.01786225, 0.50882244, -0.5651662, -0.44284263, -0.20982288, 3.0220776, 0
616, 186078736, -0.6357538, -0.025819244, 0.51859194, -0.5711505, -0.44023693, -0.6677987, 3.327138, 0
617, 186095403, -0.6220146, -0.03325923, 0.52586925, -0.57918334, -0.52670383, -1.0227935, 3.4727192, 0
618, 186112070, -0.6075693, -0.0407807, 0.53137946, -0.588925, -0.16281801, -1.0275308, 3.668271, 0
619, 186128737, -0.59325385, -0.047599122, 0.53523463, -0.5994232, -0.33891806, -0.7083269, 3.2951698, 0
620, 186145404, -0.5796453, -0.052411962, 0.53814715, -0.609641, -1.1156808, -0.0948138, 2.590129, 0
621, 186162071, -0.5675036, -0.053819977, 0.5400278, -0.6192036, -1.7903982, 0.66279155, 2.087225, 0
622, 186178738, -0.55683637, -0.05280228, 0.5410874, -0.6279885, -1.9069825, 0.53632915, 1.8437023, 0
623, 186195405, -0.5475529, -0.049484964, 0.5424105, -0.6352385, -1.4279983, 0.48917633, 1.282527, 0
624, 186212072, -0.53930515, -0.043408696, 0.54586846, -0.63976043, -1.6112609, 0.2579447, 0.3954954, 0
625, 186228739, -0.53138435, -0.03632172, 0.55098695, -0.6424369, -2.6312938, 0.69681334, 0.018550873, 0
626, 186245406, -0.5256475, -0.028168447, 0.5547022, -0.6443654, -2.7931974, 1.229118, -0.27614307, 0
627, 186262073, -0.52217245, -0.019425195, 0.55718315, -0.6453725, -2.418374, 0.7982327, -0.6904774, 0
628, 186278740, -0.51980656, -0.010804034, 0.55993974, -0.64509845, -2.5170665, 0.583732, -1.0432978, 0
629, 186295407, -0.51861376, -0.0015807317, 0.5632927, -0.6432252, -2.2937012, 0.82497203, -1.1750879, 0
630, 186312074, -0.5186986, 0.008127161, 0.5674056, -0.6394817, -2.4371068, 0.9940636, -1.2329168, 0
631, 186328741, -0.5206952, 0.018755898, 0.571305, -0.6341416, -2.499056, 1.3233067, -1.1166945, 0
632, 186345408, -0.5244014, 0.03015117, 0.57520235, -0.6270857, -2.4280605, 1.036547, -1.0798435, 0
633, 186362075, -0.5293179, 0.042211335, 0.5799418, -0.61782557, -2.39408, 1.0482037, -0.9294777, 0
634, 186378742, -0.5361119, 0.055113927, 0.5842757, -0.60676897, -2.0245552, 1.1858451, -0.60725594, 0
635, 186395409, -0.54475915, 0.06806827, 0.58719695, -0.5948141, -2.0095124, 1.2136595, -0.27985764, 0
636, 186412076, -0.5547248, 0.081037015, 0.5889819, -0.58207715, -1.8279183, 0.96337336, -0.05377102, 0
637, 186428743, -0.5654728, 0.09351787, 0.59012634, -0.5685473, -1.5548799, 0.7574502, 0.1495552, 0
638, 186445410, -0.5768586, 0.10571838, 0.59056944, -0.5543337, -1.1987216, 0.84490603, 0.37748528, 0
639, 186462077, -0.5890404, 0.11786956, 0.5897708, -0.5397303, -0.7830517, 0.9006658, 0.75567055, 0
640, 186478744, -0.6020124, 0.12928446, 0.5876948, -0.52486336, -0.52289516, 0.49892798, 1.1000471, 0
641, 186495411, -0.61508167, 0.1383974, 0.5845634, -0.5106923, -0.32002205, 0.037223514, 1.2882862, 0
642, 186512078, -0.62798303, 0.14575475, 0.58065516, -0.4972249, -0.15027492, -0.10469123, 1.4970703, 0
643, 186528745, -0.6412146, 0.15248807, 0.5758146, -0.48376554, -0.37719196, -0.28332022, 1.5354204, 0
644, 186545412, -0.6543353, 0.15709257, 0.56952417, -0.47202712, -0.020558722, -0.106493086, 1.3252945, 0
645, 186562079, -0.66810447, 0.1594934, 0.5612322, -0.4617538, 0.70433134, -0.25223818, 1.2572145, 0
646, 186578746, -0.68217313, 0.15958382, 0.55172735, -0.45251504, 0.7747455, -0.692971, 1.0813236, 0
647, 186595413, -0.6954001, 0.15790094, 0.54250324, -0.44404528, 0.6294223, -0.941627, 0.58759785, 0
648, 186612080, -0.70710576, 0.15487425, 0.53389746, -0.43699995, 0.9326114, -0.33123916, 0.45041084, 0
649, 186628747, -0.71869963, 0.15109512, 0.5248638, -0.43030146, 1.3500096, -0.4401253, 0.2723055, 0
650, 186645414, -0.72904694, 0.14727013, 0.517417, -0.4231808, 0.7855021, -0.6822403, -0.26255703, 0
651, 186662081, -0.7373773, 0.14704305, 0.51262724, -0.41456795, 0.07094458, 0.348268, -0.37984467, 0
652, 186678748, -0.7453692, 0.15097368, 0.50812155, -0.40428254, 0.2506273, 1.1807977, -0.18321419, 0
653, 186695415, -0.7537029, 0.15894067, 0.5029339, -0.39208114, 1.1021655, 0.7845657, 0.523509, 0
654, 186712082, -0.7616505, 0.17104188, 0.49785993, -0.37784755, 0.5982056, -0.17584223, 1.2083216, 0
655, 186728749, -0.7687049, 0.1858721, 0.4929168, -0.36273637, -0.056012347, -0.5895838, 1.9615211, 0
656, 186745416, -0.7758253, 0.20133379, 0.48635972, -0.34787083, 0.11419813, -1.0833513, 2.3418198, 0
657, 186762083, -0.7827916, 0.2146194, 0.47831804, -0.33524287, 0.24669527, -2.3459706, 2.4071808, 0
658, 186778750, -0.78947186, 0.22421712, 0.46903545, -0.32629257, -0.41337246, -2.9206953, 2.398757, 0
659, 186795417, -0.7957303, 0.22969432, 0.45899224, -0.3215278, -0.7211784, -2.4685905, 1.8565454, 0
660, 186812084, -0.8016986, 0.2333766, 0.44817623, -0.31930074, -0.57026625, -0.9806633, 1.0943422, 0
661, 186828751, -0.8076453, 0.23704125, 0.4362971, -0.31806538, 0.1517691, -0.27808008, 0.6376867, 0
662, 186845418, -0.81319094, 0.2422126, 0.42399582, -0.31667218, 0.53064525, -0.2087222, 0.66736126, 0
663, 186862085, -0.81833214, 0.24973829, 0.41132995, -0.31427905, 0.8057651, -0.25853094, 0.6987629, 0
664, 186878752, -0.8229194, 0.25888687, 0.39855492, -0.3113444, 0.78871596, -0.65491956, 0.3367529, 0
665, 186895419, -0.8264494, 0.2691114, 0.38629824, -0.30876237, 0.67353106, -1.1876917, 0.13388348, 0
666, 186912086, -0.82872766, 0.28068745, 0.37437534, -0.3070315, 0.8273515, -1.3904191, 0.33117008, 0
667, 186928753, -0.8301981, 0.29315442, 0.36208355, -0.30614915, 0.7995235, -1.7507318, 0.5064707, 0
668, 186945420, -0.8308172, 0.30515987, 0.35015354, -0.30661547, 0.5016212, -1.9252874, 0.5341425, 0
669, 186962087, -0.83080304, 0.31601757, 0.33852816, -0.30870354, 0.7671394, -1.958756, 0.64043236, 0
670, 186978754, -0.8306647, 0.3254707, 0.32657132, -0.3121158, 0.71097237, -1.8451792, 0.7054777, 0
671, 186995421, -0.83051616, 0.3327962, 0.31454936, -0.31709367, 0.61464965, -1.8446741, 0.72122955, 0
672, 187012088, -0.83043367, 0.3374494, 0.30275413, -0.32380226, 0.61512417, -1.7425253, 0.507473, 0
673, 187028755, -0.8306131, 0.33953846, 0.2908143, -0.33199838, 0.84435594, -1.4616998, 0.23803616, 0
674, 187045422, -0.83143836, 0.33886632, 0.2780414, -0.34142828, 0.79637754, -1.3582562, 0.07381344, 0
675, 187062089, -0.8328124, 0.33513743, 0.26484433, -0.3520852, 0.7964931, -1.3425304, -0.054831505, 0
676, 187078756, -0.83423626, 0.32948092, 0.25178552, -0.3634511, 0.99655753, -1.2536165, -0.3619604, 0
677, 187095423, -0.8351797, 0.32302767, 0.23931637, -0.375308, 1.1417776, -1.1643713, -1.0459194, 0
678, 187112090, -0.8355577, 0.31562307, 0.22775194, -0.38775575, 1.1841234, -1.3466282, -1.857296, 0
679, 187128757, -0.83498836, 0.30814105, 0.21802479, -0.40038574, 1.1384782, -1.4306957, -2.4287782, 0
680, 187145424, -0.8331675, 0.30101812, 0.21110389, -0.41310433, 1.2278478, -1.4090139, -2.6120567, 0
681, 187162091, -0.8300975, 0.29453358, 0.20710833, -0.42578688, 1.0998462, -1.4446418, -2.6744456, 0
682, 187178758, -0.82549566, 0.28828195, 0.20654288, -0.4390791, 0.6902469, -1.256817, -2.8261766, 0
683, 187195425, -0.81950694, 0.28221816, 0.20854864, -0.45306584, 0.82465005, -1.0245296, -3.0423846, 0
684, 187212092, -0.8126511, 0.27649274, 0.2120537, -0.46710107, 1.0081362, -0.7909118, -3.0041122, 0
685, 187228759, -0.8052685, 0.27062735, 0.2168037, -0.48093638, 0.99662864, -0.60253036, -2.7877355, 0
686, 187245426, -0.7972297, 0.2645369, 0.22348231, -0.4944703, 0.78252375, -0.4104288, -2.456101, 0
687, 187262093, -0.7883293, 0.25813088, 0.2327836, -0.5076587, 0.6724238, -0.22537906, -2.0631475, 0
688, 187278760, -0.7785874, 0.2505764, 0.24462721, -0.5207406, 0.28963134, -0.20092161, -1.8575792, 0
689, 187295427, -0.76818883, 0.24150348, 0.258022, -0.5338414, 0.22559822, -0.14653632, -1.8406057, 0
690, 187312094, -0.7571932, 0.23183227, 0.2723005, -0.5465938, 0.62691385, -0.063496456, -1.6094713, 0
691, 187328761, -0.74573225, 0.22179319, 0.28712973, -0.55879146, 0.90881354, 0.14166653, -1.0454941, 0
692, 187345428, -0.733845, 0.21131177, 0.30234477, -0.5704441, 0.93175936, 0.5921321, -0.7378416, 0
693, 187362095, -0.72177935, 0.19922118, 0.31732878, -0.58193475, 0.795439, 0.5174479, -0.67206764, 0
694, 187378762, -0.70875394, 0.18514834, 0.33317536, -0.59361815, 0.620204, 0.43382144, -0.9107752, 0
695, 187395429, -0.69433427, 0.17069463, 0.35091555, -0.6046666, 0.3739204, 0.7930748, -0.9135256, 0
696, 187412096, -0.6786272, 0.1563132, 0.3695446, -0.6151978, 0.41930965, 1.4920683, -0.46381283, 0
697, 187428763, -0.6631394, 0.14354199, 0.38664854, -0.62461585, 0.48276138, 1.8906538, 0.35648537, 0
698, 187445430, -0.6478424, 0.13184744, 0.40228975, -0.6333085, 0.017840357, 1.4206414, 1.2082825, 0
699, 187462097, -0.6308548, 0.11977639, 0.41794983, -0.64264596, -0.2331562, 1.190102, 1.7298632, 0
700, 187478764, -0.6130635, 0.10840265, 0.43226516, -0.6523412, -0.16778626, 1.29906, 2.3610764, 0
701, 187495431, -0.5957879, 0.098250695, 0.4443267, -0.66178346, -0.6646372, 0.7109651, 2.8423033, 0
702, 187512098, -0.5776383, 0.08817876, 0.4551461, -0.6718635, -0.91623795, 0.25940388, 3.0566463, 0
703, 187528765, -0.5589067, 0.07903912, 0.46484038, -0.68212885, -0.7162844, 0.49153635, 3.1438103, 0
704, 187545432, -0.54052, 0.0708941, 0.47297537, -0.69217515, -0.8866234, 0.6031732, 3.0436478, 0
705, 187562099, -0.5226094, 0.063959055, 0.47966272, -0.7019347, -1.1998891, 0.8153537, 2.6404629, 0
706, 187578766, -0.50517213, 0.0584291, 0.484693, -0.71166, -1.7198063, 0.82846004, 2.4900627, 0
707, 187595433, -0.488494, 0.05466731, 0.48895052, -0.7206334, -2.1156557, 0.49527743, 2.2866297, 0
708, 187612100, -0.47295234, 0.052861415, 0.49257976, -0.72862005, -2.4925919, 0.43460423, 1.75628, 0
709, 187628767, -0.45885977, 0.05292466, 0.49546686, -0.7356354, -2.6020973, 0.2436018, 1.1480131, 0
710, 187645434, -0.4460883, 0.05416752, 0.49803838, -0.74163926, -2.5908554, 0.12107532, 0.5640907, 0
711, 187662101, -0.43486837, 0.056402866, 0.49987566, -0.74688196, -2.6028302, 0.13868898, 0.18965054, 0
712, 187678768, -0.4254462, 0.059345156, 0.50077593, -0.7514635, -2.681835, -0.13595495, -0.11549759, 0
713, 187695435, -0.41792384, 0.062605835, 0.50070393, -0.75545746, -2.5588272, -0.26308605, -0.2833395, 0
714, 187712102, -0.41193792, 0.06566353, 0.49998522, -0.7589537, -2.3828719, -0.35581845, -0.48058605, 0
715, 187728769, -0.40767196, 0.06910007, 0.49906406, -0.7615539, -2.1619835, 0.027625531, -0.714694, 0
716, 187745436, -0.40487427, 0.07286566, 0.49788585, -0.76346403, -2.1833518, -0.2764147, -1.0657835, 0
717, 187762103, -0.40323997, 0.07684637, 0.49710444, -0.7644473, -2.304888, -0.29990202, -1.4055595, 0
718, 187778770, -0.40318868, 0.08169392, 0.49693426, -0.76408225, -2.433104, -0.05207195, -1.6945152, 0
719, 187795437, -0.40498987, 0.08753551, 0.49724844, -0.76227605, -2.3709798, 0.19029494, -1.8586268, 0
720, 187812104, -0.40844524, 0.09409407, 0.49843022, -0.7588717, -2.2889626, 0.22472449, -1.9354153, 0
721, 187828771, -0.4128724, 0.10031592, 0.5006635, -0.75419444, -2.2409368, 0.26445723, -1.9798756, 0
722, 187845438, -0.4182876, 0.106389634, 0.50386375, -0.7482233, -2.0955198, 0.5504344, -1.973712, 0
723, 187862105, -0.42507356, 0.11267313, 0.5074961, -0.7409892, -1.8485358, 0.8383417, -1.8006239, 0
724, 187878772, -0.4332872, 0.11957811, 0.51149017, -0.7323532, -1.6491631, 0.85835177, -1.5019884, 0
725, 187895439, -0.4424816, 0.12678786, 0.5162557, -0.7222292, -1.5572716, 0.642588, -1.0494146, 0
726, 187912106, -0.45240363, 0.13360916, 0.5213512, -0.7111067, -1.4550276, 0.5985734, -0.68559074, 0
727, 187928773, -0.46293065, 0.13978387, 0.52645195, -0.6992884, -1.4107174, 0.6399547, -0.4424162, 0
728, 187945440, -0.47385985, 0.14534087, 0.5311346, -0.6871892, -1.2448186, 0.896584, -0.31526184, 0
729, 187962107, -0.48540598, 0.15066808, 0.53576326, -0.6742684, -1.1528698, 0.88924533, -0.2540226, 0
730, 187978774, -0.49727714, 0.15525329, 0.5404169, -0.660728, -1.0592563, 0.7477894, -0.2806797, 0
731, 187995441, -0.50918335, 0.15986674, 0.54594964, -0.6458436, -0.8578948, 0.6282038, -0.31809902, 0
732, 188012108, -0.5217229, 0.16246174, 0.5497557, -0.6318071, -0.7889053, 0.8931563, -0.3616848, 0
733, 188028775, -0.5352315, 0.1644126, 0.5523265, -0.6176012, -0.12553047, 0.9562079, 0.14873219, 0
734, 188045442, -0.54900503, 0.16590522, 0.5548699, -0.60265094, -0.37256637, 0.59319496, 0.21214962, 0
735, 188062109, -0.56284267, 0.1658241, 0.55695885, -0.58779883, -0.57302064, 0.5058864, 0.09688473, 0
736, 188078776, -0.5766177, 0.1635797, 0.5584023, -0.5735334, -0.46429497, 0.6530158, 0.08685589, 0
737, 188095443, -0.5908132, 0.15971448, 0.558571, -0.5598479, -0.14616808, 1.008681, 0.28318977, 0
738, 188112110, -0.604956, 0.15502697, 0.55842465, -0.54603755, -0.13925773, 0.5885913, 0.30695915, 0
739, 188128777, -0.61849785, 0.1507306, 0.55904114, -0.53123796, -0.50693923, 0.55405796, 0.058419228, 0
740, 188145444, -0.63193476, 0.14665201, 0.5595957, -0.5157563, -0.27756152, 0.87679994, 0.14947033, 0
741, 188162111, -0.6452246, 0.1420617, 0.5599468, -0.49996337, 0.113482445, 0.87119687, 0.3437748, 0
742, 188178778, -0.6583202, 0.13683209, 0.5600804, -0.4839438, 0.36590993, 0.71143687, 0.68986225, 0
743, 188195445, -0.67136073, 0.13081817, 0.55973077, -0.46782792, 0.07650625, 0.38383466, 0.82431126, 0
744, 188212112, -0.6837609, 0.12333688, 0.5593297, -0.45211655, 0.10359736, 0.46364248, 0.76097965, 0
745, 188228779, -0.6952524, 0.11446809, 0.5591203, -0.43692747, 0.6842424, 0.8474104, 1.1274376, 0
746, 188245446, -0.7065993, 0.10452695, 0.55900836, -0.42107186, 1.0711143, 0.1781425, 1.4156275, 0
747, 188262113, -0.7171498, 0.0926453, 0.5600455, -0.40430447, 0.53519464, -0.6682706, 0.7151871, 0
748, 188278780, -0.72633654, 0.07925481, 0.5620342, -0.38764885, 0.35650718, -0.4609855, -0.066945076, 0
749, 188295447, -0.73459154, 0.066784285, 0.5640895, -0.37110412, 0.03582287, 0.4423198, 0.16028023, 0
750, 188312114, -0.7425579, 0.055693634, 0.5656623, -0.3543053, 0.32832175, 0.6720299, 1.0318604, 0
751, 188328781, -0.75028497, 0.043514237, 0.56682914, -0.33746672, 0.6965656, -0.15394974, 1.2510662, 0
752, 188345448, -0.75724685, 0.031223413, 0.5688585, -0.3193782, 0.26317444, 0.13093956, 1.0265169, 0
753, 188362115, -0.76389587, 0.021268785, 0.57128334, -0.29941025, 0.32678667, 0.44051895, 1.1288662, 0
754, 188378782, -0.77103966, 0.012890604, 0.5725101, -0.27850288, 0.50754654, -0.28803897, 1.1622314, 0
755, 188395449, -0.77786213, 0.0045028683, 0.5730085, -0.25801516, 0.20383443, -0.95136803, 1.1786985, 0
756, 188412116, -0.7837936, -0.004489566, 0.573298, -0.2386988, -0.25905195, -0.92948186, 1.4119949, 0
757, 188428783, -0.7890364, -0.013589435, 0.5733399, -0.22026877, -0.25952223, -0.4421762, 1.7426472, 0
758, 188445450, -0.7939848, -0.02261268, 0.57304156, -0.20174277, -0.15601964, -0.2619077, 1.7435856, 0
759, 188462117, -0.79860896, -0.031194836, 0.57250726, -0.18299222, 0.27640283, -0.20832603, 1.6284714, 0
760, 188478784, -0.8032995, -0.03878042, 0.5712539, -0.16393623, 0.5053337, -0.34659055, 1.4869967, 0
761, 188495451, -0.8079161, -0.044676565, 0.5695712, -0.14444503, 0.32886043, -0.636193, 1.5719233, 0
762, 188512118, -0.81235325, -0.047681987, 0.56774634, -0.12438996, 0.33810002, -1.1253266, 1.8089657, 0
763, 188528785, -0.8169872, -0.048267744, 0.5651069, -0.10419359, 0.63911384, -1.7993519, 1.7921896, 0
764, 188545452, -0.8219067, -0.04741659, 0.5612722, -0.08481967, 0.683883, -2.125636, 1.360652, 0
765, 188562119, -0.826964, -0.044910688, 0.5564553, -0.066867344, 0.7180979, -2.8609524, 0.7891283, 0
766, 188578786, -0.83223003, -0.04070714, 0.5505805, -0.050964303, 0.5747345, -3.8097851, 0.29544258, 0
767, 188595453, -0.837422, -0.035536367, 0.5440953, -0.037709653, 0.047953364, -4.3721814, 0.034047127, 0
768, 188612120, -0.84237814, -0.030363072, 0.5373401, -0.027253203, -0.56453025, -4.397073, 0.05119896, 0
769, 188628787, -0.8468241, -0.026113084, 0.5308616, -0.01982724, -0.8117754, -3.9428744, -0.037089348, 0
770, 188645454, -0.8512875, -0.022349156, 0.5239962, -0.015438032, -0.66336054, -3.6653075, 0.13368511, 0
771, 188662121, -0.8561988, -0.018358191, 0.51614, -0.013645476, -0.54608554, -3.6741524, 0.3257408, 0
772, 188678788, -0.8614073, -0.014291917, 0.5075213, -0.013989734, -0.4827053, -3.535625, 0.4121399, 0
773, 188695455, -0.8666934, -0.010600942, 0.4984621, -0.016312094, -0.474096, -3.1502903, 0.37367153, 0
774, 188712122, -0.8719151, -0.0070673665, 0.48917902, -0.020447994, -0.49553806, -2.9519925, 0.32969952, 0
775, 188728789, -0.87691337, -0.0033993772, 0.47990307, -0.026542153, -0.43532902, -2.7792392, 0.19933128, 0
776, 188745456, -0.8817486, 6.0114404E-4, 0.47044298, -0.03467825, -0.12284853, -2.7157362, -0.051999092, 0
777, 188762123, -0.8863843, 0.0045009227, 0.4607217, -0.045147337, 0.105529405, -2.7457411, -0.35525322, 0
778, 188778790, -0.8905235, 0.0077881, 0.45116526, -0.05794048, 0.25439864, -2.7821603, -0.75351334, 0
779, 188795457, -0.8938974, 0.010390269, 0.44213688, -0.07317747, 0.5445891, -2.6685843, -1.0182028, 0
780, 188812124, -0.8964071, 0.012740249, 0.43367696, -0.090644374, 0.87864465, -2.43276, -1.1054964, 0
781, 188828791, -0.89782476, 0.014974318, 0.4260586, -0.11027604, 1.4321762, -2.1543028, -1.1411762, 0
782, 188845458, -0.8980384, 0.017610615, 0.41942593, -0.13152522, 1.7630174, -1.7585956, -1.1303759, 0
783, 188862125, -0.8969894, 0.020778242, 0.41377068, -0.15418217, 2.2409294, -1.3458618, -1.0328064, 0
784, 188878792, -0.89476633, 0.02474136, 0.40890673, -0.17769824, 2.535569, -1.0854024, -1.0029259, 0
785, 188895459, -0.89110905, 0.029426847, 0.40539747, -0.20177111, 2.5400407, -0.86923933, -0.90443134, 0
786, 188912126, -0.8859768, 0.034805372, 0.4033918, -0.22607258, 2.5787086, -0.64321834, -0.69761276, 0
787, 188928793, -0.8794049, 0.04062715, 0.40298605, -0.25019735, 2.5652912, -0.45088083, -0.57562065, 0
788, 188945460, -0.8717051, 0.046171587, 0.40372178, -0.27387428, 2.4480944, -0.44372016, -0.43781853, 0
789, 188962127, -0.86287916, 0.050518885, 0.40560153, -0.2972796, 2.251369, -0.46774203, -0.33253193, 0
790, 188978794, -0.85269976, 0.052413967, 0.40858054, -0.32127538, 2.3677354, -0.5839284, -0.21317768, 0
791, 188995461, -0.8410188, 0.0509365, 0.41259605, -0.34620434, 2.3358877, -0.52476966, -0.16807652, 0
792, 189012128, -0.82769233, 0.045993447, 0.41758025, -0.3720711, 2.4701416, -0.12814508, -0.25362587, 0
793, 189028795, -0.81285024, 0.038674228, 0.42317697, -0.39837205, 2.6608288, 0.381886, -0.3664875, 0
794, 189045462, -0.7966473, 0.029836405, 0.42892328, -0.42483854, 2.578292, 0.9792874, -0.39946365, 0
795, 189062129, -0.7793117, 0.019569421, 0.43438536, -0.45122045, 2.1905682, 1.5032564, -0.56245136, 0
796, 189078796, -0.761054, 0.008936836, 0.4399488, -0.47661528, 1.3932105, 2.2595615, -0.75384617, 0
797, 189095463, -0.74212295, -0.0011633057, 0.44548383, -0.500796, 1.0870495, 2.8269577, -0.8439846, 0
798, 189112130, -0.7229167, -0.01027376, 0.45078194, -0.52352804, 1.0139073, 2.841263, -0.7620878, 0
799, 189128797, -0.70297635, -0.018870855, 0.4567013, -0.5448782, 0.57242274, 2.588096, -0.53528595, 0
800, 189145464, -0.68191135, -0.027650489, 0.46340093, -0.5652361, -0.16163003, 2.6019237, -0.39967346, 0
801, 189162131, -0.6597119, -0.0365322, 0.4707217, -0.5846937, -0.91214365, 2.7785153, -0.72795105, 0
802, 189178798, -0.6363205, -0.0451716, 0.4784776, -0.6034196, -1.3770534, 3.0437808, -0.9904747, 0
803, 189195465, -0.61225235, -0.052264303, 0.48652706, -0.62105334, -1.623327, 3.2520328, -0.5675764, 0
804, 189212132, -0.58814114, -0.05656349, 0.49607557, -0.6362387, -1.9828217, 2.912784, 0.24837017, 0
805, 189228799, -0.5650373, -0.058899947, 0.5071888, -0.6480921, -2.4388742, 1.9967039, 0.69540596, 0
806, 189245466, -0.54316133, -0.061422292, 0.5185578, -0.657496, -2.8151395, 1.1714476, 0.5937853, 0
807, 189262133, -0.5219797, -0.064640224, 0.5296412, -0.6654616, -2.9950194, 0.46119598, 0.86711025, 0
808, 189278800, -0.5013631, -0.06897515, 0.5394274, -0.6729752, -3.3165455, -0.16626598, 1.016882, 0
809, 189295467, -0.4812407, -0.074586004, 0.54669374, -0.68115366, -3.3627257, -0.08728455, 1.2164583, 0
810, 189312134, -0.4622855, -0.08115014, 0.55007374, -0.69074297, -3.0151496, -0.4447501, 1.6271315, 0
811, 189328801, -0.44414398, -0.089553796, 0.54968697, -0.7018267, -2.7928631, -0.8949943, 1.6156893, 0
812, 189345468, -0.42721018, -0.09879869, 0.5459041, -0.71394616, -2.660787, -0.9520892, 1.6568451, 0
813, 189362135, -0.41112128, -0.10774962, 0.5407492, -0.72591996, -3.1879842, -0.7659141, 1.1855469, 0
814, 189378802, -0.39653507, -0.11536125, 0.5363932, -0.7360259, -4.3305454, -0.23874839, 0.5882969, 0
815, 189395469, -0.3856869, -0.11962418, 0.5331034, -0.74346256, -5.3759336, 0.4523215, 0.2491312, 0
816, 189412136, -0.37974775, -0.11930095, 0.5315128, -0.7476986, -5.6072197, 0.8100937, -0.48689175, 0
817, 189428803, -0.37727448, -0.115127474, 0.5327095, -0.7487526, -5.3157883, 0.49670547, -1.6203108, 0
818, 189445470, -0.3763652, -0.10937625, 0.5378258, -0.7464111, -5.2015667, -0.013295333, -2.191493, 0
819, 189462137, -0.37787595, -0.10193689, 0.5467016, -0.74022704, -5.4368544, 0.06861669, -1.8652592, 0
820, 189478804, -0.3831992, -0.091713816, 0.5572975, -0.7308668, -5.4260693, 0.5984131, -1.1284094, 0
821, 189495471, -0.3921983, -0.07953431, 0.56760246, -0.7195014, -4.848208, 0.6716061, -0.44517708, 0
822, 189512138, -0.4037348, -0.06764745, 0.57663614, -0.7070454, -3.8746042, 0.3812222, 0.04142475, 0
823, 189528805, -0.41681108, -0.057731796, 0.58377475, -0.6943651, -3.1385698, 0.27974674, 0.30673027, 0
824, 189545472, -0.43084008, -0.049789418, 0.58913517, -0.6817754, -2.9777296, 0.44654912, 0.052714348, 0
825, 189562139, -0.4456701, -0.043183595, 0.59354264, -0.6687454, -3.0978606, 1.0071297, -0.1531105, 0
826, 189578806, -0.461936, -0.036229473, 0.5978232, -0.65414846, -3.1315327, 1.6406963, -0.20701218, 0
827, 189595473, -0.4803279, -0.027651116, 0.60213816, -0.6371423, -2.9495718, 2.067807, -0.3321705, 0
828, 189612140, -0.50084215, -0.017408114, 0.6060648, -0.61768883, -2.679936, 2.3841047, -0.20755768, 0
829, 189628807, -0.52325684, -0.006597435, 0.6088437, -0.5962113, -2.0703444, 2.58208, 0.30831814, 0
830, 189645474, -0.5471666, 0.0044390047, 0.61015505, -0.5729747, -1.0740262, 2.626065, 1.0413055, 0
831, 189662141, -0.57130826, 0.0153451, 0.61037093, -0.5484695, -0.34296432, 2.1783795, 1.6896267, 0
832, 189678808, -0.5954016, 0.024949271, 0.60890454, -0.5235552, -0.02293824, 1.3700068, 1.895813, 0
833, 189695475, -0.6193064, 0.032317504, 0.6043209, -0.5002113, 1.0830312, 1.530394, 2.3990688, 0
834, 189712142, -0.64454937, 0.03882634, 0.5957162, -0.47767255, 2.4393764, 0.84845746, 2.4579763, 0
835, 189728809, -0.6687258, 0.042500705, 0.5858989, -0.4557654, 2.1882038, -0.942823, 1.7443457, 0
836, 189745476, -0.68930423, 0.042282563, 0.5772059, -0.43578142, 2.0078359, -1.3925097, 1.5398169, 0
837, 189762143, -0.7073323, 0.039893933, 0.56905925, -0.41744632, 1.7885998, -0.9047648, 1.229312, 0
838, 189778810, -0.7237993, 0.037000775, 0.56122357, -0.39971706, 1.3088597, 0.016662555, 0.98416996, 0
839, 189795477, -0.73867655, 0.03435688, 0.55402553, -0.3824035, 1.3262848, 0.9473855, 0.9558363, 0
840, 189812144, -0.7530872, 0.03398168, 0.546656, -0.36451668, 2.0800064, 1.034457, 0.70790386, 0
841, 189828811, -0.76685876, 0.037454702, 0.53979486, -0.3451761, 2.0541863, 0.345018, 0.4136572, 0
842, 189845478, -0.77966386, 0.04708366, 0.53372353, -0.32410917, 2.1085072, 0.27032018, 0.78170013, 0
843, 189862145, -0.79163754, 0.062089838, 0.52750534, -0.30198213, 2.0179908, -0.081643835, 1.0604849, 0
844, 189878812, -0.8030089, 0.08123627, 0.5202037, -0.27922335, 2.50835, -1.4794925, 1.3444309, 0
845, 189895479, -0.81308407, 0.103357986, 0.5123177, -0.25640205, 1.6184596, -2.9558535, 1.540699, 0
846, 189912146, -0.82165444, 0.12505814, 0.50357395, -0.23591883, 0.6839309, -3.2842755, 1.7107525, 0
847, 189928813, -0.829558, 0.14320415, 0.49314478, -0.21939574, 0.44460124, -3.1398845, 1.484232, 0
848, 189945480, -0.8370192, 0.15794876, 0.48117694, -0.20717105, 0.86257005, -3.5164945, 1.169096, 0
849, 189962147, -0.84393793, 0.1699033, 0.46828973, -0.19901405, 0.39706272, -4.215773, 0.92395496, 0
850, 189978814, -0.8498778, 0.17811398, 0.45571503, -0.19572295, 0.38233656, -4.385981, 0.69235325, 0
851, 189995481, -0.85508764, 0.18309686, 0.4435059, -0.19647716, 0.8204271, -3.8738832, 0.5750675, 0
852, 190012148, -0.85976195, 0.18500756, 0.43177852, -0.20037241, 1.3966637, -3.45914, 0.07067776, 0
853, 190028815, -0.8637964, 0.18502116, 0.42068705, -0.20650744, 1.8337343, -3.5413842, -0.4014988, 0
854, 190045482, -0.8666592, 0.18394537, 0.4110947, -0.21463306, 1.9791077, -3.8833008, -0.8355856, 0
855, 190062149, -0.86806834, 0.18327744, 0.40320644, -0.22425823, 1.9960554, -3.7348363, -1.3264551, 0
856, 190078816, -0.86788934, 0.18387662, 0.396898, -0.23543485, 2.0097368, -3.2608268, -1.7554522, 0
857, 190095483, -0.86642474, 0.18589613, 0.39122474, -0.24838318, 2.3183863, -3.1083362, -1.9608269, 0
858, 190112150, -0.8633162, 0.18976453, 0.38647336, -0.2632736, 2.5777595, -3.3447633, -1.5487385, 0
859, 190128817, -0.8580626, 0.1950054, 0.38383216, -0.27995414, 2.5860515, -3.147098, -0.7536211, 0
860, 190145484, -0.8510141, 0.20036231, 0.38339657, -0.2977198, 2.7080884, -2.5628464, -0.40923405, 0
861, 190162151, -0.84279805, 0.2048444, 0.38456193, -0.31597832, 2.8627427, -2.096339, -0.33104324, 0
862, 190178818, -0.8338327, 0.20772663, 0.38665974, -0.3347641, 2.8432205, -1.9737253, -0.1966114, 0
863, 190195485, -0.8243601, 0.20811574, 0.38913998, -0.35452592, 2.7461731, -1.9507205, 0.03570938, 0
864, 190212152, -0.8146035, 0.20464538, 0.39170665, -0.3756426, 2.5340674, -1.8990399, 0.15697002, 0
865, 190228819, -0.80423707, 0.19685829, 0.3943561, -0.39866382, 2.5775955, -1.4518453, 0.2760496, 0
866, 190245486, -0.793088, 0.18493898, 0.39665386, -0.4236447, 2.9236727, -1.0179753, 0.3252163, 0
867, 190262153, -0.7808437, 0.16960609, 0.39901617, -0.4497814, 2.9262094, -0.39391264, 0.12336731, 0
868, 190278820, -0.7674598, 0.15217301, 0.4012866, -0.4762542, 2.949828, 0.45207193, -0.29538345, 0
869, 190295487, -0.75281614, 0.13424337, 0.40342516, -0.5024888, 2.9411938, 1.1318338, -0.50634956, 0
870, 190312154, -0.7367316, 0.11635189, 0.4057991, -0.52821994, 2.5974786, 1.543249, -0.5782776, 0
871, 190328821, -0.7188946, 0.09843791, 0.4087522, -0.55355436, 1.9326298, 2.0706074, -0.6433859, 0
872, 190345488, -0.6994472, 0.0814507, 0.41196522, -0.5782942, 1.3395599, 2.7121742, -0.68338585, 0
873, 190362155, -0.6786494, 0.0661706, 0.41530976, -0.6021414, 0.88499373, 2.9819212, -0.70997524, 0
874, 190378822, -0.6569783, 0.052190058, 0.41907743, -0.6245239, 0.3511402, 2.8648515, -0.71066093, 0
875, 190395489, -0.634956, 0.0391403, 0.42336294, -0.64502925, -0.15438554, 2.9473834, -0.5017233, 0
876, 190412156, -0.61299455, 0.027199384, 0.42833215, -0.66334724, -0.7842902, 2.8211117, 0.04769039, 0
877, 190428823, -0.5907946, 0.015573389, 0.43378377, -0.68011105, -1.3727019, 2.3647196, 0.38013554, 0
878, 190445490, -0.5685624, 0.0041994536, 0.43850154, -0.6960141, -1.5522534, 2.063834, 0.6307955, 0
879, 190462157, -0.5465945, -0.0065734377, 0.44181126, -0.7113327, -1.829164, 1.7036715, 0.85361385, 0
880, 190478824, -0.524703, -0.01723201, 0.44371969, -0.72629386, -1.8975705, 1.4705303, 0.9398546, 0
881, 190495491, -0.5025377, -0.028932968, 0.44394746, -0.7413027, -1.5445368, 1.3779805, 0.9286747, 0
882, 190512158, -0.48008206, -0.041521683, 0.44317496, -0.7559056, -1.8194183, 1.0590417, 0.7105198, 0
883, 190528825, -0.4579113, -0.0533899, 0.4423417, -0.7692859, -2.6534472, 1.1784223, 0.54321766, 0
884, 190545492, -0.43656644, -0.06409168, 0.44159254, -0.781216, -3.154084, 1.0191159, 0.6289873, 0
885, 190562159, -0.4164213, -0.0731629, 0.4407972, -0.7917945, -3.3823311, 0.69080794, 0.5867357, 0
886, 190578826, -0.39780793, -0.079976514, 0.43981552, -0.801196, -3.2220674, 0.28371936, 0.45553398, 0
887, 190595493, -0.38024998, -0.085334465, 0.43826425, -0.80997074, -2.8028326, 0.18656386, 0.49376678, 0
888, 190612160, -0.36310986, -0.09025162, 0.43651614, -0.8182053, -2.4828272, 0.045387827, 0.5810785, 0
889, 190628827, -0.34612763, -0.095101, 0.434402, -0.82610327, -2.4806867, 0.021907901, 0.65215015, 0
890, 190645494, -0.32984817, -0.09936016, 0.43197, -0.83350444, -2.5455422, -0.22857907, 0.599576, 0
891, 190662161, -0.31417966, -0.10327259, 0.42993915, -0.84010607, -2.5372868, -0.4751148, 0.3985014, 0
892, 190678828, -0.29945496, -0.10631728, 0.42869854, -0.8457192, -2.7674046, -0.4418361, 0.06226349, 0
893, 190695495, -0.2859293, -0.10793943, 0.42771113, -0.8506803, -3.141686, -0.6742009, -0.1829071, 0
894, 190712162, -0.2734012, -0.10822535, 0.4274951, -0.8548611, -2.846657, -0.54598755, -0.14897537, 0
895, 190728829, -0.26152185, -0.10720209, 0.42813173, -0.8583807, -2.54335, -0.3471961, -0.003545761, 0
896, 190745496, -0.25066715, -0.104786046, 0.42924955, -0.8613542, -2.2708004, -0.38368592, 0.047611237, 0
897, 190762163, -0.24009767, -0.102425575, 0.43161592, -0.8634638, -2.0818539, -0.801124, -0.10577583, 0
898, 190778830, -0.2294098, -0.100391366, 0.43530187, -0.86475724, -2.2125077, -0.8187723, -0.27738, 0
899, 190795497, -0.21940067, -0.09738861, 0.4395888, -0.8655292, -2.3565981, -0.91100854, -0.35828304, 0
900, 190812164, -0.21089606, -0.092892624, 0.4448349, -0.865457, -2.4860692, -0.8462726, -0.42721748, 0
901, 190828831, -0.2032154, -0.087985784, 0.44993848, -0.86516905, -2.1631842, -0.7064639, -0.33506393, 0
902, 190845498, -0.1961886, -0.08286152, 0.45508778, -0.8646035, -1.9893004, -0.5491758, -0.13379478, 0
903, 190862165, -0.18990424, -0.07726846, 0.46097764, -0.8634035, -2.0738938, -0.9366438, -0.21332455, 0
904, 190878832, -0.184002, -0.07182447, 0.46772555, -0.8615204, -2.2406142, -1.0400215, -0.48717022, 0
905, 190895499, -0.17893526, -0.06637749, 0.4746136, -0.85925454, -2.437601, -0.7651715, -0.6164789, 0
906, 190912166, -0.17520772, -0.06021527, 0.4812744, -0.8567681, -2.38545, -0.6840205, -0.55038357, 0
907, 190928833, -0.17274982, -0.05337392, 0.4877363, -0.85406214, -2.1659286, -0.82975215, -0.5641308, 0
908, 190945500, -0.17105225, -0.046290185, 0.4946325, -0.8508449, -1.9414974, -1.0910853, -0.80013084, 0
909, 190962167, -0.17020091, -0.039162535, 0.5023174, -0.846862, -1.8812447, -1.2071974, -1.1371155, 0
910, 190978834, -0.17063586, -0.031937655, 0.5102997, -0.8422931, -1.8947426, -1.0841935, -1.4179296, 0
911, 190995501, -0.17223266, -0.024726877, 0.51811326, -0.83742666, -1.862084, -0.8151303, -1.4377127, 0
912, 191012168, -0.17506453, -0.017613873, 0.525702, -0.8322737, -1.7461871, -0.4830107, -1.3167505, 0
913, 191028835, -0.17893733, -0.010597525, 0.5333197, -0.8267039, -1.6081818, -0.42740935, -1.3752604, 0
914, 191045502, -0.18348216, -0.0040428215, 0.5411199, -0.82067496, -1.47228, -0.5662414, -1.5464735, 0
915, 191062169, -0.18885495, 0.0019575295, 0.5489549, -0.81423503, -1.4484344, -0.6256508, -1.6828299, 0
916, 191078836, -0.19520074, 0.0075688763, 0.5566274, -0.80746865, -1.4978381, -0.6096776, -1.7882996, 0
917, 191095503, -0.20245387, 0.013067238, 0.56487995, -0.79984534, -1.5919933, -0.5427187, -1.8619752, 0
918, 191112170, -0.21077797, 0.018991921, 0.57450414, -0.79066885, -1.5857426, -0.44589728, -1.9653444, 0
919, 191128837, -0.219993, 0.025002336, 0.5857373, -0.7796731, -1.4151633, -0.17850575, -1.8450689, 0
920, 191145504, -0.2297778, 0.029973527, 0.5963364, -0.7685615, -1.668285, 0.4255049, -1.6136341, 0
921, 191162171, -0.24086066, 0.03451068, 0.60469574, -0.75837886, -1.6612898, 1.1856089, -0.8403015, 0
922, 191178838, -0.253536, 0.03949393, 0.61246824, -0.74769145, -1.3392928, 1.0935936, -0.12042713, 0
923, 191195505, -0.2664608, 0.04430763, 0.6209263, -0.73585737, -1.1527252, 0.26472667, -0.022698402, 0
924, 191212172, -0.27898666, 0.047988307, 0.62969273, -0.7234297, -1.1616522, -0.13166696, -0.2148304, 0
925, 191228839, -0.2913857, 0.049958345, 0.63716626, -0.71177083, -1.2462184, 0.24714051, -0.24581528, 0
926, 191245506, -0.30436698, 0.051190168, 0.6431239, -0.70080817, -1.2770131, 0.96309596, 0.16815186, 0
927, 191262173, -0.31828988, 0.05248841, 0.64879024, -0.68920803, -1.1611701, 1.1334033, 0.52987576, 0
928, 191278840, -0.33253837, 0.05331375, 0.6542933, -0.67710876, -1.0382094, 0.8570034, 0.37656593, 0
929, 191295507, -0.34722865, 0.053624514, 0.65889287, -0.6651444, -0.7127883, 0.9339034, 0.27326298, 0
930, 191312174, -0.36286205, 0.053026702, 0.6613954, -0.6542747, -0.5118538, 1.0256119, 0.4108038, 0
931, 191328841, -0.37852407, 0.051752962, 0.6633062, -0.64347994, -0.7413283, 0.78712153, 0.63954735, 0
932, 191345508, -0.39418557, 0.050945006, 0.6657811, -0.63147277, -0.7999102, 0.7963804, 0.72021294, 0
933, 191362175, -0.410593, 0.049765192, 0.6672163, -0.6194831, -0.31120268, 0.9393199, 0.50138855, 0
934, 191378842, -0.42681602, 0.049086966, 0.6698086, -0.6056196, 0.0049937265, 0.8558762, 0.44008636, 0
935, 191395509, -0.44340372, 0.048669886, 0.6728617, -0.59015393, -0.32500616, 0.7380476, 0.25586033, 0
936, 191412176, -0.46015868, 0.04643517, 0.6744712, -0.575488, -0.98963267, 0.9757759, 0.54145813, 0
937, 191428843, -0.47799513, 0.042930372, 0.673952, -0.5616641, -0.8601827, 1.2070522, 1.3042555, 0
938, 191445510, -0.49697798, 0.040376786, 0.67328715, -0.5459553, -0.48859596, 0.46678215, 1.4790154, 0
939, 191462177, -0.51525044, 0.037337586, 0.6731252, -0.52917445, -0.41014224, 0.2359093, 1.0472212, 0
940, 191478844, -0.5335041, 0.032691482, 0.67156106, -0.51313794, -0.4001331, 0.95873994, 1.4945412, 0
941, 191495511, -0.55249435, 0.026658999, 0.66786903, -0.49798614, -0.42133266, 1.1993692, 2.2091217, 0
942, 191512178, -0.5716945, 0.019183852, 0.6623973, -0.48376366, 0.030484037, 1.1325343, 2.6643724, 0
943, 191528845, -0.59019524, 0.011135245, 0.65716606, -0.46869892, 0.5985565, 0.6172046, 2.4402218, 0
944, 191545512, -0.60742056, 0.0033716345, 0.65284723, -0.45256978, 0.8468839, 0.4095841, 2.09206, 0
945, 191562179, -0.6235849, -0.002409854, 0.649218, -0.4354907, 0.92630786, 0.40785423, 2.1109896, 0
946, 191578846, -0.6394182, -0.0064684157, 0.6450986, -0.41827092, 0.86691064, 0.30729464, 2.1105795, 0
947, 191595513, -0.6555415, -0.00962013, 0.6395243, -0.4014745, 1.3115253, 0.114694566, 1.9073849, 0
948, 191612180, -0.67107904, -0.01231119, 0.6333972, -0.38510972, 1.8238661, -0.6480299, 1.2213583, 0
949, 191628847, -0.6842781, -0.014299257, 0.6288123, -0.36899105, 1.6735224, -1.2268758, 0.6455288, 0
950, 191645514, -0.69499534, -0.013572594, 0.6260647, -0.35332754, 1.6454308, -0.62369376, 1.1930017, 0
951, 191662181, -0.70549804, -0.009325081, 0.6232938, -0.33718038, 1.496459, -0.36325982, 1.3616171, 0
952, 191678848, -0.7156634, -0.0030100835, 0.6200622, -0.32146522, 1.6925886, -0.51435924, 1.1032696, 0
953, 191695515, -0.7253525, 0.006255682, 0.61663747, -0.30591336, 1.5620704, -0.8720257, 0.9822626, 0
954, 191712182, -0.73449236, 0.018412627, 0.61288995, -0.29077145, 1.0756172, -1.1390082, 1.0257444, 0
955, 191728849, -0.743848, 0.032790035, 0.60789216, -0.2758301, 0.69507253, -1.114287, 1.3117371, 0
956, 191745516, -0.7533164, 0.047026537, 0.6015389, -0.2616369, 0.19882596, -1.1210309, 1.3868723, 0
957, 191762183, -0.7626386, 0.059458632, 0.5940723, -0.24884742, 0.18742277, -0.7542412, 1.6081419, 0
958, 191778850, -0.7723006, 0.07006462, 0.5854075, -0.23651846, 0.16162087, -0.5197333, 1.5212364, 0
959, 191795517, -0.7815458, 0.079049304, 0.5765003, -0.22491086, 0.13993208, -0.61649626, 1.3126297, 0
960, 191812184, -0.7906516, 0.08704618, 0.56672764, -0.21473871, 0.44981045, -1.3200309, 1.4909983, 0
961, 191828851, -0.7999575, 0.09340825, 0.55552083, -0.20673583, 0.3877923, -2.2956128, 1.2696419, 0
962, 191845518, -0.80852085, 0.09680456, 0.5441591, -0.20202437, 0.12813953, -2.6594484, 0.7849312, 0
963, 191862185, -0.8161282, 0.097873844, 0.5330008, -0.20066342, 0.359268, -2.234102, 0.35497475, 0
964, 191878852, -0.82289064, 0.09857795, 0.52197134, -0.20169094, 0.83684057, -1.5913403, 0.22585106, 0
965, 191895519, -0.82918423, 0.10103495, 0.5107641, -0.20338555, 1.358261, -1.2871014, 0.20064545, 0
966, 191912186, -0.8349446, 0.10614586, 0.49959603, -0.20495029, 1.5176713, -1.108579, 0.08678818, 0
967, 191928853, -0.84020054, 0.114479125, 0.48835972, -0.2060641, 1.7059238, -1.0437255, 0.14043045, 0
968, 191945520, -0.8450996, 0.12600723, 0.47682658, -0.2063139, 1.4625655, -1.4839662, 0.2713232, 0
969, 191962187, -0.84913504, 0.13892962, 0.46558568, -0.20711927, 1.0346576, -1.912978, 0.40559292, 0
970, 191978854, -0.85248244, 0.15206625, 0.45446652, -0.2088296, 0.8141942, -2.0449266, 0.39557934, 0
971, 191995521, -0.85536605, 0.16423208, 0.44356477, -0.21125148, 0.24248965, -2.1089797, 0.01846695, 0
972, 192012188, -0.85627294, 0.17542855, 0.43543777, -0.21544297, 0.10209915, -2.0826602, 0.32175732, 0
973, 192028855, -0.8570873, 0.18782793, 0.4267102, -0.21918225, 0.6307091, -1.880541, 0.3395071, 0
974, 192045522, -0.8553144, 0.19801112, 0.42078143, -0.22841203, 1.3412657, -2.5890224, 1.3149986, 0
975, 192062189, -0.8566396, 0.19897462, 0.40922454, -0.24313194, 2.8898141, -2.1800833, 1.0832977, 0
976, 192078856, -0.8578108, 0.19821206, 0.39741683, -0.25871357, 0.8655921, -1.4893663, 0.28783226, 0
977, 192095523, -0.85756326, 0.19422482, 0.38808516, -0.2761374, 1.4854668, -0.8539348, -0.5701132, 0
978, 192112190, -0.8568163, 0.18992779, 0.37908012, -0.29341376, 2.1500287, -0.25153512, -0.9430008, 0
979, 192128857, -0.8555604, 0.18633978, 0.37033254, -0.31007707, 1.9494934, -0.042847656, -1.6225271, 0
980, 192145524, -0.8534815, 0.18410341, 0.36218745, -0.32633674, 1.9577862, -0.004397617, -1.9946389, 0
981, 192162191, -0.849899, 0.18416794, 0.3556711, -0.34242117, 2.076487, 0.09210689, -1.5311384, 0
982, 192178858, -0.84485406, 0.18574968, 0.35065046, -0.35883573, 2.055756, -0.08677041, -0.95049, 0
983, 192195525, -0.8386374, 0.18747899, 0.3469401, -0.37572792, 1.6323755, -0.43222433, -0.8906803, 0
984, 192212192, -0.83148605, 0.18741994, 0.34431237, -0.3936417, 1.5795504, -0.7705102, -1.2298212, 0
985, 192228859, -0.8230469, 0.18521215, 0.34316853, -0.41294757, 1.9435111, -0.8458695, -1.2392073, 0
986, 192245526, -0.81326795, 0.18119551, 0.34349018, -0.43333393, 2.4592974, -0.55520743, -0.76495266, 0
987, 192262193, -0.802757, 0.17563853, 0.34438273, -0.4540186, 2.4395754, -0.23481858, -0.27758503, 0
988, 192278860, -0.7918297, 0.1683986, 0.34507504, -0.474943, 2.2099323, -0.050950114, 0.104314804, 0
989, 192295527, -0.7803177, 0.15926899, 0.34535366, -0.49645597, 2.0158277, 0.027296854, 0.6095009, 0
990, 192312194, -0.7684234, 0.14776127, 0.3444549, -0.51869375, 2.1800954, 0.1041586, 0.98455906, 0
991, 192328861, -0.7560997, 0.13309163, 0.34200567, -0.54187834, 2.2482636, 0.15332162, 0.9116154, 0
992, 192345528, -0.7428496, 0.115414575, 0.3385782, -0.56587875, 2.349689, 0.59442884, 0.37810898, 0
993, 192362195, -0.7276653, 0.09534959, 0.33419532, -0.5913759, 2.5337584, 1.6851076, -0.024248123, 0
994, 192378862, -0.7119614, 0.07503253, 0.3262041, -0.61731035, 2.384964, 2.3175564, -1.1172733, 0
995, 192395529, -0.69558793, 0.055055633, 0.31990504, -0.6409271, 0.4823109, 1.1481302, -1.8876452, 0
996, 192412196, -0.6770591, 0.035793185, 0.31622365, -0.66356045, 0.48935312, 2.0056167, -2.534326, 0
997, 192428863, -0.65673995, 0.01869885, 0.31412438, -0.6853241, 0.41900265, 2.4879062, -2.4749284, 0
998, 192445530, -0.63479614, 0.004424791, 0.31396508, -0.7060031, 0.55956435, 2.6848047, -2.0052266, 0
999, 192462197, -0.6118379, -0.007597669, 0.31463042, -0.7256752, 0.78863674, 2.6471064, -1.592617, 0
1000, 192478864, -0.58836097, -0.018483609, 0.3159538, -0.7440854, 0.36666003, 2.2441046, -1.1538658, 0
1001, 192495531, -0.5641918, -0.02898865, 0.31840733, -0.7612254, -0.11926673, 2.1312778, -0.8468418, 0
1002, 192512198, -0.5389481, -0.039915547, 0.3218143, -0.7774171, -0.32424924, 2.1464965, -0.58668804, 0
1003, 192528865, -0.51240903, -0.051882617, 0.32576585, -0.792857, -0.2988537, 2.4716814, -0.30981445, 0
1004, 192545532, -0.48531556, -0.06453988, 0.32915774, -0.8074395, -0.29476362, 2.6842053, 0.08614445, 0
1005, 192562199, -0.45779917, -0.07825902, 0.33165938, -0.82115626, -0.7554141, 2.3272362, 0.17643452, 0
1006, 192578866, -0.42985904, -0.092935845, 0.3336055, -0.8338415, -1.3915893, 2.0531392, -0.014533997, 0
1007, 192595533, -0.40166014, -0.1074165, 0.33560333, -0.8452819, -2.2097077, 1.6999189, -0.09677029, 0
1008, 192612200, -0.3733047, -0.12104472, 0.33838147, -0.85527176, -2.686931, 1.4468812, -0.18284607, 0
1009, 192628867, -0.3452009, -0.1336725, 0.34204653, -0.8636969, -2.9581416, 0.9769468, -0.41791058, 0
1010, 192645534, -0.3178946, -0.14477926, 0.347413, -0.8702221, -3.2303214, 0.6794546, -0.5463543, 0
1011, 192662201, -0.2917696, -0.15403542, 0.35397798, -0.8751248, -3.3236704, 0.44485733, -0.21576214, 0
1012, 192678868, -0.26649866, -0.16201904, 0.3614581, -0.8786788, -3.266325, 0.26540712, 0.48242378, 0
1013, 192695535, -0.24193, -0.16944869, 0.36917296, -0.8811745, -3.108603, 0.043749478, 1.1613626, 0
1014, 192712202, -0.21873963, -0.17613927, 0.37632552, -0.88289726, -3.063106, -0.17000507, 1.533, 0
1015, 192728869, -0.19697706, -0.18239655, 0.38187414, -0.8843662, -2.8513472, -1.016286, 1.736063, 0
1016, 192745536, -0.17585382, -0.18855791, 0.3863615, -0.8855767, -3.1166916, -1.4061258, 2.053359, 0
1017, 192762203, -0.15628228, -0.19347632, 0.38938797, -0.88685954, -3.3826783, -1.250338, 2.457055, 0
1018, 192778870, -0.13893908, -0.19702683, 0.38995218, -0.8887147, -3.0453403, -1.6967835, 2.5562859, 0
1019, 192795537, -0.123091765, -0.20000431, 0.3891069, -0.8907541, -2.9593127, -2.2110238, 2.193243, 0
1020, 192812204, -0.10921552, -0.20140067, 0.3873019, -0.8930326, -3.4915192, -2.2131581, 1.7742777, 0
1021, 192828871, -0.09791383, -0.20056677, 0.3853212, -0.89538455, -3.735442, -2.437368, 1.2543077, 0
1022, 192845538, -0.08885497, -0.19768496, 0.3841257, -0.8974815, -3.7014327, -2.8202467, 0.75519466, 0
1023, 192862205, -0.0821298, -0.19324638, 0.38442895, -0.89895767, -3.4559252, -2.7613, 0.3304491, 0
1024, 192878872, -0.07771386, -0.18746498, 0.38691983, -0.89950585, -3.2772944, -2.9017403, -0.15345764, 0
1025, 192895539, -0.07522689, -0.1806878, 0.39167342, -0.8990467, -3.4574585, -2.7536945, -0.5214262, 0
1026, 192912206, -0.07533935, -0.17189023, 0.3982026, -0.89789337, -3.5897894, -2.099315, -0.63116646, 0
1027, 192928873, -0.077499464, -0.16120304, 0.405782, -0.89629716, -3.1714988, -1.6307919, -0.5346155, 0
1028, 192945540, -0.081052355, -0.14961469, 0.4139159, -0.89427054, -2.665256, -1.2344922, -0.3680849, 0
1029, 192962207, -0.085104585, -0.13824122, 0.4224517, -0.8917295, -2.3457112, -1.1556814, -0.21111965, 0
1030, 192978874, -0.08945635, -0.1274965, 0.43179512, -0.8884229, -2.2778246, -1.2485582, -0.29575634, 0
1031, 192995541, -0.094431125, -0.116718926, 0.44158715, -0.8845679, -2.5562592, -0.96902746, -0.53890514, 0
1032, 193012208, -0.10088337, -0.10486746, 0.4510107, -0.8805765, -2.5920806, -0.5152889, -0.5971441, 0
1033, 193028875, -0.10881814, -0.092262425, 0.45994022, -0.8764139, -2.223982, -0.54567, -0.5462513, 0
1034, 193045542, -0.11749931, -0.08012372, 0.46876118, -0.87180114, -1.9101818, -0.7124912, -0.62516594, 0
1035, 193062209, -0.12666914, -0.06871313, 0.477837, -0.8665479, -1.7603492, -0.81192577, -0.7973013, 0
1036, 193078876, -0.13639504, -0.057965107, 0.48693603, -0.86077285, -1.7804292, -0.7001919, -0.9589901, 0
1037, 193095543, -0.14665236, -0.047786616, 0.4962757, -0.85435355, -1.821597, -0.41833842, -1.0523367, 0
1038, 193112210, -0.15749422, -0.037461963, 0.5065116, -0.84689915, -1.7263061, 0.09777209, -1.0291643, 0
1039, 193128877, -0.16971555, -0.026205733, 0.5167005, -0.8387673, -1.6589799, 0.15762508, -1.1864939, 0
1040, 193145544, -0.18267462, -0.015182554, 0.5250647, -0.83108765, -1.5643493, 0.07144076, -1.1205864, 0
1041, 193162211, -0.1958208, -0.005021141, 0.5319496, -0.82380754, -1.2379427, 0.34745908, -0.87869835, 0
1042, 193178878, -0.20921963, 0.0047363644, 0.53881544, -0.81601655, -1.0133516, 0.84904534, -0.69939995, 0
1043, 193195545, -0.22239198, 0.014594309, 0.5480465, -0.8062096, -1.1027495, 0.2883439, -0.79639626, 0
1044, 193212212, -0.2359015, 0.024467431, 0.55839694, -0.7949496, -1.3210788, -0.11073383, -1.1862097, 0
1045, 193228879, -0.25041357, 0.03315456, 0.56610835, -0.7846752, -1.3278157, 0.1533782, -1.1877375, 0
1046, 193245546, -0.26632762, 0.04104107, 0.5700333, -0.7761748, -1.1922965, 0.9860162, -0.52865505, 0
1047, 193262213, -0.2836663, 0.050096557, 0.57315564, -0.7671484, -1.1144636, 1.0416837, 0.3604231, 0
1048, 193278880, -0.30287802, 0.059947096, 0.5753065, -0.757426, -0.9319608, 0.2145864, 0.39016914, 0
1049, 193295547, -0.32304195, 0.06743918, 0.5748383, -0.74877024, -0.6880138, -0.29964992, 0.06573105, 0
1050, 193312214, -0.34158325, 0.07099346, 0.5738272, -0.7409475, -0.97422224, -0.5618596, 0.057391167, 0
1051, 193328881, -0.3578527, 0.071957454, 0.57347524, -0.7334098, -1.3263078, 0.17977086, 0.30285358, 0
1052, 193345548, -0.37550113, 0.0724872, 0.57062477, -0.7267269, -0.8464174, 1.6464107, 0.511961, 0
1053, 193362215, -0.39499474, 0.07366566, 0.5665231, -0.71944714, -0.19637848, 1.8986524, 0.582922, 0
1054, 193378882, -0.4155302, 0.07489828, 0.561944, -0.71129745, 2.9056685E-6, 1.6781862, 0.4891653, 0
1055, 193395549, -0.4368379, 0.0763198, 0.5573557, -0.7019279, -0.26683915, 1.4688134, 0.84369564, 0
1056, 193412216, -0.4586944, 0.07852072, 0.55350715, -0.6906982, -0.5921003, 1.0976783, 1.4508085, 0
1057, 193428883, -0.4815207, 0.082774766, 0.55038106, -0.6770281, -0.6648813, 0.5783727, 1.305378, 0
1058, 193445550, -0.5051586, 0.086192004, 0.54504764, -0.6635577, -0.07502123, 0.37312442, 0.54417324, 0
1059, 193462217, -0.5276691, 0.08663487, 0.53783363, -0.651763, 0.46811995, 0.528581, 0.7235632, 0
1060, 193478884, -0.54928315, 0.08700243, 0.53057325, -0.6396957, 0.6328611, 0.56090635, 1.5156822, 0
1061, 193495551, -0.57046413, 0.08931598, 0.52355427, -0.6264859, 0.19462278, -0.058144603, 1.7328749, 0
1062, 193512218, -0.5897292, 0.09018223, 0.51545185, -0.61513925, 0.56064516, 0.042392977, 1.6745739, 0
1063, 193528885, -0.6081988, 0.087953106, 0.5047954, -0.6062508, 1.9417309, 0.48719397, 2.1586924, 0
1064, 193545552, -0.6277465, 0.0849681, 0.4920715, -0.59714353, 2.1910267, -0.1153813, 2.233615, 0
1065, 193562219, -0.6468999, 0.08160395, 0.47938418, -0.58741134, 1.4463307, -0.9332586, 1.4349632, 0
1066, 193578886, -0.6643905, 0.076081574, 0.46728927, -0.5783059, 0.7669029, -0.65086573, 0.82977676, 0
1067, 193595553, -0.68086034, 0.06995063, 0.4561425, -0.56874466, -0.1976829, 0.18802299, 0.92908096, 0
1068, 193612220, -0.6970364, 0.06618906, 0.44643828, -0.55718243, -1.5539289, 0.84778357, 1.0260372, 0
1069, 193628887, -0.71302485, 0.06579837, 0.43637747, -0.54483116, -0.7125061, 1.3247461, 1.5111637, 0
1070, 193645554, -0.72969216, 0.06762457, 0.42211482, -0.53366244, 1.4293287, 0.082547694, 2.6532402, 0
1071, 193662221, -0.7458405, 0.06657167, 0.40325963, -0.5259963, 2.269883, -2.2420416, 3.33778, 0
1072, 193678888, -0.7596623, 0.05837572, 0.3822143, -0.5228938, 2.5871828, -3.2962134, 3.2330856, 0
1073, 193695555, -0.7705303, 0.043302286, 0.3599453, -0.5242592, 3.3091886, -3.2898922, 1.9477568, 0
1074, 193712222, -0.77800053, 0.024864528, 0.3395669, -0.528007, 3.5386257, -2.4939513, 0.64184, 0
1075, 193728889, -0.78290886, 0.0065220445, 0.32133377, -0.53268766, 3.2295442, -1.161541, -0.43127632, 0
1076, 193745556, -0.78620243, -0.009066818, 0.30521187, -0.5372611, 2.44783, -0.55235726, -1.272336, 0
1077, 193762223, -0.7885145, -0.019932248, 0.29147178, -0.54119474, 1.5486722, -0.013163034, -1.6910629, 0
1078, 193778890, -0.7901106, -0.025931831, 0.28003234, -0.544642, 1.0527095, -0.2683187, -2.2089605, 0
1079, 193795557, -0.79067653, -0.02807764, 0.27118635, -0.5481791, 1.2938999, -0.92318046, -2.5631666, 0
1080, 193812224, -0.7903355, -0.027202044, 0.26433438, -0.55204827, 1.4764347, -1.0976213, -2.2392125, 0
1081, 193828891, -0.7890097, -0.024894422, 0.25882405, -0.5566456, 1.4311224, -1.3598236, -1.5629072, 0
1082, 193845558, -0.78656083, -0.022962773, 0.25390372, -0.5624303, 1.5650885, -1.614238, -0.8350134, 0
1083, 193862225, -0.7826147, -0.023689464, 0.2498489, -0.5696744, 2.5457666, -2.1708312, -0.76137733, 0
1084, 193878892, -0.77738476, -0.028048929, 0.24635325, -0.5780973, 3.019402, -1.7128342, -0.66092014, 0
1085, 193895559, -0.77170825, -0.034228817, 0.24192402, -0.58716905, 2.053521, -0.94758743, -0.7792978, 0
1086, 193912226, -0.76550186, -0.04026377, 0.23781109, -0.59651625, 0.97459435, -0.8985217, -0.8991127, 0
1087, 193928893, -0.75835085, -0.045273747, 0.2356666, -0.6060658, 0.6444433, -0.6034913, -1.1782913, 0
1088, 193945560, -0.7503795, -0.049090113, 0.23490785, -0.6159052, 0.583477, -0.14365754, -1.3876781, 0
1089, 193962227, -0.74207336, -0.05147592, 0.23497912, -0.62566966, 0.5550842, 0.07485865, -1.3058004, 0
1090, 193978894, -0.73336524, -0.05268973, 0.23587485, -0.63542295, 0.45858008, -0.15389001, -1.0426226, 0
1091, 193995561, -0.72411823, -0.053276546, 0.23774922, -0.64520526, 0.6215581, -0.20296536, -0.5405073, 0
1092, 194012228, -0.71412015, -0.053679317, 0.2398168, -0.65546846, 1.453593, -0.21152048, 0.09475994, 0
1093, 194028895, -0.7033721, -0.055535253, 0.24165604, -0.6661728, 2.3243756, -0.34070185, 0.23665047, 0
1094, 194045562, -0.6921201, -0.059926532, 0.24248363, -0.67718565, 2.1088715, -0.17880528, 0.12591648, 0
1095, 194062229, -0.680297, -0.065278225, 0.24254712, -0.6885534, 1.278298, 0.05076848, -0.037869453, 0
1096, 194078896, -0.6678217, -0.06985738, 0.2431389, -0.70001274, 1.1273271, 0.05057545, -0.018047333, 0
1097, 194095563, -0.6547099, -0.07417031, 0.24438299, -0.7114289, 1.6682329, 0.3395613, -0.044525146, 0
1098, 194112230, -0.6412384, -0.07891908, 0.24549296, -0.722716, 1.6087036, 0.7008327, -0.14040375, 0
1099, 194128897, -0.6275005, -0.083127424, 0.24634805, -0.7339249, 0.8868928, 0.78369194, -0.24485874, 0
1100, 194145564, -0.6133596, -0.08639944, 0.24800901, -0.74486035, 0.5976713, 0.66954553, -0.37726212, 0
1101, 194162231, -0.59875655, -0.088816695, 0.25066113, -0.7554941, 0.97154397, 0.70657223, -0.12842178, 0
1102, 194178898, -0.58473194, -0.090037756, 0.2531329, -0.7654449, 1.3475196, 0.9370439, 0.286829, 0
1103, 194195565, -0.568943, -0.092838064, 0.25656387, -0.77579635, 1.3607733, 0.7785255, 0.58896255, 0
1104, 194212232, -0.5540707, -0.095867, 0.2587906, -0.78539336, 1.1934934, 1.2217549, 0.37660408, 0
1105, 194228899, -0.5390965, -0.098460816, 0.26447207, -0.7935586, -1.2455, -0.5829003, 0.67750263, 0
1106, 194245566, -0.5205529, -0.10411373, 0.27047196, -0.8031375, -0.48191673, 1.7310002, -0.978467, 0
1107, 194262233, -0.5013679, -0.107097305, 0.27390403, -0.8137181, 1.3784295, 2.806011, -0.2441454, 0
1108, 194278900, -0.4830439, -0.10875818, 0.27391383, -0.8245069, 0.7952944, 1.6316513, 0.425601, 0
1109, 194295567, -0.4652231, -0.11221992, 0.2756897, -0.8336483, -0.05294653, 0.31596065, -0.45046616, 0
1110, 194312234, -0.4481606, -0.1141566, 0.28038472, -0.8411331, -0.277376, -0.079341955, -0.031155586, 0
1111, 194328901, -0.43119514, -0.11383686, 0.28739843, -0.8476523, -0.1328218, 0.62293065, 0.44766808, 0
1112, 194345568, -0.41630146, -0.111765124, 0.2931161, -0.85339606, 0.382414, 1.1207669, 0.88658905, 0
1113, 194362235, -0.40148482, -0.109344065, 0.3006881, -0.8581612, -0.79780984, 0.15086052, 1.3110723, 0
1114, 194378902, -0.38396397, -0.10641022, 0.3111713, -0.86279845, -1.2363253, 0.22329487, 0.9193754, 0
1115, 194395569, -0.36651713, -0.10267869, 0.3212475, -0.86713463, -0.13547611, 0.8214794, 0.5332804, 0
1116, 194412236, -0.349669, -0.101334535, 0.33253312, -0.86999124, -0.16258511, 0.19709672, 0.94516087, 0
1117, 194428903, -0.33281437, -0.102218166, 0.3434144, -0.87226874, -1.0781548, 0.66168225, 0.57956696, 0
1118, 194445570, -0.31644323, -0.101982266, 0.3520846, -0.87492836, -1.7703801, 1.5130613, -0.10404396, 0
1119, 194462237, -0.30173486, -0.09832245, 0.35810384, -0.8780949, -1.8178507, 1.3460444, 0.01444912, 0
1120, 194478904, -0.28841266, -0.09326983, 0.36265123, -0.8812508, -1.0723573, -0.30434147, 1.4041958, 0
1121, 194495571, -0.2750388, -0.09091359, 0.36696246, -0.8839837, -0.7499995, -1.1607406, 1.7278261, 0
1122, 194512238, -0.26073188, -0.09077788, 0.3700796, -0.8870285, -1.8972566, 0.04515836, 1.168973, 0
1123, 194528905, -0.24638322, -0.0887826, 0.37023297, -0.89125794, -2.8056262, 0.6984522, 0.8205023, 0
1124, 194545572, -0.23392887, -0.08675716, 0.3675905, -0.89589494, -2.4111667, -0.69629204, 0.4934101, 0
1125, 194562239, -0.2226891, -0.08623862, 0.36435553, -0.900121, -1.9390479, -1.0394102, 0.3948307, 0
1126, 194578906, -0.21214321, -0.085082985, 0.36183953, -0.9037855, -2.4297757, -0.56574875, 0.37279415, 0
1127, 194595573, -0.2031855, -0.08358136, 0.35838172, -0.9073547, -2.2677734, -0.5106306, 0.16002274, 0
1128, 194612240, -0.19600134, -0.08211838, 0.35459614, -0.9105501, -2.3234782, -0.31165165, -0.2719984, 0
1129, 194628907, -0.19029209, -0.07858574, 0.35061622, -0.9136091, -3.220731, -0.122210905, -0.40953827, 0
1130, 194645574, -0.18630643, -0.07363891, 0.34589705, -0.9166366, -2.6848135, -0.610888, -0.57003784, 0
1131, 194662241, -0.18412995, -0.069313265, 0.34198335, -0.9188793, -2.1473749, -1.0322033, -0.8024025, 0
1132, 194678908, -0.18327083, -0.06442261, 0.33909187, -0.9204773, -2.346986, -0.7406645, -1.0734711, 0
1133, 194695575, -0.18401378, -0.05724903, 0.3361657, -0.9218755, -2.2242138, -0.26216, -0.9022598, 0
1134, 194712242, -0.18669659, -0.04943591, 0.33389962, -0.92261136, -1.780577, -0.6646257, -0.36624718, 0
1135, 194728909, -0.19038387, -0.043534197, 0.3322788, -0.92274034, -1.687887, -1.1665806, 0.14310837, 0
1136, 194745576, -0.19421126, -0.03919099, 0.33118087, -0.922532, -1.9468559, -1.1306975, -0.24551678, 0
1137, 194762243, -0.19843934, -0.034666236, 0.33199748, -0.9215194, -1.9773977, -1.1545092, -0.7621517, 0
1138, 194778910, -0.20355916, -0.029378938, 0.3352811, -0.919395, -1.7886772, -0.9794044, -1.103653, 0
1139, 194795577, -0.20969237, -0.023702482, 0.3406163, -0.916214, -1.664389, -0.9898152, -0.87028885, 0
1140, 194812244, -0.21639681, -0.01762753, 0.3475134, -0.9121932, -1.8682898, -0.56512564, -0.5260315, 0
1141, 194828911, -0.2236242, -0.011163872, 0.35499516, -0.9076598, -1.6964937, -0.32973865, -0.38897705, 0
1142, 194845578, -0.23123029, -0.004918347, 0.36360708, -0.90238506, -1.5704025, -0.49302095, -0.51820564, 0
1143, 194862245, -0.23919041, -2.0156801E-4, 0.37224954, -0.8967822, -1.778553, -0.95475614, -0.5528097, 0
1144, 194878912, -0.24834478, 0.0020788328, 0.37872794, -0.89156365, -0.8922142, -0.41355306, -0.7120285, 0
1145, 194895579, -0.2583979, 8.7225344E-5, 0.38607824, -0.8855362, -0.48051396, 0.0034717831, -0.3260889, 0
1146, 194912246, -0.26941222, -0.0030484716, 0.3931042, -0.8791342, -1.5414407, 0.39094496, -0.72866726, 0
1147, 194928913, -0.28104138, -0.0051876996, 0.39973336, -0.87246907, -1.7694219, 0.17669453, -0.8997154, 0
1148, 194945580, -0.29318306, -0.0068992926, 0.4067294, -0.8651979, -1.2745477, 0.22494762, -0.4892912, 0
1149, 194962247, -0.30443197, -0.008845503, 0.41296318, -0.85831475, -1.7794334, 0.24235286, -0.3817358, 0
1150, 194978914, -0.31599694, -0.009258853, 0.4164688, -0.8524166, -1.7864639, 0.7654569, -0.52513313, 0
1151, 194995581, -0.32822537, -0.008522854, 0.41985774, -0.8461177, -1.0700327, 0.77698237, 0.14479065, 0
1152, 195012248, -0.3404033, -0.0077168737, 0.42525682, -0.8385838, -0.92715174, 0.4609053, 0.20910454, 0
1153, 195028915, -0.35262144, -0.0056776595, 0.43036127, -0.8309122, -1.1833631, 0.8679223, 0.507823, 0
1154, 195045582, -0.36550114, -0.0016808186, 0.43384916, -0.8235175, -0.8581247, 0.8115282, 1.0042868, 0
1155, 195062249, -0.37926075, 0.0027348353, 0.43524507, -0.81652665, -0.24936211, 0.48668313, 1.2951441, 0
1156, 195078916, -0.3933805, 0.007016272, 0.43467772, -0.8100976, -0.26302257, 0.5220297, 1.4161205, 0
1157, 195095583, -0.40897447, 0.012155728, 0.43121895, -0.8041408, -0.23534708, 0.6742207, 1.4860344, 0
1158, 195112250, -0.42531458, 0.0155246155, 0.42663795, -0.7980268, 0.12694307, -0.4715473, 1.9089594, 0
1159, 195128917, -0.44127694, 0.017081201, 0.4217773, -0.7918882, 0.2540504, 0.03247347, 1.8633528, 0
1160, 195145584, -0.45696044, 0.018452363, 0.4167382, -0.7856056, 0.24383989, 0.4471696, 1.6208677, 0
1161, 195162251, -0.47299328, 0.019603612, 0.4117379, -0.7786945, 0.512255, 0.32849675, 1.5535517, 0
1162, 195178918, -0.4887199, 0.019441757, 0.40773475, -0.77105606, 0.14071347, -0.21038747, 1.3053246, 0
1163, 195195585, -0.5035499, 0.018870547, 0.40425542, -0.7633212, 0.086434245, -0.015146146, 0.9851332, 0
1164, 195212252, -0.5180785, 0.019431336, 0.40041375, -0.75557, 0.56163484, 0.09831396, 1.3308468, 0
1165, 195228919, -0.53234065, 0.019967936, 0.3947767, -0.7485762, 1.0265888, -0.0120019615, 1.576849, 0
1166, 195245586, -0.54643536, 0.018861193, 0.38731694, -0.7423195, 0.9670914, -0.07475493, 1.4580021, 0
1167, 195262253, -0.5606416, 0.017641637, 0.37849677, -0.73628134, 1.0034853, 0.07585188, 1.3184185, 0
