DeviceTag:,Xsens DOT 5,,,,,,,,,,,,,,,,,
FirmwareVersion:,1.3.0,,,,,,,,,,,,,,,,,
AppVersion:,2020.1.1,,,,,,,,,,,,,,,,,
Measurement Mode:,Sensor fusion Mode - Complete (Quaternion),,,,,,,,,,,,,,,,,
StartTime:,2020-08-04 10:32:16.198 +0200,,,,,,,,,,,,,,,,,
© Xsens Technologies B. V. 2005-2020,,,,,,,,,,,,,,,,,,,
PacketCounter,SampleTimeFine,Quat_W,Quat_X,Quat_Y,Quat_Z,FreeAcc_X,FreeAcc_Y,FreeAcc_Z
1, 241874180, 0.9451709, -0.057492442, 0.22299525, 0.23156026, -0.015353329, 0.053247605, -0.014156342
2, 241890847, 0.94511575, -0.056736376, 0.2231067, 0.23186383, -0.015697315, 0.08876764, 0.09426308
3, 241907514, 0.94512093, -0.05579615, 0.22296569, 0.23220609, -0.08295706, 0.010415201, 0.037568092
4, 241924181, 0.9449715, -0.05545768, 0.22333142, 0.23254336, -0.014017839, -0.035765592, -0.16994381
5, 241940848, 0.94481266, -0.055450223, 0.22377916, 0.2327597, 0.040631525, -0.10299276, -0.24093723
6, 241957515, 0.94463646, -0.05529057, 0.22439682, 0.23291875, -0.042411808, -0.051906135, -0.03679943
7, 241974182, 0.9444484, -0.054773893, 0.22511083, 0.23311418, 0.033530742, -0.00955937, 0.17876434
8, 241990849, 0.9443172, -0.054547213, 0.22544503, 0.23337542, 0.003009155, 0.012017565, 0.29152393
9, 242007516, 0.9442565, -0.05458382, 0.22543262, 0.23362431, 0.10482936, 0.03387808, 0.22767735
10, 242024183, 0.94424343, -0.054290995, 0.22532837, 0.23384643, 0.028431071, 0.040045027, 0.17114353
11, 242040850, 0.94426554, -0.0534999, 0.22525309, 0.23401143, 0.006786971, 0.045708008, 0.26451874
12, 242057517, 0.9443163, -0.052810743, 0.22507274, 0.23413624, 0.0044890344, 0.07040935, 0.28689575
13, 242074184, 0.94437486, -0.05249228, 0.22476082, 0.23427199, 0.07140725, 0.11973729, 0.15468693
14, 242090851, 0.94444144, -0.052201204, 0.22433656, 0.23447591, -0.030983813, 0.13615747, 0.059651375
15, 242107518, 0.9444635, -0.051720425, 0.22403908, 0.23477685, -0.007976954, 0.060694635, 0.020679474
16, 242124185, 0.9444823, -0.051434416, 0.22380073, 0.2349912, -0.052158087, 0.018577391, 0.0051431656
17, 242140852, 0.9444569, -0.051429104, 0.22384462, 0.23505305, -0.0241242, 0.00788699, -0.082886696
18, 242157519, 0.9444226, -0.051199242, 0.22393781, 0.23515257, -9.883743E-4, 0.04800969, -0.016216278
19, 242174186, 0.9443786, -0.050553296, 0.22388431, 0.23551908, 0.035659257, -0.0049974145, -0.002855301
20, 242190853, 0.9445306, -0.049963187, 0.22365801, 0.23525067, 0.07257399, -0.027129248, -0.030223846
21, 242207520, 0.9445907, -0.05007349, 0.22333342, 0.23529455, -0.018954793, -0.07624007, -0.092918396
22, 242224187, 0.9446099, -0.050467916, 0.22328435, 0.23517989, -0.060318325, -0.034410212, -0.16261387
23, 242240854, 0.9444822, -0.050598808, 0.22359648, 0.23536757, -0.0371597, 0.045431133, -0.06675339
24, 242257521, 0.9443716, -0.050379448, 0.22383247, 0.23563391, 0.059254847, 0.12091283, 0.10506916
25, 242274188, 0.94439125, -0.05009226, 0.22386487, 0.23558573, 0.07073648, 0.04941662, 0.0848856
26, 242290855, 0.9443437, -0.05038123, 0.22375596, 0.23581758, 0.014278678, -0.008777717, 0.023014069
27, 242307522, 0.9442918, -0.050674703, 0.22381914, 0.23590304, 0.0213285, 0.0047275503, 0.001914978
28, 242324189, 0.9442857, -0.050540477, 0.22398742, 0.23579666, 0.01406567, 0.018178085, 0.0066928864
29, 242340856, 0.9442373, -0.050085127, 0.22414157, 0.23594096, 0.04939748, 0.043435972, 0.068045616
30, 242357523, 0.944286, -0.04963072, 0.2242245, 0.23576352, 1.8752737E-4, -7.411969E-4, 0.0066785812
31, 242374190, 0.94421256, -0.04981747, 0.22426912, 0.23597519, 0.046377372, 0.0063451696, -0.0029449463
32, 242390857, 0.9440994, -0.05029098, 0.22421077, 0.23638234, 0.042282168, 0.029981498, 0.05752945
33, 242407524, 0.9439692, -0.050313514, 0.22418924, 0.23691773, 0.024706228, 3.5544147E-4, 0.06620312
34, 242424191, 0.94383615, -0.04994059, 0.22439396, 0.2373325, 0.044720247, -0.14342386, -0.016705513
35, 242440858, 0.94371694, -0.049716976, 0.22472912, 0.23753628, 0.093233734, -0.21931398, 0.020508766
36, 242457525, 0.9436393, -0.049499396, 0.22510968, 0.23752986, 0.087120436, -0.14013268, 0.24388885
37, 242474192, 0.9437264, -0.049115073, 0.22517414, 0.23720227, 0.022091126, -0.03695781, 0.37827396
38, 242490859, 0.9437713, -0.048994303, 0.22485769, 0.23734897, 0.06394572, -0.027923837, 0.27698612
39, 242507526, 0.94388497, -0.04885484, 0.22446671, 0.23729561, -0.0095343925, -0.066975884, -0.0040693283
40, 242524193, 0.94400835, -0.048593182, 0.22438842, 0.23693213, -0.037861083, -0.09935693, -0.26647186
41, 242540860, 0.9439196, -0.04854975, 0.22463772, 0.23705858, -0.02594382, -0.06665771, -0.31817436
42, 242557527, 0.9437154, -0.04847784, 0.22530483, 0.23725328, 0.005547815, -0.030582774, -0.23850536
43, 242574194, 0.94349164, -0.048349675, 0.22596349, 0.23754296, 0.033533648, -0.018854156, -0.06510067
44, 242590861, 0.94337714, -0.0484543, 0.22649673, 0.23746856, 0.06772823, -0.020773489, -0.008760452
45, 242607528, 0.94337136, -0.04867014, 0.22659609, 0.23735222, 0.0809669, -0.04516082, -0.026237488
46, 242624195, 0.94332755, -0.048679233, 0.22656083, 0.23755822, 0.024291836, -0.0499402, -0.15907669
47, 242640862, 0.9433844, -0.04844752, 0.22668971, 0.23725618, 0.05149962, -0.0276402, -0.27559948
48, 242657529, 0.9432858, -0.048578933, 0.22711638, 0.23721316, 0.053805605, 0.034713488, -0.38803196
49, 242674196, 0.9433864, -0.048442915, 0.22787088, 0.23611543, 0.0017132268, 0.14696555, -0.23679352
50, 242690863, 0.94318825, -0.048010856, 0.22868726, 0.23620558, 0.022530777, 0.20171106, -0.07952404
51, 242707530, 0.9430714, -0.04749207, 0.22925577, 0.23622584, 0.14656058, 0.09144334, -0.111582756
52, 242724197, 0.9428043, -0.04782963, 0.22947529, 0.23700954, 0.09638572, 0.02542946, -0.24412632
53, 242740864, 0.9426661, -0.048083395, 0.22987536, 0.23711987, 0.00825478, -0.054801606, -0.28456783
54, 242757531, 0.942395, -0.047988284, 0.23058054, 0.23753211, 0.029327359, -0.12467508, -0.3350563
55, 242774198, 0.94205093, -0.04791651, 0.23160924, 0.23791036, 0.047643576, -0.18586099, -0.40798283
56, 242790865, 0.941716, -0.048205964, 0.23268174, 0.23813169, 0.07451765, -0.15617093, -0.44934082
57, 242807532, 0.9414035, -0.048139285, 0.23377559, 0.2383092, 0.041812792, -0.15667619, -0.43633366
58, 242824199, 0.94107044, -0.047393244, 0.23503274, 0.23853728, -0.001414837, -0.22875649, -0.46789265
59, 242840866, 0.94072926, -0.047072336, 0.23626788, 0.23872676, 0.026156157, -0.3346307, -0.7165146
60, 242857533, 0.940392, -0.04738601, 0.2376219, 0.23864889, 0.043021996, -0.34819362, -0.9344263
61, 242874200, 0.9400015, -0.047446556, 0.23930627, 0.23849207, -0.056424506, -0.31901842, -0.9930229
62, 242890867, 0.9395673, -0.047058348, 0.24124181, 0.23832968, -0.020126447, -0.30394748, -0.99784946
63, 242907534, 0.93917507, -0.046608347, 0.24310468, 0.23807156, 0.025547307, -0.34486282, -1.1695757
64, 242924201, 0.9387169, -0.046013117, 0.24524352, 0.23780093, -0.11328508, -0.32075393, -1.3326511
65, 242940868, 0.93808234, -0.04481298, 0.24807225, 0.23759946, -0.05132014, -0.17987052, -1.2192926
66, 242957535, 0.93729335, -0.04276362, 0.25136873, 0.23762637, -0.038467698, -0.10613644, -0.78361225
67, 242974202, 0.9366462, -0.040493432, 0.2541827, 0.23758186, 0.18192993, -0.1352057, -0.531353
68, 242990869, 0.9361198, -0.038698915, 0.25678083, 0.23716167, -0.15293673, -0.47563088, -0.5465927
69, 243007536, 0.93558985, -0.03742401, 0.25934935, 0.23666222, 0.009774892, -0.11413938, -0.73327446
70, 243024203, 0.93498784, -0.035767477, 0.26220152, 0.23615481, -0.1613131, 0.07240996, -0.7768078
71, 243040870, 0.93423903, -0.033602424, 0.26551428, 0.23573473, -0.1377935, 0.049845234, -0.8156462
72, 243057537, 0.9333998, -0.03161932, 0.26906776, 0.23530367, -0.08759249, 0.052541524, -0.95055294
73, 243074204, 0.9324227, -0.030190924, 0.2729544, 0.23488864, -0.12168269, 0.201697, -0.758029
74, 243090871, 0.9313881, -0.028774485, 0.27678457, 0.23468861, -0.102103844, 0.35943684, -0.4019928
75, 243107538, 0.9302643, -0.026786903, 0.28075424, 0.23466583, -0.20219183, 0.14008978, -0.24114132
76, 243124205, 0.9291579, -0.024910765, 0.28464985, 0.23456211, -0.016983408, -0.124383785, -0.33042526
77, 243140872, 0.9280473, -0.024002697, 0.28850776, 0.23434025, -0.095466405, 0.013683994, -0.5102186
78, 243157539, 0.92678237, -0.022948654, 0.29273534, 0.23420891, -0.24628825, 0.10457623, -0.23393631
79, 243174206, 0.92546993, -0.020991722, 0.29708278, 0.23410788, -0.17983204, 0.08972786, 0.19745731
80, 243190873, 0.92426205, -0.019002963, 0.30113688, 0.2338699, -0.12504454, -0.010465715, 0.31181717
81, 243207540, 0.9230275, -0.018528264, 0.30508015, 0.23367307, -0.06537933, 0.08914264, 0.02755642
82, 243224207, 0.9216704, -0.018224528, 0.30920365, 0.23363397, -0.23724335, 0.14916955, 0.16468143
83, 243240874, 0.9200855, -0.016665014, 0.31382188, 0.23383985, -0.17486604, 0.0069138985, 0.43895245
84, 243257541, 0.9186215, -0.01483724, 0.3181814, 0.23382688, 0.093676515, -0.26915076, 0.5118971
85, 243274208, 0.91744024, -0.014406456, 0.32180396, 0.23353384, 0.12497749, -0.21640322, 0.37262154
86, 243290875, 0.91635877, -0.013993933, 0.3250805, 0.23326668, -0.022630239, 0.014995722, 0.3125143
87, 243307542, 0.91515714, -0.011423835, 0.3286712, 0.23309308, -0.22140478, 0.018014006, 0.6177616
88, 243324209, 0.91394025, -0.008015851, 0.3322572, 0.23292577, -0.002443667, -0.31243846, 0.49113846
89, 243340876, 0.9128983, -0.00630382, 0.33545977, 0.23247342, -0.009932916, -0.5146434, 0.06764603
90, 243357543, 0.9119932, -0.0060100015, 0.33833534, 0.23186545, -0.25628957, -0.5131165, -0.23193455
91, 243374210, 0.9110349, -0.0049570114, 0.3415389, 0.23095946, -0.6162601, -0.52387583, -0.46582985
92, 243390877, 0.90985936, -0.0029825862, 0.34543058, 0.22983643, -0.5485046, -0.50911146, -0.6627989
93, 243407544, 0.9086197, -0.0011730522, 0.3496496, 0.22837265, -0.46997064, -0.4993055, -0.75261784
94, 243424211, 0.90748143, -3.134236E-4, 0.3536944, 0.22666651, -0.63493574, -0.33461273, -0.8671074
95, 243440878, 0.9066105, -6.232792E-4, 0.35719514, 0.22465262, -1.0641202, -0.25207695, -1.1357679
96, 243457545, 0.9058025, -0.002355003, 0.36063382, 0.22239517, -1.2327361, -0.059744984, -1.793026
97, 243474212, 0.9046464, -0.0052190456, 0.36475062, 0.22032924, -1.3668396, 0.39354414, -2.3490224
98, 243490879, 0.90268135, -0.0068928394, 0.37033206, 0.21902789, -1.3109545, 0.6077648, -2.3912048
99, 243507546, 0.89998937, -0.004276365, 0.37748456, 0.2179597, -1.0421624, 0.48980367, -1.5222254
100, 243524213, 0.89689314, 0.0017800623, 0.38553292, 0.2166657, -0.3396744, 0.4503146, -0.44396114
101, 243540880, 0.89421177, 0.005689208, 0.3924503, 0.2152576, -0.15368862, 0.30182296, 0.1491108
102, 243557547, 0.8919813, 0.0046090274, 0.39777184, 0.21476947, -0.2589449, 0.18913524, -0.042201996
103, 243574214, 0.88981634, 0.0029344799, 0.4027501, 0.21450152, -0.34807068, -0.21630691, -0.38476753
104, 243590881, 0.88697237, 0.004692605, 0.40926746, 0.21391214, -0.56816834, -0.24931069, -0.07006073
105, 243607548, 0.88386923, 0.008881543, 0.4162644, 0.21311994, -0.22815174, -0.25791138, 0.3546486
106, 243624215, 0.88098955, 0.013205991, 0.42275608, 0.21203965, -0.18000884, -0.24371311, 0.54253006
107, 243640882, 0.878395, 0.01623021, 0.42860588, 0.21084541, -0.27310446, -0.19503696, 0.2839632
108, 243657549, 0.87584907, 0.017734345, 0.4342541, 0.20975544, -0.4646155, -0.113974005, -0.20332336
109, 243674216, 0.8729712, 0.019160042, 0.44056693, 0.20845903, -0.6016852, 0.07424229, 0.03357792
110, 243690883, 0.8696901, 0.021394288, 0.44761747, 0.20693076, -0.5045188, 0.23826693, 0.54290104
111, 243707550, 0.86625123, 0.022969179, 0.45472333, 0.20568933, -0.17155871, 0.32898027, 0.49781132
112, 243724217, 0.86311466, 0.023102025, 0.46090743, 0.20509465, -0.08092063, 0.28308126, 0.33400345
113, 243740884, 0.8600978, 0.023311973, 0.46674412, 0.20454475, -0.12311049, 0.14359976, 0.29070282
114, 243757551, 0.8571238, 0.025353385, 0.4724873, 0.2035977, 0.16583052, 0.31230265, 0.6847887
115, 243774218, 0.85419625, 0.029296946, 0.47803628, 0.2024149, 0.27128303, 0.12106331, 1.0990152
116, 243790885, 0.85130745, 0.033146184, 0.48331806, 0.20144676, 0.30245996, -0.103276454, 0.7803459
117, 243807552, 0.8488347, 0.03558081, 0.48787344, 0.20048289, -0.021524744, -0.2603176, 0.34199333
118, 243824219, 0.8463804, 0.036893055, 0.49245754, 0.19941124, -0.4104069, -0.32521614, 0.19038773
119, 243840886, 0.8435967, 0.037957568, 0.4976613, 0.19808413, -0.3628402, -0.14822806, 0.37696266
120, 243857553, 0.84046245, 0.039204348, 0.50341994, 0.19660766, -0.12847614, -0.04722077, 0.5322046
121, 243874220, 0.8370218, 0.03918949, 0.5095589, 0.1954706, -0.087001525, -0.060927395, 0.4367838
122, 243890887, 0.83346385, 0.0368236, 0.515733, 0.19494022, -0.23009586, -0.14010532, 0.26559067
123, 243907554, 0.83003855, 0.033571225, 0.5215248, 0.19473413, -0.40107968, -0.115957126, 0.324234
124, 243924221, 0.8267134, 0.03321161, 0.5271761, 0.1937206, -0.229639, 0.0847151, 0.65445423
125, 243940888, 0.823491, 0.036668386, 0.5326624, 0.19180445, -0.08736943, 0.20582049, 0.6926298
126, 243957555, 0.8204409, 0.04157247, 0.537756, 0.18965028, -0.11058304, 0.06648329, 0.30431366
127, 243974222, 0.81772375, 0.045115598, 0.5423097, 0.1875974, -0.19164716, -0.10670721, -0.09632969
128, 243990889, 0.81518775, 0.046741843, 0.5465695, 0.1858659, -0.3469319, -0.09817644, -0.20749187
129, 244007556, 0.812673, 0.0472983, 0.5508172, 0.18418992, -0.6798008, -0.014308517, 0.09828949
130, 244024223, 0.8096641, 0.047313627, 0.5557362, 0.18265514, -0.83238816, 0.066796035, 0.15265465
131, 244040890, 0.8061775, 0.04678185, 0.56121314, 0.18146421, -0.62300885, 0.09813213, -0.02844429
132, 244057557, 0.8023568, 0.04612017, 0.56705827, 0.18039346, -0.357939, 0.14829943, 0.019733429
133, 244074224, 0.79865485, 0.04559951, 0.57264423, 0.17930344, -0.18687293, 0.13264069, 0.17636967
134, 244090891, 0.7951508, 0.045402903, 0.57790536, 0.17804286, -0.29939738, 0.008137716, 0.48381424
135, 244107558, 0.79145235, 0.045996487, 0.58334, 0.17664123, -0.022773288, 0.012551286, 0.5673542
136, 244124225, 0.78785634, 0.047648586, 0.58856505, 0.1749384, 0.20702396, 0.026824906, 0.6298828
137, 244140892, 0.7844322, 0.050266095, 0.5934479, 0.17308772, 0.17684703, 0.004310671, 0.49812126
138, 244157559, 0.78132766, 0.053397354, 0.5978704, 0.17095846, 0.023322683, -0.12995367, 0.20762253
139, 244174226, 0.778517, 0.05603922, 0.6019795, 0.16849795, -0.34093058, -0.22128052, 0.19416714
140, 244190893, 0.7753996, 0.057793226, 0.6065153, 0.1659962, -0.47542503, -0.040179443, 0.42886257
141, 244207560, 0.7716977, 0.058389585, 0.61169046, 0.16403842, -0.43613145, 0.06630358, 0.5577402
142, 244224227, 0.7674532, 0.057499263, 0.61737186, 0.162977, -0.47064766, 0.079118, 0.33281612
143, 244240894, 0.76299757, 0.05537593, 0.6231803, 0.1625266, -0.40950346, -0.023477633, 0.11096382
144, 244257561, 0.75835115, 0.053175393, 0.6291853, 0.16186994, -0.19087335, -0.04805316, 0.061174393
145, 244274228, 0.7538306, 0.05167133, 0.63506925, 0.16048901, -0.08191527, 0.02817786, 0.3689165
146, 244290895, 0.748874, 0.051563114, 0.64131504, 0.15888335, 0.07074855, 0.13465093, 0.9058924
147, 244307562, 0.7437063, 0.0528368, 0.6475197, 0.15756828, 0.361994, 0.05742671, 0.74701786
148, 244324229, 0.73914623, 0.05451208, 0.65291923, 0.1561658, 0.33647373, -0.15952441, 0.54827976
149, 244340896, 0.735041, 0.056560818, 0.65778863, 0.15436915, 0.085066795, -0.23531002, 0.55657387
150, 244357563, 0.73085755, 0.059286103, 0.66276336, 0.1519123, 0.07505252, -0.04826086, 0.55655766
151, 244374230, 0.72660404, 0.062192168, 0.6678189, 0.14898552, 0.20293501, 0.09906435, 0.46783447
152, 244390897, 0.7222936, 0.06472033, 0.67288, 0.14606784, 0.4381551, 0.28330648, 0.43196678
153, 244407564, 0.71804255, 0.06670432, 0.67781055, 0.14331216, 0.82477397, 0.37814197, 0.41773129
154, 244424231, 0.71399164, 0.06811845, 0.68248695, 0.14066827, 1.1257386, 0.39603797, 0.39932728
155, 244440898, 0.710282, 0.06901457, 0.68675447, 0.13822104, 1.3416182, 0.6097763, 0.64950943
156, 244457565, 0.7068927, 0.06984971, 0.6905686, 0.13615765, 1.4286224, 0.68835765, 0.88132954
157, 244474232, 0.7033466, 0.07102311, 0.6943454, 0.13469887, 1.3712864, 0.49287596, 1.0719242
158, 244490899, 0.6996251, 0.07251887, 0.69812715, 0.13373211, 1.2721575, 0.28592035, 0.78111744
159, 244507566, 0.69602835, 0.07408824, 0.70174956, 0.13267659, 1.0692288, -0.04966106, 0.56592655
160, 244524233, 0.69252294, 0.07560154, 0.70531243, 0.13126637, 0.8564735, -0.2714183, 0.34874344
161, 244540900, 0.68914896, 0.07676425, 0.7088023, 0.12953985, 0.57444125, -0.44451624, 0.30188084
162, 244557567, 0.6858916, 0.07762806, 0.71217865, 0.127783, 0.35664353, -0.41517997, 0.3683157
163, 244574234, 0.68264824, 0.07911909, 0.7154018, 0.12622143, 0.22688308, -0.2223893, 0.50640106
164, 244590901, 0.67952603, 0.08198428, 0.7183514, 0.12447664, 0.08185402, -0.3200934, 0.35587406
165, 244607568, 0.6765436, 0.08625685, 0.7211542, 0.12159491, -0.07921478, -0.4067395, 0.24947643
166, 244624235, 0.67364186, 0.09147921, 0.72384655, 0.11783298, -0.17746705, -0.26863822, 0.2861185
167, 244640902, 0.67052066, 0.09711176, 0.7266503, 0.11380266, -0.28537062, -0.13508625, 0.38861752
168, 244657569, 0.66711587, 0.102726884, 0.72959685, 0.10996526, -0.24193937, -0.035121094, 0.40074444
169, 244674236, 0.6631438, 0.10812366, 0.7329882, 0.10619755, -0.008853348, -0.0018139753, 0.4584322
170, 244690903, 0.6584607, 0.11293653, 0.7369992, 0.10250429, 0.5307199, 0.15857266, 0.4330206
171, 244707570, 0.65372217, 0.11641643, 0.7410701, 0.09954817, 0.91724086, 0.23017308, 0.3209133
172, 244724237, 0.64935106, 0.118395016, 0.74485946, 0.09752032, 1.1859494, 0.278849, 0.3397646
173, 244740904, 0.64553547, 0.11991418, 0.7481123, 0.09608544, 1.4720751, 0.3095945, 0.28987312
174, 244757571, 0.6422682, 0.12146509, 0.75086546, 0.09454553, 1.3963243, 0.18373536, 0.20924568
175, 244774238, 0.63925296, 0.122759104, 0.7534472, 0.09275412, 1.145693, 0.12544575, 0.09898949
176, 244790905, 0.63655293, 0.123205446, 0.7559013, 0.09074103, 0.8142796, 0.1898833, 0.20739365
177, 244807572, 0.63400185, 0.12234194, 0.7584032, 0.08887539, 0.5090476, 0.22471121, 0.1893034
178, 244824239, 0.6315247, 0.12029575, 0.7610125, 0.08698104, 0.23971139, 0.15684424, 0.11809063
179, 244840906, 0.6286786, 0.11762009, 0.76402724, 0.08480336, -0.015451451, 0.024158174, 0.04970932
180, 244857573, 0.6252164, 0.11456197, 0.7675949, 0.08232992, -0.13735005, -0.119628824, 0.07435131
181, 244874240, 0.62112045, 0.111066125, 0.7717075, 0.07963264, -0.07471502, -0.11867359, 0.054392815
182, 244890907, 0.61652994, 0.10749898, 0.77619195, 0.07655719, 0.18873836, -0.07234997, -0.0063228607
183, 244907574, 0.61164457, 0.10406059, 0.7808753, 0.07277585, 0.56786865, -0.021723894, -0.06969166
184, 244924241, 0.6066529, 0.10036482, 0.78560126, 0.06877392, 0.7903548, 0.10871385, -0.06531334
185, 244940908, 0.60180116, 0.0961747, 0.79013, 0.06542435, 0.88273, 0.3640766, -0.110256195
186, 244957575, 0.5976343, 0.09167188, 0.79397476, 0.06350936, 1.0645243, 0.4143119, 0.048233032
187, 244974242, 0.5938404, 0.08799036, 0.79732484, 0.062326185, 1.1656867, 0.31800663, 0.24413681
188, 244990909, 0.5904405, 0.08492284, 0.80021036, 0.061899967, 1.0975912, 0.26658753, 0.18785286
189, 245007576, 0.58746815, 0.082315475, 0.802652, 0.062091008, 0.91446304, 0.28372613, 0.1865139
190, 245024243, 0.5848114, 0.08036225, 0.8047354, 0.06275685, 0.79471684, 0.2974107, 0.16529942
191, 245040910, 0.58251506, 0.07941718, 0.80642784, 0.06358838, 0.827698, 0.111307554, 0.14036846
192, 245057577, 0.5806983, 0.07915773, 0.80772066, 0.06411623, 0.8819598, -0.074928164, -0.0026474
193, 245074244, 0.5793531, 0.07903918, 0.8086688, 0.06447916, 0.8764922, -0.18994583, 0.03959179
194, 245090911, 0.57824, 0.07883071, 0.8094247, 0.06523984, 0.759881, -0.27005064, 0.094429016
195, 245107578, 0.5772866, 0.078598514, 0.8100567, 0.06611124, 0.7192571, -0.35667992, 0.030550957
196, 245124245, 0.5765005, 0.07824885, 0.81063056, 0.06635331, 0.5469393, -0.38980737, 0.037550926
197, 245140912, 0.5755114, 0.077978395, 0.8113514, 0.066446766, 0.41763127, -0.41936448, -0.034893036
198, 245157579, 0.5747476, 0.076969735, 0.8118965, 0.06756543, 0.38128316, -0.3591387, -0.010684013
199, 245174246, 0.57358253, 0.074868396, 0.8128574, 0.06827103, 0.3385354, -0.23868759, 0.3777237
200, 245190913, 0.5718056, 0.072514154, 0.81421757, 0.06949897, 0.44909117, -0.17991748, 0.19054222
201, 245207580, 0.5700838, 0.07047391, 0.81549186, 0.07078878, 0.57788336, -0.1773336, 0.07881737
202, 245224247, 0.5686681, 0.0690433, 0.81651896, 0.07173929, 0.59725076, -0.25814462, 0.0107803345
203, 245240914, 0.5676755, 0.06808835, 0.8172569, 0.07211051, 0.5711248, -0.20741175, -0.14220715
204, 245257581, 0.5671247, 0.06722177, 0.81769913, 0.07224305, 0.6181707, -0.120984964, -0.068902016
205, 245274248, 0.5665505, 0.06667234, 0.81814635, 0.07219622, 0.53125006, -0.13039857, 0.07921505
206, 245290915, 0.5656819, 0.066135906, 0.8188032, 0.072052084, 0.52874404, -0.1625472, 0.0948534
207, 245307582, 0.5648617, 0.06507578, 0.819444, 0.07216719, 0.43257445, -0.15631935, -0.006187439
208, 245324249, 0.5641516, 0.063189335, 0.8200274, 0.07276975, 0.34251976, -0.16948205, -0.040311813
209, 245340916, 0.5634153, 0.06068232, 0.8206355, 0.07374662, 0.35998103, -0.11941132, -0.015031815
210, 245357583, 0.5625954, 0.05808581, 0.8212802, 0.07491024, 0.42316055, -0.12033214, 0.03766632
211, 245374250, 0.56183183, 0.05576032, 0.8218668, 0.07596568, 0.44253108, -0.098862015, 0.054675102
212, 245390917, 0.5611973, 0.053839047, 0.82236314, 0.07666882, 0.4862104, -0.063729495, 0.025876999
213, 245407584, 0.5606514, 0.05229243, 0.82280105, 0.07703374, 0.36748123, 0.053548705, 0.010540009
214, 245424251, 0.56015, 0.05105445, 0.8231878, 0.07737727, 0.23938729, 0.12446285, 0.0076675415
215, 245440918, 0.5595295, 0.050191045, 0.82362247, 0.07780509, 0.107558906, 0.08823512, 0.0050344467
216, 245457585, 0.55880123, 0.049645815, 0.8240954, 0.07837914, -0.04386889, 0.037343845, 0.07023811
217, 245474252, 0.5577324, 0.049167033, 0.82478404, 0.079049215, -0.101942025, -0.0389214, 0.01821518
218, 245490919, 0.556475, 0.048114035, 0.82560134, 0.08002112, -0.03243888, 0.08021193, -0.080355644
219, 245507586, 0.55512846, 0.04644532, 0.8264412, 0.08167264, 0.067419104, 0.035079326, -0.081217766
220, 245524253, 0.5538386, 0.04443936, 0.8272169, 0.08366641, 0.18581526, -0.18054788, -0.15390491
221, 245540920, 0.5527644, 0.042406075, 0.827876, 0.08529228, 0.30479568, -0.38641945, -0.19979858
222, 245557587, 0.55187225, 0.040308613, 0.8284608, 0.08640077, 0.36801362, -0.17969407, -0.13709736
223, 245574254, 0.55107635, 0.03843583, 0.8289745, 0.08740232, 0.35099, 0.039620925, -0.12900734
224, 245590921, 0.55048746, 0.037057426, 0.82933456, 0.088287234, 0.4511922, 0.026541898, -0.0721941
225, 245607588, 0.55015564, 0.03646428, 0.8295176, 0.08887921, 0.5477726, -0.14204586, 0.014893532
226, 245624255, 0.55004907, 0.03661901, 0.82956, 0.08908002, 0.50102574, -0.40501165, 0.11591816
227, 245640922, 0.5499762, 0.03662056, 0.82959735, 0.08918208, 0.43908718, -0.61944413, 0.10040951
228, 245657589, 0.55000615, 0.035956774, 0.82959294, 0.08930883, 0.45826325, -0.45989782, -0.026597023
229, 245674256, 0.5500927, 0.034912776, 0.8295525, 0.08956438, 0.49972445, -0.16672046, 0.03047371
230, 245690923, 0.55004704, 0.034323066, 0.8295809, 0.08981089, 0.567971, -0.08533421, -0.034308434
231, 245707590, 0.5502516, 0.034055147, 0.82945323, 0.089838386, 0.45011485, -0.13876782, 0.014642715
232, 245724257, 0.55055916, 0.033542342, 0.82919765, 0.0905038, -0.11129291, -0.10718579, 0.069732666
233, 245740924, 0.5507808, 0.032282885, 0.8289722, 0.091671206, -0.43394995, -0.0921568, -0.1720295
234, 245757591, 0.55076426, 0.030445026, 0.8289108, 0.09294468, -0.4022518, 0.03066349, -0.03196907
235, 245774258, 0.5500131, 0.028845815, 0.8293101, 0.09433112, -0.07601586, 0.0032618362, -0.036512375
236, 245790925, 0.54937285, 0.02704717, 0.8296583, 0.095526576, 0.20309281, 0.015232296, -0.23473549
237, 245807592, 0.5490053, 0.024795804, 0.8298148, 0.09688136, 0.22470517, 0.08640075, -0.2281475
238, 245824259, 0.54878783, 0.02207183, 0.82981986, 0.098711014, -0.22359788, 0.12999016, -0.12743759
239, 245840926, 0.54782, 0.018904977, 0.83015233, 0.10189762, -0.5473895, 0.09025975, 0.0034761429
240, 245857593, 0.54612976, 0.015434799, 0.83086574, 0.105670676, -0.32997128, -0.07620451, -0.11515713
241, 245874260, 0.54436886, 0.012097819, 0.83165175, 0.10895782, -0.011606581, -0.06409431, -0.17146969
242, 245890927, 0.54276854, 0.009515396, 0.83242774, 0.11124624, 0.288865, 0.033648178, -0.0657444
243, 245907594, 0.54152495, 0.008206593, 0.83305734, 0.11268896, 0.55554366, 0.012992791, -0.087210655
244, 245924261, 0.5408917, 0.0079989, 0.8333672, 0.11345212, 0.7147006, -0.14645287, 0.08351421
245, 245940928, 0.5411393, 0.008019598, 0.83314925, 0.11387034, 0.5285692, -0.3205584, 0.12078476
246, 245957595, 0.541791, 0.00770189, 0.8326778, 0.11424025, 0.17963378, -0.24808106, 0.19504833
247, 245974262, 0.542185, 0.007236168, 0.8323218, 0.11499331, 0.06328322, -0.15618081, 0.19563293
248, 245990929, 0.54202807, 0.007259732, 0.83230966, 0.115816996, 0.29467458, -0.17078544, 0.08202934
249, 246007596, 0.54183507, 0.0078734895, 0.8324104, 0.115956314, 0.6198707, -0.20400773, -0.16789913
250, 246024263, 0.5419696, 0.00879417, 0.8323726, 0.11553301, 0.81688887, -0.22100101, -0.27198792
251, 246040930, 0.54235375, 0.009748274, 0.8322032, 0.11487247, 0.81993, -0.2591553, -0.35474396
252, 246057597, 0.54298234, 0.010739655, 0.8319107, 0.113928944, 0.7748613, -0.32948717, -0.37640667
253, 246074264, 0.54380226, 0.011807694, 0.83148587, 0.11300937, 0.5932159, -0.47194603, -0.2559414
254, 246090931, 0.5446135, 0.012460927, 0.830972, 0.11281297, 0.34068605, -0.6060435, 0.028605461
255, 246107598, 0.5451043, 0.01230207, 0.8306174, 0.11306953, 0.31867763, -0.48658457, 0.12113762
256, 246124265, 0.545191, 0.012642269, 0.83061475, 0.11263312, 0.6653292, -0.027420167, -0.039423943
257, 246140932, 0.5452367, 0.013967585, 0.83078974, 0.11095251, 1.4894332, 0.46172825, 0.057613373
258, 246157599, 0.5457723, 0.017314184, 0.8306848, 0.108607754, 2.204422, 1.103451, 0.17354679
259, 246174266, 0.54713345, 0.023424208, 0.8299333, 0.10633612, 2.8403723, 1.4877687, 0.44009686
260, 246190933, 0.5495975, 0.03289815, 0.8280766, 0.10559253, 3.5444927, 1.1344986, 0.34581566
261, 246207600, 0.55345917, 0.041306645, 0.82549703, 0.1026229, 4.2312856, -0.16271079, 0.7722273
262, 246224267, 0.5592563, 0.04945398, 0.82156014, 0.099124976, 4.004179, -0.23178625, 0.37463665
263, 246240934, 0.5674897, 0.056190643, 0.815974, 0.094787896, 3.2982252, -0.637515, 0.61464405
264, 246257601, 0.5762827, 0.060338967, 0.80987275, 0.091453075, 2.562624, -0.8578118, 0.9462538
265, 246274268, 0.5841163, 0.06049875, 0.80438215, 0.09009879, 1.8619648, -0.6668811, 1.1487331
266, 246290935, 0.59023166, 0.056714695, 0.800109, 0.09075135, 1.6701925, -0.19003096, 1.497817
267, 246307602, 0.5950316, 0.050736696, 0.7967004, 0.09290644, 2.0961657, 0.21927509, 1.3710327
268, 246324269, 0.5996591, 0.04474815, 0.7933047, 0.09525881, 2.7212822, 0.24698846, 1.1797323
269, 246340936, 0.60513234, 0.039814603, 0.7892148, 0.096797876, 2.9251592, 0.091023, 1.000309
270, 246357603, 0.61193836, 0.035871778, 0.78405327, 0.09749535, 2.8430123, -0.09811009, 0.9836092
271, 246374270, 0.61986685, 0.032165326, 0.77792615, 0.09778415, 2.4526608, -0.053642552, 1.2723656
272, 246390937, 0.62816626, 0.028300783, 0.771333, 0.098243155, 2.0391977, 0.03170959, 1.6522198
273, 246407604, 0.63623697, 0.024450501, 0.7646903, 0.09926727, 1.6242074, -0.0029273492, 1.7090359
274, 246424271, 0.64435905, 0.02051344, 0.75779426, 0.10064156, 1.2385, -0.075907834, 1.6807709
275, 246440938, 0.6528105, 0.016406586, 0.75041085, 0.10223955, 0.8806151, -0.0030570845, 1.9968262
276, 246457605, 0.6613199, 0.012434024, 0.7427652, 0.10393069, 0.71847343, 0.0027500056, 2.0917006
277, 246474272, 0.6699836, 0.008687282, 0.73476624, 0.10566552, 0.6320079, 0.016970836, 1.9793234
278, 246490939, 0.67896044, 0.004978012, 0.7262549, 0.10743357, 0.36586747, -0.04021973, 1.8087711
279, 246507606, 0.68807954, 0.0012516105, 0.7174269, 0.10882975, 0.17116399, -0.032116447, 1.9349136
280, 246524273, 0.6971629, -0.0022785785, 0.7084768, 0.10963325, 0.14877023, 0.0034414963, 1.8266182
281, 246540940, 0.7064967, -0.0059204455, 0.69910806, 0.10988839, 0.095319785, -0.06108056, 1.4997845
282, 246557607, 0.7159117, -0.01017276, 0.68935466, 0.11025971, -0.31546843, 0.3233743, 1.6000853
283, 246574274, 0.7251503, -0.014254558, 0.6793948, 0.111251056, -0.36546424, 0.6150098, 1.5547314
284, 246590941, 0.7342576, -0.017421499, 0.6693143, 0.1121645, -0.36184826, 0.5131871, 1.4469872
285, 246607608, 0.74299294, -0.01988697, 0.6594063, 0.112913184, -0.6540919, 0.49827582, 1.3796062
286, 246624275, 0.7512788, -0.02237899, 0.6497099, 0.113826916, -0.85411096, 0.37209943, 1.5013962
287, 246640942, 0.759359, -0.025580574, 0.6398958, 0.115121365, -0.65913075, 0.14094977, 1.4838495
288, 246657609, 0.7676091, -0.029054733, 0.62959725, 0.116358444, -0.63729, -0.05410613, 1.5711622
289, 246674276, 0.7755826, -0.032334086, 0.6194073, 0.11730667, -0.73721635, -0.14176388, 1.5990906
290, 246690943, 0.783235, -0.035913683, 0.6093475, 0.118105784, -0.8004151, -0.1378132, 1.5127926
291, 246707610, 0.7907791, -0.040103246, 0.59905106, 0.11915575, -1.0414407, -0.021708556, 1.2423248
292, 246724277, 0.79821134, -0.043863177, 0.58862704, 0.120220736, -1.2255234, -0.0994964, 1.2061796
293, 246740944, 0.8056879, -0.045987096, 0.57811385, 0.12056972, -1.2503852, -0.21489963, 1.1438465
294, 246757611, 0.8131906, -0.046442684, 0.5676015, 0.119970106, -1.278849, -0.30788207, 0.89918613
295, 246774278, 0.82057273, -0.04600141, 0.5571518, 0.11885502, -1.5020982, -0.28000873, 0.5719347
296, 246790945, 0.8274451, -0.045154773, 0.5471913, 0.11780335, -1.8344378, -0.23977031, 0.39759636
297, 246807612, 0.8336799, -0.04429771, 0.5378345, 0.11725913, -1.8385715, -0.15000127, 0.59288883
298, 246824279, 0.8396665, -0.044163037, 0.52844477, 0.11728715, -1.3421125, -0.29469523, 0.55360794
299, 246840946, 0.8458337, -0.04562226, 0.5183345, 0.11753063, -1.0712533, -0.34373248, 0.45763683
300, 246857613, 0.85231876, -0.048494108, 0.50720394, 0.11809175, -1.1796875, -0.27275994, 0.2535801
301, 246874280, 0.85900956, -0.051193103, 0.4954656, 0.11830369, -1.4441167, -0.23326088, 0.22627926
302, 246890947, 0.8654747, -0.052412987, 0.4840452, 0.11792686, -1.763595, -0.20985076, 0.09002876
303, 246907614, 0.8712786, -0.052810833, 0.47357294, 0.11753092, -1.8457743, -0.1093916, -0.10069656
304, 246924281, 0.8764514, -0.05385376, 0.4637274, 0.11785528, -1.8079431, 0.02406958, -0.49377632
305, 246940948, 0.8813572, -0.055633042, 0.4538316, 0.118959375, -1.7127655, 0.033817567, -0.49649715
306, 246957615, 0.8861577, -0.056194898, 0.44401437, 0.12007512, -1.2918061, -0.17402436, 0.23524189
307, 246974282, 0.89108866, -0.05507988, 0.43401602, 0.120654345, -0.8212782, -0.30277857, 0.42990303
308, 246990949, 0.89614683, -0.053877138, 0.42357424, 0.120843895, -0.76579875, -0.30198243, 0.32099533
309, 247007616, 0.90095747, -0.054731607, 0.41294697, 0.12146976, -1.2226899, -0.07567721, 0.019572258
310, 247024283, 0.9052352, -0.05674657, 0.4027563, 0.12294974, -1.5780998, -0.1114877, -0.090592384
311, 247040950, 0.90898633, -0.057678513, 0.39358416, 0.124534845, -1.4205275, -0.35832047, -0.18300343
312, 247057617, 0.91252244, -0.057005152, 0.3850569, 0.12563705, -1.0606583, -0.44139835, -0.2524767
313, 247074284, 0.91628534, -0.056589015, 0.3758183, 0.12641019, -0.8792566, -0.4517005, -0.2604723
314, 247090951, 0.92026365, -0.057481717, 0.3656848, 0.1268278, -0.99649763, -0.5225748, -0.077545166
315, 247107618, 0.9239771, -0.059365295, 0.35576195, 0.12718415, -1.1664495, -0.36738098, -0.096116066
316, 247124285, 0.9273429, -0.061592657, 0.3463788, 0.12752897, -1.1341773, -0.38507968, -0.20274544
317, 247140952, 0.93036735, -0.064073734, 0.33753544, 0.12798853, -1.1560137, -0.33286238, -0.45211887
318, 247157619, 0.93323445, -0.067048155, 0.3287843, 0.12837054, -1.1705984, -0.19198349, -0.66404724
319, 247174286, 0.93592626, -0.069996715, 0.32011327, 0.1291128, -1.1102166, -0.09111159, -0.6694584
320, 247190953, 0.9385184, -0.07152177, 0.3116426, 0.13018051, -0.91853744, -0.1294415, -0.6263275
321, 247207620, 0.9410519, -0.0704808, 0.30372292, 0.1311728, -0.91684073, -0.3577507, -0.34157085
322, 247224287, 0.94360965, -0.068012826, 0.29599586, 0.13176468, -1.0026145, -0.44979042, -0.323287
323, 247240954, 0.9460502, -0.06634045, 0.28834972, 0.1320701, -1.0872298, -0.4511466, -0.75447273
324, 247257621, 0.9482697, -0.06647856, 0.28093553, 0.13206221, -1.0864837, -0.53257936, -1.1581345
325, 247274288, 0.9502795, -0.06804032, 0.27402052, 0.13134848, -0.99327904, -0.5460019, -1.4990559
326, 247290955, 0.9520718, -0.07083954, 0.26770204, 0.12991026, -0.9423022, -0.04091824, -1.8581791
327, 247307622, 0.95343345, -0.074468955, 0.26236352, 0.12878118, -1.0110989, 0.5244072, -1.7568045
328, 247324289, 0.9544083, -0.07833134, 0.2577685, 0.12854826, -0.7831248, 0.7900902, -1.5687637
329, 247340956, 0.9553719, -0.08091857, 0.25317875, 0.12890837, -0.55120957, 0.8676057, -1.0422583
330, 247357623, 0.95651495, -0.080691606, 0.24831408, 0.13003218, -0.26755595, 0.6842564, -0.56715775
331, 247374290, 0.958079, -0.077874705, 0.24234152, 0.13149457, -0.104827575, 0.3471762, -0.45678997
332, 247390957, 0.9599462, -0.0745489, 0.23520641, 0.13275445, -0.15266135, -0.0019315431, -0.88681126
333, 247407624, 0.96168727, -0.07283329, 0.22791825, 0.1338144, -0.31103382, -0.049046732, -1.481082
334, 247424291, 0.96314883, -0.072809145, 0.22117803, 0.13462447, -0.3695989, -0.03728168, -1.6803303
335, 247440958, 0.96424055, -0.07323605, 0.21579556, 0.13531068, -0.5858358, -0.086334564, -1.4130678
336, 247457625, 0.965045, -0.073730305, 0.21153894, 0.13602765, -0.34929296, -0.109771624, -1.2051935
337, 247474292, 0.96579164, -0.0747727, 0.20728733, 0.13670306, 0.09640729, -0.01276326, -1.1853771
338, 247490959, 0.96655756, -0.0760316, 0.20281482, 0.13730302, 0.03680532, 0.16929509, -0.98520374
339, 247507626, 0.9673535, -0.076569155, 0.19822672, 0.13809651, -0.08486631, 0.19117342, -0.7809429
340, 247524293, 0.9682161, -0.07631632, 0.19351949, 0.13886607, -0.15358223, 0.013792761, -0.9862032
341, 247540960, 0.96903217, -0.07640825, 0.18903407, 0.13930106, 0.03039385, 0.01766747, -1.5631943
342, 247557627, 0.96961635, -0.07743905, 0.18514076, 0.13989383, -0.21463166, 0.22346102, -1.5931625
343, 247574294, 0.9700143, -0.07815548, 0.18205553, 0.14078355, -0.2298586, 0.23353139, -1.0347767
344, 247590961, 0.97040457, -0.07833839, 0.17914091, 0.14172825, -0.046731755, 0.09103085, -0.57611275
345, 247607628, 0.9708556, -0.079041526, 0.17570235, 0.14255083, 0.18260404, -0.048524216, -0.63483906
346, 247624295, 0.9712637, -0.08076403, 0.1719398, 0.14339064, 0.13599266, -0.18341188, -0.9214382
347, 247640962, 0.9716304, -0.0821425, 0.16841531, 0.14430417, -0.10815099, -0.31640476, -0.96835613
348, 247657629, 0.97198725, -0.082026444, 0.16559054, 0.1452327, -0.06554495, -0.49658957, -0.9827604
349, 247674296, 0.9723024, -0.08118935, 0.16341922, 0.14605011, 0.14124644, -0.63139576, -1.0812187
350, 247690963, 0.97262794, -0.080952115, 0.16135494, 0.14630957, 0.22120373, -0.45688903, -0.958745
351, 247707630, 0.97287244, -0.08166228, 0.15937935, 0.14645493, 0.13957077, -0.13854685, -0.5366154
352, 247724297, 0.97308606, -0.08249898, 0.15734106, 0.14676946, -0.04017176, -0.0018004527, -0.009137154
353, 247740964, 0.9733111, -0.082498886, 0.15532559, 0.14742257, 0.074641705, -0.16801922, 0.168293
354, 247757631, 0.9736688, -0.082215026, 0.15292749, 0.14772603, 0.25649196, -0.35554257, -0.29865646
355, 247774298, 0.97406095, -0.08259336, 0.15032735, 0.14759943, 0.17801768, -0.3035439, -0.7770796
356, 247790965, 0.97450626, -0.083380505, 0.14767803, 0.14688985, 0.06410832, -0.18377514, -0.80576897
357, 247807632, 0.9748901, -0.084351525, 0.14555387, 0.14590438, -0.00794041, 0.0077504236, -0.59123135
358, 247824299, 0.97514635, -0.085726224, 0.14381176, 0.14511718, 0.026656266, 0.18488276, -0.40231895
359, 247840966, 0.9752611, -0.08737339, 0.1425547, 0.14460362, 0.056649134, 0.16896266, -0.42023563
360, 247857633, 0.97532, -0.088630445, 0.14165322, 0.14432602, 0.18203253, 0.17558329, -0.49243736
361, 247874300, 0.97542197, -0.08888712, 0.14068192, 0.14442894, 0.12952732, 0.09316221, -0.276515
362, 247890967, 0.97562486, -0.08831456, 0.13945651, 0.14459811, 0.13846157, -0.26665106, -0.21825504
363, 247907634, 0.97588927, -0.08794881, 0.13804069, 0.14439513, 0.22383168, -0.45042565, -0.46582317
364, 247924301, 0.9761033, -0.0882179, 0.13697603, 0.14379677, 0.0672945, -0.399259, -0.54354286
365, 247940968, 0.9762972, -0.088604756, 0.13633054, 0.14285342, 9.5920585E-4, -0.33300793, -0.3383274
366, 247957635, 0.976586, -0.08913643, 0.13539907, 0.14142819, 0.35812387, -0.06865983, -0.29034328
367, 247974302, 0.97688514, -0.090181366, 0.13394402, 0.14007793, 0.28071126, 0.40600553, -0.5095873
368, 247990969, 0.9771045, -0.09070281, 0.13280839, 0.13929102, -0.14563411, 0.38212338, -0.3097515
369, 248007636, 0.9772835, -0.09011511, 0.13239624, 0.13880806, 0.0749734, 0.30650264, -0.14071369
370, 248024303, 0.9774835, -0.08961392, 0.13175988, 0.13832867, 0.18688455, 0.32634497, -0.31169605
371, 248040970, 0.97759956, -0.089825116, 0.13121353, 0.1378908, 0.11381481, 0.35126045, -0.5417242
372, 248057637, 0.9776557, -0.09012934, 0.13087468, 0.13761555, 0.2125862, 0.30080816, -0.5397053
373, 248074304, 0.9777305, -0.09003926, 0.13050959, 0.13749032, 0.09941432, 0.35304224, -0.41498756
374, 248090971, 0.9777633, -0.08984622, 0.13019031, 0.13768563, 0.056526426, 0.29276067, -0.30191612
375, 248107638, 0.977763, -0.09008757, 0.12992655, 0.13777894, 0.18036243, 0.19800337, -0.44333172
376, 248124305, 0.9777146, -0.09061912, 0.12988146, 0.13781604, 0.12981912, 0.14721285, -0.37212372
377, 248140972, 0.9776835, -0.09099667, 0.1299089, 0.13776176, 0.087619424, 0.15335046, -0.13364315
378, 248157639, 0.9776864, -0.0916983, 0.12945993, 0.1376982, 0.24127308, 0.14829515, -0.1165638
379, 248174306, 0.9777053, -0.092439935, 0.12863521, 0.13784224, 0.059969757, 0.022954892, -0.17499828
380, 248190973, 0.977739, -0.09240735, 0.12814121, 0.13808413, 0.0083025005, -0.06368862, -0.16439915
381, 248207640, 0.9777715, -0.09190716, 0.1281258, 0.13820218, -0.035340752, -0.07550134, -0.15219593
382, 248224307, 0.97774935, -0.09213193, 0.12812434, 0.13821092, 0.35801065, -0.050474368, -0.4565792
383, 248240974, 0.9777428, -0.09289147, 0.12767172, 0.13816778, 0.35499954, -0.051808625, -0.7097893
384, 248257641, 0.9777902, -0.09287895, 0.12716226, 0.13831058, 0.036479216, 0.020836158, -0.8650837
385, 248274308, 0.97788346, -0.0916739, 0.12713216, 0.13848245, 0.22642589, -0.08996949, -1.0260696
386, 248290975, 0.9778801, -0.090731695, 0.12783065, 0.1384837, 0.46630266, 0.077501774, -1.3493471
387, 248307642, 0.9777219, -0.09023856, 0.12905143, 0.13879015, 0.3065426, 0.352754, -1.3574619
388, 248324309, 0.97752094, -0.08813555, 0.13093254, 0.13979189, 0.031295277, 0.478308, -0.8304682
389, 248340976, 0.9773752, -0.0834118, 0.13324521, 0.14151432, 0.06314655, 0.10115129, -0.092430115
390, 248357643, 0.97728646, -0.078615144, 0.13520554, 0.14300498, 0.3503663, -0.27120912, -0.08373737
391, 248374310, 0.97718126, -0.076864205, 0.13639131, 0.14354874, 0.6254423, -0.3432754, -0.39826488
392, 248390977, 0.977, -0.07726884, 0.1373603, 0.14364083, 0.28850964, -0.14427449, -0.5257416
393, 248407644, 0.97675914, -0.07703184, 0.13895482, 0.14387244, 0.07633604, -0.12114363, -0.25490665
394, 248424311, 0.9765868, -0.07529928, 0.14075837, 0.14420678, 0.20363438, -0.24998963, -0.27908897
395, 248440978, 0.9764137, -0.07374905, 0.14256659, 0.14440319, 0.49436986, -0.25011194, -0.73730564
396, 248457645, 0.9762094, -0.072758764, 0.14428611, 0.14457911, 0.2929743, -0.15674204, -0.7830982
397, 248474312, 0.97593534, -0.07147627, 0.14653888, 0.14480352, 0.14908057, -0.29106304, -0.52749825
398, 248490979, 0.97569376, -0.07025195, 0.14882945, 0.1446935, 0.21986556, -0.46508625, -0.44565105
399, 248507646, 0.9754312, -0.070185654, 0.15109904, 0.14414369, 0.35893175, -0.37503105, -0.75249577
400, 248524313, 0.9750943, -0.07090337, 0.15351681, 0.14351518, 0.2207966, -0.19169544, -0.90157795
401, 248540980, 0.97468907, -0.07089179, 0.15645403, 0.14310032, 0.056881588, -0.23227936, -0.8782215
402, 248557647, 0.97431445, -0.06981944, 0.1596727, 0.14262371, 0.07017603, -0.36114648, -0.9065466
403, 248574314, 0.97390616, -0.06891623, 0.16311641, 0.14195363, 0.41400596, -0.30950615, -1.1751757
404, 248590981, 0.9734599, -0.067969345, 0.16664788, 0.14136691, 0.14199811, -0.049659047, -1.048482
405, 248607648, 0.97300065, -0.06545669, 0.17050251, 0.14111738, -0.005621798, 0.011114294, -0.67388153
406, 248624315, 0.97264, -0.061855562, 0.17416824, 0.14075162, 0.11622406, -0.14651799, -0.47337532
407, 248640982, 0.9723481, -0.0593685, 0.17734303, 0.13987242, 0.1466901, -0.17241623, -0.90618134
408, 248657649, 0.9719597, -0.0592476, 0.1805793, 0.13847454, 0.1574755, 0.034658644, -1.4867611
409, 248674316, 0.9714304, -0.060284045, 0.18420768, 0.13695438, 0.033933178, 0.36105287, -1.692069
410, 248690983, 0.9707561, -0.060488787, 0.188553, 0.13572548, -0.16757716, 0.46834034, -1.5966959
411, 248707650, 0.9699887, -0.0593163, 0.19327897, 0.13508125, -0.10353288, 0.37611133, -1.5669451
412, 248724317, 0.96918595, -0.057868626, 0.1977726, 0.13496722, -0.09566411, -0.01617038, -1.9499865
413, 248740984, 0.968251, -0.055649865, 0.2025751, 0.13548666, -0.52887577, -0.22189917, -2.152104
414, 248757651, 0.9668925, -0.050121266, 0.20979059, 0.13636415, -0.6275539, -0.4218977, -1.4941149
415, 248774318, 0.96532136, -0.042806845, 0.21831569, 0.13660322, -0.32059446, -0.55951256, -0.5832348
416, 248790985, 0.96371996, -0.03860675, 0.22646277, 0.13589679, 0.06335743, -0.45809424, -0.10143852
417, 248807652, 0.96235865, -0.038885135, 0.23284097, 0.13468118, -0.13352329, -0.36670968, 0.3569708
418, 248824319, 0.96104115, -0.039631296, 0.2388484, 0.13334441, -0.4098244, -0.004977047, 0.55792904
419, 248840986, 0.95973563, -0.038114566, 0.2449719, 0.1320746, -0.2946728, 0.15702124, 0.54158115
420, 248857653, 0.9584766, -0.035885293, 0.25095505, 0.13060057, -0.19938406, 0.221226, 0.14143467
421, 248874320, 0.9572136, -0.035676498, 0.25645736, 0.12922479, -0.1923159, 0.34604263, -0.49822998
422, 248890987, 0.9557863, -0.036390927, 0.26222727, 0.12800533, -0.52925295, 0.37843543, -0.5193291
423, 248907654, 0.9541329, -0.03617707, 0.2686748, 0.12702714, -0.350507, 0.33138376, -0.3637352
424, 248924321, 0.9523921, -0.034680296, 0.27531913, 0.12627849, -0.16944383, 0.12194712, -0.3535328
425, 248940988, 0.9507206, -0.03321174, 0.28138044, 0.12590683, -0.08821051, -0.09889677, -0.717103
426, 248957655, 0.94965297, -0.030889003, 0.28532216, 0.12568483, -0.7732815, -0.7052558, -0.9876194
427, 248974322, 0.9487078, -0.025306571, 0.28918245, 0.12524727, -1.2703607, -0.6747379, -1.632947
428, 248990989, 0.94741887, -0.016108315, 0.29449475, 0.12414048, -1.141339, -0.42227647, -1.704032
429, 249007656, 0.9453705, -0.0062575764, 0.30203316, 0.12252157, -1.1258686, -0.0034370564, -1.2945957
430, 249024323, 0.94275403, 1.7776716E-4, 0.3106378, 0.12132283, -0.7743696, 0.28294164, -0.4472065
431, 249040990, 0.94023293, 0.0019191146, 0.31850716, 0.12046432, -0.6774233, 0.04820949, 0.5901327
432, 249057657, 0.93790853, 0.0016625269, 0.32579577, 0.11908845, -0.37709093, 0.18931633, 0.86747074
433, 249074324, 0.9355569, 0.001996806, 0.33287513, 0.11799808, -0.068798855, 0.4542555, 0.8851013
434, 249090991, 0.9332435, 0.0049967053, 0.33963093, 0.11697199, -0.06746157, 0.43194422, 1.0816259
435, 249107658, 0.93097764, 0.00987472, 0.346062, 0.115863, -0.19443883, 0.18406099, 0.9232435
436, 249124325, 0.9288683, 0.013990372, 0.35201603, 0.11442407, -0.42198554, -0.14965245, 0.73990154
437, 249140992, 0.9266235, 0.014983636, 0.3583388, 0.112862706, -0.49085167, -0.089168325, 0.630496
438, 249157659, 0.9242443, 0.012173414, 0.36486337, 0.11179941, -0.29067814, -0.024455935, 0.69047546
439, 249174326, 0.9220954, 0.008157135, 0.3707017, 0.110696875, -0.41145316, -0.18153739, 0.68747807
440, 249190993, 0.9200748, 0.004175497, 0.37612692, 0.10942333, -0.6360479, -0.37500748, 0.095440865
441, 249207660, 0.91789067, 0.0011197787, 0.3818709, 0.107936464, -0.9580456, -0.08357293, -0.19754982
442, 249224327, 0.91528744, -1.1780771E-4, 0.38853043, 0.10626975, -0.85052717, 0.14173068, -0.18131924
443, 249240994, 0.9126172, -5.1489525E-4, 0.395277, 0.104335725, -0.6332909, 0.1416578, -0.3175192
444, 249257661, 0.9100736, -0.0018114552, 0.40148982, 0.10280487, -0.7648095, 0.21626298, -0.6840315
445, 249274328, 0.9075412, -0.0029098194, 0.40748635, 0.1015664, -1.117821, 0.11446806, -0.5366926
446, 249290995, 0.90439844, -0.0014807713, 0.41479173, 0.10004639, -0.97868454, 0.38186345, -0.29518318
447, 249307662, 0.90093404, 0.0016382537, 0.42260376, 0.09859818, -0.75694585, 0.32387716, -0.027810097
448, 249324329, 0.8975525, 0.0042626197, 0.43001035, 0.097327195, -0.70794624, 0.18862265, -0.15202236
449, 249340996, 0.8943721, 0.0055768136, 0.4368216, 0.09620073, -0.9484068, 0.063499615, -0.3322935
450, 249357663, 0.8910765, 0.006122548, 0.44373503, 0.095104225, -1.164657, -0.17243284, -0.26197433
451, 249374330, 0.88730174, 0.0065227756, 0.45158234, 0.09341731, -0.8910038, 0.041959, -0.0967474
452, 249390997, 0.88317853, 0.0069549787, 0.45982674, 0.09223165, -0.72993344, 0.3327243, 0.13620663
453, 249407664, 0.8791803, 0.0077885306, 0.46760508, 0.09125103, -0.7651126, 0.42416775, -0.112888336
454, 249424331, 0.8754292, 0.009364865, 0.47476268, 0.0902025, -1.152418, 0.39960146, -0.033189774
455, 249440998, 0.8711967, 0.011631344, 0.48266736, 0.088958, -1.1319804, 0.60320956, 0.18530273
456, 249457665, 0.86667204, 0.013275715, 0.49088708, 0.0879385, -0.5544972, 0.5375022, 0.3820467
457, 249474332, 0.86224496, 0.01327832, 0.49872515, 0.08735285, -0.40841404, 0.4324499, 0.38812637
458, 249490999, 0.85802305, 0.01225199, 0.5060422, 0.086993106, -0.5610904, 0.41164562, -0.05426693
459, 249507666, 0.8538186, 0.010733767, 0.51319957, 0.08663282, -1.0444331, 0.6512857, -0.021914482
460, 249524333, 0.84932894, 0.009500391, 0.52060515, 0.08672119, -1.1749182, 0.64680517, -0.097735405
461, 249541000, 0.84426516, 0.009360712, 0.5287615, 0.08683475, -1.204544, 0.5071073, 0.16545391
462, 249557667, 0.8387842, 0.010437464, 0.53735614, 0.08706654, -0.8705427, 0.29271734, 0.45157146
463, 249574334, 0.83350015, 0.011724764, 0.54547143, 0.0871845, -0.69964385, -0.39210942, 0.12906551
464, 249591001, 0.8281719, 0.012666593, 0.55355334, 0.08688993, -0.7588323, -0.33636856, 0.51584816
465, 249607668, 0.82277995, 0.014505711, 0.5616192, 0.08606208, -0.21967793, -0.0052315723, 1.2484379
466, 249624335, 0.8176036, 0.017611649, 0.56921965, 0.08487382, 0.052467432, 0.039973643, 1.3315792
467, 249641002, 0.81284446, 0.021091213, 0.5760684, 0.083572, -0.15443628, -0.131915, 1.0273485
468, 249657669, 0.80824065, 0.023955658, 0.5826185, 0.08203057, -0.37278607, -0.31889248, 0.30989456
469, 249674336, 0.8033161, 0.025987275, 0.58955127, 0.080232695, -0.5346774, 0.0042162645, 0.44943142
470, 249691003, 0.7978931, 0.027615288, 0.59700394, 0.078679286, -0.33145362, 0.34261435, 0.7134142
471, 249707670, 0.79203767, 0.02938812, 0.6048432, 0.077314675, -0.13894773, 0.31071347, 1.1078701
472, 249724337, 0.78609514, 0.031421795, 0.612569, 0.07633211, 0.2116234, 0.23899148, 1.1969643
473, 249741004, 0.7807042, 0.033132143, 0.6194336, 0.07553308, 0.25386646, 0.081842676, 0.8966284
474, 249757671, 0.77548337, 0.034536462, 0.6259711, 0.074785315, 0.023797425, 0.034778617, 0.944088
475, 249774338, 0.77015, 0.03584793, 0.6325305, 0.07409041, 0.018261902, 0.013906753, 1.1408339
476, 249791005, 0.76468295, 0.037291672, 0.63912183, 0.07343373, 0.13647656, -0.03841411, 1.1353636
477, 249807672, 0.759238, 0.038693853, 0.645565, 0.07284514, 0.011449228, -0.13759787, 1.17447
478, 249824339, 0.75386083, 0.039830938, 0.65183043, 0.0722818, -0.15031694, -0.23601381, 0.9599514
479, 249841006, 0.7483982, 0.041105103, 0.6581096, 0.07142963, -0.066481695, -0.10978487, 0.98397446
480, 249857673, 0.7429942, 0.0430072, 0.66421187, 0.07023214, 0.20371775, 0.055183925, 1.1043577
481, 249874340, 0.7376795, 0.045508977, 0.67011577, 0.06857718, 0.3363785, 0.085823976, 1.0744724
482, 249891007, 0.73246133, 0.047918815, 0.67581505, 0.06691847, 0.28480333, 0.09553726, 1.0210543
483, 249907674, 0.72716594, 0.050166003, 0.6814831, 0.06552852, 0.42073855, 0.03354991, 1.106967
484, 249924341, 0.7219581, 0.0525539, 0.6869561, 0.06407966, 0.6775675, -0.1859288, 1.1035604
485, 249941008, 0.71697843, 0.054971676, 0.6921231, 0.062337175, 0.94760865, -0.2918782, 1.0187254
486, 249957675, 0.71252006, 0.056775015, 0.6967204, 0.06060108, 0.92313623, -0.2272687, 0.85800266
487, 249974342, 0.7085184, 0.057482976, 0.7008487, 0.059233647, 0.65451837, -0.18356831, 0.7776785
488, 249991009, 0.70455056, 0.057258286, 0.7049518, 0.05807618, 0.51230824, -0.05777226, 0.6250229
489, 250007676, 0.7002647, 0.056947798, 0.7093092, 0.057155944, 0.5429389, 0.1923581, 0.6590071
490, 250024343, 0.6959472, 0.05718168, 0.7135838, 0.056446176, 0.59255564, 0.21642281, 0.74830246
491, 250041010, 0.69177425, 0.057963558, 0.71762586, 0.055696044, 0.49621218, 0.14345025, 0.92004967
492, 250057677, 0.6877843, 0.058945697, 0.72141725, 0.055094462, 0.320303, 0.013991352, 0.8841152
493, 250074344, 0.6839179, 0.05978567, 0.7250612, 0.05448215, 0.112284414, -0.19888236, 0.8376875
494, 250091011, 0.6794357, 0.060419384, 0.7292726, 0.05364899, -0.15708625, -0.10080929, 0.7757826
495, 250107678, 0.67418826, 0.06106961, 0.7341391, 0.05273116, -0.1197189, 0.15209931, 0.795537
496, 250124345, 0.6687202, 0.062570535, 0.7391166, 0.051039517, 0.58759946, 0.28091273, 0.6796837
497, 250141012, 0.6636617, 0.06521685, 0.74360156, 0.04854751, 1.2924381, 0.41509596, 0.5225754
498, 250157679, 0.65958965, 0.068615064, 0.74707323, 0.04599213, 1.583077, 0.51955736, 0.52130604
499, 250174346, 0.6561643, 0.07255553, 0.74985737, 0.043567616, 1.4931197, 0.33411232, 0.60036373
500, 250191013, 0.6529142, 0.07642694, 0.7524271, 0.041420605, 1.2019601, 0.2011026, 0.45729828
501, 250207680, 0.64952844, 0.07974581, 0.75511044, 0.039517123, 0.8870514, 0.11998181, 0.32757187
502, 250224347, 0.64572823, 0.08213495, 0.758187, 0.03796515, 0.7026465, 0.069569305, 0.25504494
503, 250241014, 0.64186734, 0.08285768, 0.7614298, 0.036954258, 0.7068472, -0.117012665, 0.17833138
504, 250257681, 0.6383401, 0.08172947, 0.7645545, 0.03603551, 0.9006173, -0.40151528, 0.08741665
505, 250274348, 0.6351001, 0.07936316, 0.7675495, 0.034892336, 0.87000453, -0.2556225, 0.18640137
506, 250291015, 0.63208073, 0.07679211, 0.77036345, 0.033425357, 0.7459276, -0.0046137543, 0.32770252
507, 250307682, 0.62893397, 0.07462475, 0.773211, 0.03191209, 0.5688275, 0.24448417, 0.38648605
508, 250324349, 0.6255533, 0.07304701, 0.77614015, 0.030883158, 0.47878397, 0.2881134, 0.3148098
509, 250341016, 0.6221289, 0.07124388, 0.7790611, 0.03072842, 0.5136399, 0.22996092, 0.22951984
510, 250357683, 0.61878717, 0.06888874, 0.78188586, 0.03180417, 0.70480293, 0.046672802, 0.15919304
511, 250374350, 0.6156447, 0.06607354, 0.78452224, 0.03377395, 0.7900803, -0.16345474, 0.06549263
512, 250391017, 0.6126933, 0.062820196, 0.7869878, 0.03620537, 0.71195763, -0.28386557, -0.06755066
513, 250407684, 0.6098053, 0.05937467, 0.7893722, 0.038778745, 0.46636918, -0.13705586, -0.13607788
514, 250424351, 0.60689026, 0.05665424, 0.79168665, 0.04131522, 0.27894506, 0.008539536, -0.04982853
515, 250441018, 0.60395426, 0.055431407, 0.793899, 0.043487314, 0.19329579, -0.09818974, 0.117959976
516, 250457685, 0.6007491, 0.055156365, 0.7962569, 0.045097217, 0.038690988, -0.3574717, 0.21687412
517, 250474352, 0.5974008, 0.054566205, 0.79874796, 0.046223782, 0.11940196, -0.3671262, 0.13774109
518, 250491019, 0.5941136, 0.053772748, 0.8011956, 0.047153614, 0.37796354, -0.3066184, -0.021710396
519, 250507686, 0.59150696, 0.052619137, 0.8031689, 0.047649886, 0.52770114, -0.1789864, -0.076750755
520, 250524353, 0.5895742, 0.05143367, 0.8046446, 0.04800047, 0.680951, -0.12203344, 0.32638836
521, 250541020, 0.5875661, 0.050848383, 0.8061424, 0.048114598, 0.68663985, 0.066253066, 0.4252758
522, 250557687, 0.58560896, 0.051019188, 0.8075698, 0.047856588, 0.61179835, 0.18535483, 0.20144844
523, 250574354, 0.5838425, 0.052076973, 0.808815, 0.047268633, 0.4425342, 0.24212857, 0.10166836
524, 250591021, 0.58194673, 0.054073535, 0.810111, 0.046200287, 0.3534169, 0.1365477, 0.030683517
525, 250607688, 0.58010536, 0.056263037, 0.8113593, 0.044817302, 0.40477347, 0.07136528, -0.10364151
526, 250624355, 0.57847536, 0.058081236, 0.81246454, 0.043525986, 0.5540895, 0.07772079, -0.058506012
527, 250641022, 0.5772813, 0.0595092, 0.813241, 0.042943224, 0.59519935, 0.14284989, -0.027507782
528, 250657689, 0.5758901, 0.059991505, 0.81419915, 0.042793944, 0.49972266, 0.1316722, 0.17430592
529, 250674356, 0.57427627, 0.059489198, 0.81533206, 0.04360501, 0.4014525, -0.055914253, -0.02829647
530, 250691023, 0.572812, 0.058014255, 0.8163865, 0.04509819, 0.040373594, 0.12506346, 0.01701355
531, 250707690, 0.5711029, 0.05617294, 0.81761074, 0.04689144, -0.12421062, 0.13655818, 0.040010452
532, 250724357, 0.5691428, 0.054130636, 0.81899595, 0.048908696, -0.18141474, 0.08635057, -0.0070238113
533, 250741024, 0.56694686, 0.051781666, 0.8205386, 0.05105463, -0.14623156, -0.043152556, -0.0622921
534, 250757691, 0.5642882, 0.049106464, 0.8223749, 0.053545997, -0.14450872, -0.26209128, -0.07632828
535, 250774358, 0.5616807, 0.04543788, 0.82419205, 0.05619515, 0.068344004, -0.33676553, -0.1436882
536, 250791025, 0.559324, 0.041271646, 0.8258348, 0.058738742, 0.2968176, -0.19181064, -0.14947414
537, 250807692, 0.5575013, 0.037583064, 0.82708764, 0.060875844, 0.35555682, -0.16037744, -0.09621048
538, 250824359, 0.5561014, 0.034755077, 0.82804674, 0.062304467, 0.24371807, -0.23293357, 0.05466175
539, 250841026, 0.55484504, 0.032899402, 0.8289079, 0.06306014, 0.028475104, -0.28948116, 0.081549644
540, 250857693, 0.5536843, 0.031683467, 0.82971305, 0.06329363, -0.1174498, -0.19317634, 0.08771515
541, 250874360, 0.55232745, 0.030660104, 0.8306317, 0.063605, -0.17637765, -0.101655215, 0.057022095
542, 250891027, 0.5509129, 0.029457672, 0.83156294, 0.06426966, -0.0067670783, -0.1022081, 0.049315453
543, 250907694, 0.5496206, 0.028219787, 0.83238715, 0.06521266, 0.247495, -0.1327567, -0.01609993
544, 250924361, 0.5486287, 0.026869392, 0.8330057, 0.06622769, 0.48562258, -0.34471303, -0.030073166
545, 250941028, 0.54773813, 0.024992235, 0.83356845, 0.06724485, 0.44228476, -0.5543594, -0.03377533
546, 250957695, 0.54685646, 0.022034159, 0.834128, 0.068504915, 0.31760564, -0.37903085, -0.05853653
547, 250974362, 0.5459711, 0.018302213, 0.83464295, 0.07036937, 0.33506605, -0.060196243, -0.038666725
548, 250991029, 0.5451648, 0.015185593, 0.83508104, 0.07214281, 0.40963936, 0.073388554, -0.013554573
549, 251007696, 0.5446081, 0.013257396, 0.8353793, 0.07326389, 0.5613054, 0.052270494, 0.022589684
550, 251024363, 0.54421073, 0.012128254, 0.83561426, 0.07373236, 0.47570038, 0.049563117, -0.025212288
551, 251041030, 0.5439567, 0.010906365, 0.8357534, 0.07422048, 0.3570405, 0.27171555, -0.0138578415
552, 251057697, 0.54379636, 0.009718442, 0.8357977, 0.07505647, 0.36473337, 0.35951898, -0.03199768
553, 251074364, 0.5438731, 0.009194516, 0.8356981, 0.07567348, 0.3663592, 0.11544869, -0.026280403
554, 251091031, 0.5441555, 0.009434251, 0.8355107, 0.075681485, 0.15741257, -0.15772425, 0.013032913
555, 251107698, 0.5444213, 0.009813308, 0.83537203, 0.075251356, -0.073112875, -0.22657259, 0.037330627
556, 251124365, 0.5444745, 0.0096213585, 0.83536386, 0.07498079, -0.15730886, 0.0080817295, 0.031111717
557, 251141032, 0.54442674, 0.0093072895, 0.83538973, 0.075079724, 0.07540567, 0.25311077, 0.04413414
558, 251157699, 0.5444287, 0.009459547, 0.8353779, 0.075179406, 0.26171714, 0.03844211, -0.094742775
559, 251174366, 0.5447011, 0.009833559, 0.8352242, 0.07486537, 0.1604233, -0.20654653, -0.19436836
560, 251191033, 0.5450604, 0.009435907, 0.83500564, 0.07473963, -0.15740632, -0.08576326, -0.09181118
561, 251207700, 0.5452093, 0.008337154, 0.834867, 0.0753315, -0.28599197, 0.100341745, 0.019824982
562, 251224367, 0.54523456, 0.0073410324, 0.83479834, 0.076008976, -0.16911705, 0.17224593, 0.03580284
563, 251241034, 0.5452978, 0.0069762333, 0.83472985, 0.076340556, -0.05115988, 0.21165103, 0.10146332
564, 251257701, 0.5453749, 0.007420619, 0.8346815, 0.0762779, 0.084754325, 0.13547632, 0.115691185
565, 251274368, 0.5454853, 0.007840404, 0.8346259, 0.0760522, 0.22507039, 0.101019904, -0.0215559
566, 251291035, 0.54564285, 0.007871511, 0.83452046, 0.07607586, 0.4899793, 0.2416623, -0.0056447983
567, 251307702, 0.54562634, 0.008014826, 0.83451974, 0.076187596, 0.8259559, 0.19651102, 0.04031086
568, 251324369, 0.5456389, 0.008578271, 0.8345218, 0.07601578, 1.3124506, -0.0366849, -0.101878166
569, 251341036, 0.54591614, 0.009353911, 0.8344069, 0.07518937, 1.8012216, -0.09878723, -0.20006466
570, 251357703, 0.54670197, 0.00973709, 0.83396083, 0.07437549, 2.093284, -0.043282736, -0.2597723
571, 251374370, 0.54840493, 0.009644276, 0.83286965, 0.07407684, 2.1615245, -0.03631736, -0.14449501
572, 251391037, 0.551076, 0.009233202, 0.83109134, 0.0742781, 1.976829, -0.23077926, 0.08410931
573, 251407704, 0.5541517, 0.008579713, 0.8290225, 0.07459203, 1.5524915, -0.3695914, 0.3951311
574, 251424371, 0.55691206, 0.007429681, 0.8271446, 0.075003624, 1.270221, -0.29319683, 0.71360016
575, 251441038, 0.55910695, 0.006062414, 0.82563037, 0.07548053, 1.374125, -0.112947986, 0.66294384
576, 251457705, 0.56123376, 0.004750538, 0.824163, 0.07582739, 1.7947688, 0.09729557, 0.46044445
577, 251474372, 0.5638546, 0.0036218935, 0.82234603, 0.07617077, 1.9955549, 0.11574923, 0.33469582
578, 251491039, 0.5672363, 0.002423129, 0.8199918, 0.07648907, 1.9944432, 0.043287825, 0.39046
579, 251507706, 0.57095915, 0.001077503, 0.8173838, 0.07673457, 1.8943344, 0.10072458, 0.596962
580, 251524373, 0.5746536, -2.1338178E-4, 0.81476265, 0.077039115, 1.8915293, 0.16094424, 0.5699272
581, 251541040, 0.57861215, -0.0012611935, 0.8119468, 0.077128306, 1.9996337, 0.047974825, 0.57595253
582, 251557707, 0.5831868, -0.0023083778, 0.80865335, 0.07725089, 1.863136, -0.11394346, 0.4258089
583, 251574374, 0.5883852, -0.0039404407, 0.8048168, 0.07783069, 1.5234174, -0.231592, 0.5574274
584, 251591041, 0.5934761, -0.006057796, 0.8009623, 0.07879603, 1.1746893, -0.13896987, 0.81574726
585, 251607708, 0.59851134, -0.008090489, 0.79712117, 0.079477005, 1.09769, -0.09805264, 0.8652916
586, 251624375, 0.603643, -0.009636453, 0.7932054, 0.07967158, 1.2475832, -0.14667858, 0.8573494
587, 251641042, 0.60932684, -0.011179428, 0.7888263, 0.07968097, 1.2435166, -0.18558057, 0.71159554
588, 251657709, 0.61544913, -0.013140033, 0.7840133, 0.07983099, 1.0732341, -0.19495238, 0.78851986
589, 251674376, 0.62176615, -0.015563378, 0.7789484, 0.08002648, 0.9009982, -0.20031328, 0.87182045
590, 251691043, 0.6278878, -0.018281473, 0.77395016, 0.08014991, 0.763054, -0.040133867, 0.9524231
591, 251707710, 0.6337856, -0.021188382, 0.76902246, 0.08044572, 0.63324124, 0.07026106, 0.95281124
592, 251724377, 0.6394568, -0.024276769, 0.7641663, 0.08096782, 0.63844734, -0.01775425, 0.85717297
593, 251741044, 0.64517844, -0.02791947, 0.75914633, 0.08162322, 0.6588947, -0.087614715, 0.96945286
594, 251757711, 0.65111333, -0.032140255, 0.75378394, 0.0826338, 0.7289477, -0.020974386, 1.1443434
595, 251774378, 0.6573796, -0.036007065, 0.748043, 0.08359042, 0.76856226, -0.09865216, 1.3769083
596, 251791045, 0.663926, -0.03893863, 0.7420436, 0.08400886, 0.5982995, -0.18011959, 1.3975306
597, 251807712, 0.670696, -0.041161805, 0.7358458, 0.083689, 0.46141836, -0.2191074, 1.2908735
598, 251824379, 0.6773505, -0.043706633, 0.7296455, 0.08308738, 0.36144593, -0.13778704, 1.3978329
599, 251841046, 0.6838365, -0.047618236, 0.72332823, 0.08304572, 0.35012633, -4.430865E-4, 1.309452
600, 251857713, 0.6903974, -0.052539088, 0.7166574, 0.08362703, 0.43402103, 0.06392518, 1.460679
601, 251874380, 0.69729096, -0.057222266, 0.70953906, 0.084055886, 0.52978206, 0.13673769, 1.4137783
602, 251891047, 0.70459855, -0.061042786, 0.701995, 0.08377435, 0.3567696, 0.2568316, 1.524148
603, 251907714, 0.71196884, -0.06479508, 0.6941968, 0.08362347, 0.09028359, 0.4355895, 1.3594608
604, 251924381, 0.7194139, -0.06881416, 0.6860273, 0.084114164, 0.0490754, 0.32996592, 1.2808638
605, 251941048, 0.7270021, -0.07209782, 0.677572, 0.08465414, -0.06458049, 0.21593352, 1.4133062
606, 251957715, 0.7346885, -0.07367236, 0.66903496, 0.084838785, -0.054176413, 0.0020433555, 1.5202246
607, 251974382, 0.74222577, -0.07446935, 0.66063434, 0.08436728, -0.1999605, -0.20043653, 1.4527884
608, 251991049, 0.7492779, -0.07746684, 0.6522682, 0.0844272, -0.5766956, -0.23833951, 1.2683592
609, 252007716, 0.7559554, -0.0831959, 0.64367205, 0.08541952, -0.48782462, -0.07120329, 1.2980099
610, 252024383, 0.76281524, -0.08868107, 0.63465923, 0.086350374, -0.20121038, 0.025414038, 1.6405745
611, 252041050, 0.7701098, -0.09231974, 0.625254, 0.08640516, -0.3181488, -0.121984206, 1.6374083
612, 252057717, 0.777611, -0.09527593, 0.6155057, 0.08600377, -0.71373856, -0.20209622, 1.168272
613, 252074384, 0.78477377, -0.099364735, 0.6057111, 0.08585447, -1.2211791, -0.05235925, 0.73397446
614, 252091051, 0.7915871, -0.10389945, 0.595943, 0.08629635, -1.3411349, 0.054670375, 0.7390785
615, 252107718, 0.79831135, -0.10735563, 0.5862405, 0.08658024, -1.3171757, -0.003975793, 0.66536236
616, 252124385, 0.8050555, -0.10968431, 0.5765332, 0.08639879, -1.4772445, -0.027136652, 0.55110264
617, 252141052, 0.8116473, -0.11193044, 0.56681806, 0.08612515, -1.4663156, 0.09059952, 0.2596817
618, 252157719, 0.81815434, -0.11424268, 0.5569358, 0.085993715, -1.4110864, 0.23495045, 0.06476498
619, 252174386, 0.82462716, -0.11543665, 0.5470605, 0.085961044, -1.4982829, 0.21711937, 0.20243073
620, 252191053, 0.83100003, -0.11502769, 0.5374554, 0.08572806, -1.5000652, 0.005474279, 0.17842579
621, 252207720, 0.837319, -0.11430532, 0.5277984, 0.08520641, -1.4400171, -0.124046005, -0.05678749
622, 252224387, 0.8431281, -0.11536925, 0.51827765, 0.08493086, -1.5046588, -0.10474186, -0.3332901
623, 252241054, 0.84844416, -0.118504316, 0.50868505, 0.085668154, -1.4432343, 0.081156105, -0.39355373
624, 252257721, 0.8534611, -0.121270336, 0.49932945, 0.08699421, -1.4900026, 0.16579661, -0.20471478
625, 252274388, 0.8584119, -0.121663354, 0.4904833, 0.08805269, -1.4224986, 0.09499345, -0.26757336
626, 252291055, 0.86332047, -0.119986504, 0.4821496, 0.08839011, -1.2457929, -0.015146243, -0.504797
627, 252307722, 0.8681575, -0.11806765, 0.47386163, 0.08841959, -0.95928675, 0.047208227, -0.6259928
628, 252324389, 0.8731332, -0.11568648, 0.4651492, 0.08883382, -0.97443515, 0.2447853, -0.043725967
629, 252341056, 0.8781963, -0.111451045, 0.45644617, 0.08948176, -0.7590357, -0.037514973, 0.34709167
630, 252357723, 0.88334316, -0.10629622, 0.44766098, 0.0894743, -0.7302566, -0.44216686, 0.24841022
631, 252374390, 0.88797516, -0.10355844, 0.43910548, 0.089233026, -0.8476145, -0.43265203, -0.20064259
632, 252391057, 0.89201826, -0.10406998, 0.4307035, 0.08926123, -1.0157459, -0.19575493, -0.10775471
633, 252407724, 0.8955887, -0.10541324, 0.4228649, 0.08941216, -0.88538176, -0.032061033, 0.08256149
634, 252424391, 0.89919215, -0.1055856, 0.41509977, 0.0894278, -0.64614844, -0.043672867, 0.22979546
635, 252441058, 0.9029468, -0.104706556, 0.4071039, 0.089386895, -0.57920855, 0.1530001, 0.15656662
636, 252457725, 0.9066782, -0.10411578, 0.39876488, 0.08989561, -0.6235314, 0.1595398, -0.0012664795
637, 252474392, 0.9102127, -0.10374258, 0.39051294, 0.09083012, -0.8280674, 0.012516782, -0.104914665
638, 252491059, 0.9136701, -0.102692224, 0.38242126, 0.09173659, -0.8149761, -0.16482192, -0.2572708
639, 252507726, 0.9170758, -0.100987375, 0.3745644, 0.09206053, -1.0300403, -0.253959, -0.43279076
640, 252524393, 0.9199747, -0.0996698, 0.36770687, 0.092219226, -1.0214332, -0.124737665, -0.76552486
641, 252541060, 0.922809, -0.099016, 0.36064103, 0.09250906, -0.76773953, 0.0039236583, -0.7735596
642, 252557727, 0.9257744, -0.097789556, 0.35325384, 0.09268728, -0.6869275, -0.109547, -0.56007385
643, 252574394, 0.92888117, -0.09653729, 0.34542638, 0.09241906, -0.6292379, -0.11445389, -0.5507021
644, 252591061, 0.9317134, -0.09664241, 0.33781508, 0.0919325, -0.73075885, -0.08404501, -0.7024355
645, 252607728, 0.93408716, -0.09869177, 0.3306967, 0.091548115, -0.937228, -0.038959257, -0.931983
646, 252624395, 0.9358951, -0.101314, 0.32479772, 0.09133726, -0.9968282, -0.105832435, -0.90461254
647, 252641062, 0.93765074, -0.10348133, 0.31913716, 0.09085254, -0.48138076, -0.03296045, -0.8379059
648, 252657729, 0.93960184, -0.1051383, 0.31300998, 0.090105206, -0.42724413, 0.20567863, -0.8543663
649, 252674396, 0.94166243, -0.10639581, 0.30643266, 0.08972669, -0.5668979, 0.34085867, -0.92152214
650, 252691063, 0.94363326, -0.107119344, 0.30009004, 0.08959791, -0.58281475, 0.26153308, -0.9823456
651, 252707730, 0.945382, -0.10771839, 0.29436374, 0.089442894, -0.599991, 0.19890988, -0.932354
652, 252724397, 0.9467195, -0.10897701, 0.28951836, 0.089584224, -0.6256217, 0.287048, -0.9916744
653, 252741064, 0.9477298, -0.11080017, 0.28530005, 0.09019729, -0.6119083, 0.26128703, -0.9219675
654, 252757731, 0.9487085, -0.11219621, 0.28120857, 0.09102841, -0.28813925, 0.20558749, -0.7971201
655, 252774398, 0.9500481, -0.11277574, 0.27623364, 0.0915724, -0.049125914, 0.13288209, -0.62595844
656, 252791065, 0.9515368, -0.11330996, 0.27076563, 0.09178689, -0.12608522, 0.19503316, -0.78795815
657, 252807732, 0.95279026, -0.11434276, 0.2657695, 0.09210357, -0.3488362, 0.3872967, -1.0182943
658, 252824399, 0.953868, -0.115269005, 0.26126936, 0.09266832, -0.41143906, 0.4506399, -0.9496269
659, 252841066, 0.95485693, -0.115539685, 0.25717992, 0.093580924, -0.2152508, 0.3938162, -0.92378426
660, 252857733, 0.95590794, -0.11517574, 0.2530368, 0.09458721, -0.041793346, 0.30590627, -0.8797054
661, 252874400, 0.95703554, -0.11393667, 0.2489123, 0.0956249, -0.062890954, 0.41057625, -0.7436714
662, 252891067, 0.95812625, -0.11186601, 0.24511005, 0.09696066, -0.1127643, 0.38871256, -0.60289
663, 252907734, 0.9591186, -0.10923895, 0.24165282, 0.09880403, -0.17423394, 0.183903, -0.56487274
664, 252924401, 0.96006405, -0.10674171, 0.23817362, 0.1007798, -0.17290135, -0.27412176, -0.49143028
665, 252941068, 0.9608574, -0.105075255, 0.23503327, 0.10233032, -0.07018776, -0.3077034, -0.65826416
666, 252957735, 0.9614202, -0.10449152, 0.23232478, 0.10381719, -0.16053729, -0.16685918, -0.6973152
667, 252974402, 0.9618855, -0.10382977, 0.22998388, 0.10537211, -0.23163967, -0.07092513, -0.39249897
668, 252991069, 0.9625378, -0.102272175, 0.22730327, 0.10674599, 0.033551976, -0.076396726, -0.095210075
669, 253007736, 0.96331096, -0.10090088, 0.22418544, 0.10766707, 0.16989711, -0.07152761, -0.2157135
670, 253024403, 0.9640203, -0.10101881, 0.22065619, 0.108494304, 0.20333734, 0.041046143, -0.5415516
671, 253041070, 0.96475875, -0.10160673, 0.21677013, 0.10921275, -0.10036268, -0.021858897, -0.6510029
672, 253057737, 0.9655017, -0.10145309, 0.21323968, 0.10973874, -0.077717915, -0.09189456, -0.87182426
673, 253074404, 0.96617603, -0.10074695, 0.21033277, 0.11006492, -0.005135881, -0.04765816, -1.1002693
674, 253091071, 0.96667224, -0.10002361, 0.20815489, 0.110507, -0.046444762, 0.04645063, -1.0435476
675, 253107738, 0.96715945, -0.09902142, 0.2060422, 0.111105934, 0.03395117, -0.1073559, -0.7401695
676, 253124405, 0.9677759, -0.0976465, 0.20359556, 0.11146274, 0.078716345, -0.18011937, -0.60246754
677, 253141072, 0.9683381, -0.096546166, 0.20133233, 0.111649275, 0.025939796, -0.14289893, -0.6637907
678, 253157739, 0.96879464, -0.09632489, 0.19923793, 0.11163684, 0.029082723, -0.19025524, -0.83724976
679, 253174406, 0.9690714, -0.09678506, 0.19770561, 0.1115609, -0.015543985, -0.1286655, -0.94724274
680, 253191073, 0.96927303, -0.0974948, 0.196468, 0.111377224, 0.11097251, -0.092169315, -1.0323
681, 253207740, 0.96947736, -0.098213404, 0.19527113, 0.11107288, 0.1051729, 0.07777362, -1.1013861
682, 253224407, 0.96962404, -0.09847351, 0.19451512, 0.11088788, 0.09873226, 0.17892776, -1.0837479
683, 253241074, 0.9696395, -0.09808907, 0.19452871, 0.11107075, 0.00314818, 0.16039816, -0.86653423
684, 253257741, 0.96957624, -0.0974351, 0.19492896, 0.11149476, 0.17597298, 0.0911749, -0.6882591
685, 253274408, 0.96950763, -0.096745595, 0.1952992, 0.1120434, 0.25205454, 0.13382101, -0.6161928
686, 253291075, 0.96958995, -0.09553709, 0.19520946, 0.112522, 0.20274659, 0.1482215, -0.4072714
687, 253307742, 0.969793, -0.093781665, 0.1948063, 0.11294775, 0.19526494, 0.050983362, -0.30690956
688, 253324409, 0.96997684, -0.092487104, 0.1943247, 0.1132664, 0.17786948, -8.652745E-4, -0.52567196
689, 253341076, 0.9700827, -0.091572635, 0.19404668, 0.113579035, 0.1241059, -0.069324106, -0.46956158
690, 253357743, 0.97012776, -0.0904617, 0.19419897, 0.11382343, 0.14977379, 0.008112794, -0.32866383
691, 253374410, 0.9701283, -0.08962007, 0.19439393, 0.11415097, 0.1627238, 0.13568829, -0.3164692
692, 253391077, 0.97008234, -0.08903611, 0.1945866, 0.11466953, 0.16438775, 7.281493E-4, -0.34781933
693, 253407744, 0.97003967, -0.08792134, 0.19495799, 0.115258105, 0.15334845, -0.15082358, -0.31842422
694, 253424411, 0.97008896, -0.086367734, 0.19527261, 0.115484856, 0.18393373, -0.22189713, -0.29376316
695, 253441078, 0.9700872, -0.085505344, 0.19573686, 0.11535561, 0.101654366, 0.0470977, -0.36730862
696, 253457745, 0.96997356, -0.08540852, 0.19630869, 0.1154113, 0.12655057, 0.22828802, -0.2175579
697, 253474412, 0.96985126, -0.084841706, 0.19696905, 0.115730934, 0.09515528, 0.19500203, 0.18589115
698, 253491079, 0.9698607, -0.08363855, 0.19726962, 0.116015285, 0.21210307, 0.002772734, 0.36301708
699, 253507746, 0.9700149, -0.08268966, 0.19691414, 0.11601066, 0.21310608, -0.027240194, 0.30217552
700, 253524413, 0.97016716, -0.08216865, 0.19651152, 0.11578905, 0.14558315, 0.01323219, 0.17068005
701, 253541080, 0.9702398, -0.08182735, 0.19643374, 0.1155551, -0.023654599, 0.16141659, 0.24268818
702, 253557747, 0.9702239, -0.08149967, 0.1966403, 0.11556954, 0.010338144, 0.23637076, 0.3374567
703, 253574414, 0.97021127, -0.08130935, 0.19667923, 0.11574201, 0.19957316, 0.12848023, 0.16467667
704, 253591081, 0.97019374, -0.080936216, 0.19679214, 0.11595965, 0.016442731, 0.06992597, -0.06267834
705, 253607748, 0.97009176, -0.080073155, 0.19742775, 0.11632994, -0.0015451451, 0.14508131, 0.024701118
706, 253624415, 0.9699679, -0.07876248, 0.1981823, 0.11697394, 0.09005382, 0.04767632, 0.29104328
707, 253641082, 0.9699281, -0.07736662, 0.1986096, 0.11750848, 0.09576468, -0.118542165, 0.3354416
708, 253657749, 0.96991605, -0.076656565, 0.19883507, 0.117692314, 0.16587019, -0.17468058, 0.19067192
709, 253674416, 0.96994644, -0.07675028, 0.1987193, 0.117575295, 0.085908435, -0.124378815, -0.049370766
710, 253691083, 0.9699536, -0.076795794, 0.19874778, 0.11743849, 0.035558898, 0.016857905, -0.22289848
711, 253707750, 0.96992975, -0.07612671, 0.1991571, 0.117377676, 5.556532E-4, 0.13827473, -0.31502247
712, 253724417, 0.9698721, -0.07538307, 0.19968145, 0.117443524, 0.09431207, 0.087707095, -0.3515396
713, 253741084, 0.9698261, -0.075291045, 0.19990245, 0.11750646, 0.1444648, -0.010894692, -0.35244656
714, 253757751, 0.9697962, -0.07544951, 0.20003998, 0.11741726, 0.079172984, -0.074991226, -0.40325832
715, 253774418, 0.9697328, -0.075520806, 0.20046508, 0.11716971, 0.021608002, -0.05854067, -0.52548313
716, 253791085, 0.96960014, -0.07573487, 0.20122282, 0.11683033, 0.121767625, -0.030163633, -0.76504326
717, 253807752, 0.96941, -0.075801864, 0.20223083, 0.116623364, 0.15785971, 0.120512486, -0.9061737
718, 253824419, 0.9692006, -0.07477173, 0.20353407, 0.116761476, 0.05988292, 0.16027305, -0.667017
719, 253841086, 0.96901673, -0.07306083, 0.20483384, 0.117097884, 0.11248111, 0.08628801, -0.48891926
720, 253857753, 0.96886027, -0.07187861, 0.20584321, 0.11735435, 0.24604082, -0.08470526, -0.49653053
721, 253874420, 0.96868765, -0.07168483, 0.2067818, 0.11724651, 0.2518906, -0.112046376, -0.8053789
722, 253891087, 0.9684389, -0.07158452, 0.20795438, 0.11728853, 0.08888943, 0.08471281, -1.1239071
723, 253907754, 0.9680341, -0.07025238, 0.20999445, 0.11780157, -0.021753957, 0.011591159, -1.2790651
724, 253924421, 0.9677051, -0.068290524, 0.21223846, 0.11763617, 0.0070075784, -0.19626538, -1.2834768
725, 253941088, 0.9672627, -0.06888136, 0.2146946, 0.11646828, 0.22066171, -0.10719022, -1.4627781
726, 253957755, 0.96660256, -0.07311329, 0.217188, 0.11473312, 0.3250988, 0.19583507, -1.7526112
727, 253974422, 0.9656845, -0.07795046, 0.22028442, 0.11336674, -0.06426646, 0.49698475, -1.5722914
728, 253991089, 0.9647589, -0.079518214, 0.22392775, 0.11302037, -0.12256266, 0.50388914, -1.1801491
729, 254007756, 0.9639738, -0.077431716, 0.22776753, 0.113494135, 0.06741262, 0.29720736, -1.2224245
730, 254024423, 0.96323586, -0.07415915, 0.23152958, 0.1143294, 0.13571684, 0.033655968, -1.323947
731, 254041090, 0.9624003, -0.070862025, 0.23553489, 0.11527231, -0.082611956, -0.07357577, -1.0207834
732, 254057757, 0.9615209, -0.067609824, 0.23973347, 0.11590718, -0.030940674, -0.16308478, -0.6514225
733, 254074424, 0.96061, -0.06564892, 0.243851, 0.11599813, -0.0419355, -0.32988608, -0.784791
734, 254091091, 0.9596729, -0.06621617, 0.24762493, 0.11543596, -0.05254767, -0.48811468, -1.3075418
735, 254107758, 0.9586608, -0.06782547, 0.25155458, 0.11440971, -0.48772204, -0.4990197, -1.658596
736, 254124425, 0.9574418, -0.0686746, 0.2565486, 0.11301342, -0.5170919, -0.3980037, -1.8757687
737, 254141092, 0.9560569, -0.069333225, 0.26237378, 0.110943116, -0.37496242, -0.20438863, -1.6494713
738, 254157759, 0.9544482, -0.07118898, 0.26854482, 0.10883195, 0.26164493, 0.39734477, -1.7879992
739, 254174426, 0.952792, -0.072283015, 0.27452362, 0.1077004, -0.24767515, 0.72320557, -0.96684265
740, 254191093, 0.9513943, -0.068832874, 0.28021538, 0.107658476, -0.3687099, 0.62662554, -0.037255287
741, 254207760, 0.9504291, -0.06112865, 0.28516203, 0.107845426, -0.24941207, 0.079623476, 0.28484154
742, 254224427, 0.94940686, -0.053614873, 0.29010043, 0.10767537, -0.13895063, -0.17166214, -0.23934269
743, 254241094, 0.9479376, -0.050401717, 0.29548502, 0.10752935, -0.17061056, 0.053138558, -0.8169365
744, 254257761, 0.94591904, -0.04968182, 0.30197912, 0.10759864, -0.6787901, 0.08737789, -0.09191036
745, 254274428, 0.9437064, -0.04810191, 0.3090775, 0.107589476, -0.40546054, -0.01876559, 0.6932039
746, 254291095, 0.9416084, -0.04588189, 0.3158188, 0.10736415, -0.055374663, -0.25341982, 0.84491634
747, 254307762, 0.9396988, -0.045293245, 0.32167855, 0.106946476, 0.041821733, -0.35360667, 0.28831768
748, 254324429, 0.9379612, -0.046538707, 0.32669356, 0.10646451, -0.5697944, -0.43504694, -0.2742939
749, 254341096, 0.9361459, -0.047282223, 0.33205107, 0.10553313, -0.86618644, -0.17895325, -0.6055908
750, 254357763, 0.9339981, -0.046738654, 0.33845714, 0.10445006, -0.8261271, -0.024021497, -0.5608816
751, 254374430, 0.93169457, -0.04655128, 0.34513158, 0.10325901, -0.3075659, -0.03287191, -0.8267565
752, 254391097, 0.9295085, -0.048144504, 0.35104227, 0.102301665, -0.40095586, -0.05161392, -1.2799463
753, 254407764, 0.9273563, -0.049751285, 0.35669062, 0.10152355, -1.1827333, 0.048104625, -1.3992147
754, 254424431, 0.92486405, -0.048998196, 0.36338317, 0.100888245, -1.1516777, 0.24674377, -1.3442736
755, 254441098, 0.92215085, -0.046173993, 0.37075207, 0.10024407, -0.79094106, 0.10297935, -1.5043736
756, 254457765, 0.9192415, -0.04386236, 0.37831336, 0.09975081, -0.79079646, -0.13287434, -1.6720085
757, 254474432, 0.9165108, -0.043662876, 0.3849885, 0.099425554, -1.1884975, -0.5903136, -1.6861935
758, 254491099, 0.91362464, -0.043656234, 0.39198604, 0.09864684, -1.6244715, -0.539379, -1.5533428
759, 254507766, 0.91021836, -0.04240272, 0.4003583, 0.097045764, -1.2957984, -0.2245369, -1.2354193
760, 254524433, 0.9063485, -0.04133087, 0.40961304, 0.0950861, -0.9080073, 0.35361207, -0.9190359
761, 254541100, 0.9021517, -0.041305553, 0.41911513, 0.09358861, -0.65937084, 1.0599068, -0.43027592
762, 254557767, 0.8979263, -0.04056204, 0.42822963, 0.09328709, -0.51014215, 1.2422534, 0.18819332
763, 254574434, 0.8940115, -0.037501458, 0.43663004, 0.093228154, -0.4212495, 0.7608392, 0.47598934
764, 254591101, 0.8901919, -0.033331323, 0.44476753, 0.092894524, -0.415389, 0.3740404, 0.29510307
765, 254607768, 0.88602877, -0.030461118, 0.4532839, 0.09251475, -0.6506762, 0.47528973, 0.3858633
766, 254624435, 0.88120437, -0.02919837, 0.4625796, 0.09298717, -0.42752308, 0.5958234, 0.6847744
767, 254641102, 0.87644094, -0.028130533, 0.47143915, 0.093836606, -0.046378043, 0.34438005, 1.2675123
768, 254657769, 0.87232065, -0.02566268, 0.47905257, 0.09437601, 0.040450033, -0.06549922, 1.662777
769, 254674436, 0.8685234, -0.02261242, 0.48605812, 0.09435776, -0.1895752, -0.48279637, 1.6836176
770, 254691103, 0.8646573, -0.020934368, 0.49301198, 0.094175175, -0.29853866, -0.6151304, 1.0948648
771, 254707770, 0.8607559, -0.021251742, 0.4998082, 0.094018534, -0.5312867, -0.51963866, 0.60803413
772, 254724437, 0.8568782, -0.022301426, 0.5064424, 0.09369443, -0.9535242, -0.3721406, 0.3870802
773, 254741104, 0.8527768, -0.022532584, 0.5134453, 0.09294137, -1.2504034, -0.16317473, 0.52860737
774, 254757771, 0.8484721, -0.021891221, 0.5207517, 0.09183375, -1.0989877, -0.16792247, 0.5040417
775, 254774438, 0.84407705, -0.021508664, 0.5280767, 0.09058994, -1.0188968, -0.22263917, 0.11221695
776, 254791105, 0.83960986, -0.021727676, 0.53534305, 0.08939291, -1.121504, -0.14950347, -0.13560009
777, 254807772, 0.83490705, -0.021181526, 0.5429202, 0.08786056, -1.3064963, 0.3850987, 0.31050205
778, 254824439, 0.8295881, -0.018547857, 0.5513431, 0.08637271, -0.7587706, 1.014008, 0.90841675
779, 254841106, 0.82413244, -0.014678537, 0.55973953, 0.08533437, 0.017342817, 0.9692788, 1.1450033
780, 254857773, 0.819205, -0.011178995, 0.5670978, 0.08472606, 0.41333, 0.54058325, 1.0320587
781, 254874440, 0.8148688, -0.008953706, 0.573431, 0.08417752, 0.13593969, 0.25486147, 0.9394102
782, 254891107, 0.8105858, -0.00804599, 0.5795361, 0.08380993, -0.25993797, 0.27153495, 0.95202637
783, 254907774, 0.8060473, -0.00786391, 0.58584124, 0.08376243, -0.3935531, 0.35298803, 0.7269726
784, 254924441, 0.80124724, -0.007366826, 0.592378, 0.08388629, -0.4555887, 0.36358613, 0.7183571
785, 254941108, 0.7962712, -0.0056181974, 0.59906846, 0.08389053, -0.35443255, 0.25637102, 0.7437124
786, 254957775, 0.79138243, -0.0029134587, 0.6055815, 0.08352545, -0.3230652, 0.028420907, 0.8404255
787, 254974442, 0.7864681, -2.6932836E-4, 0.6120208, 0.08305783, -0.38214368, -0.049978316, 1.0316429
788, 254991109, 0.78131217, 0.0022303644, 0.61863655, 0.08267482, -0.0723726, 0.026271477, 1.0958557
789, 255007776, 0.77594, 0.0056119575, 0.62540144, 0.082210295, 0.527297, 0.20183416, 1.2347059
790, 255024443, 0.7708344, 0.009962746, 0.6317285, 0.081450514, 0.933893, 0.0991216, 1.2118053
791, 255041110, 0.7662304, 0.014365893, 0.6373476, 0.08045499, 0.8515477, -0.09681455, 1.0472355
792, 255057777, 0.76209027, 0.017661624, 0.64233685, 0.07943508, 0.39833987, -0.13380429, 0.9889097
793, 255074444, 0.7580521, 0.019468421, 0.6471566, 0.07852622, -0.045587257, 0.047931936, 0.993433
794, 255091111, 0.7536996, 0.020342791, 0.652276, 0.07784043, -0.2059882, 0.25921693, 0.8936682
795, 255107778, 0.74903095, 0.020850234, 0.65765506, 0.077509925, -0.37684107, 0.27510393, 0.7616806
796, 255124445, 0.7442219, 0.021519627, 0.6630968, 0.07728791, -0.3301595, 0.117345095, 0.38245392
797, 255141112, 0.7395077, 0.02260474, 0.6683966, 0.07657368, -0.18323727, 0.26435664, 0.46459675
798, 255157779, 0.73488134, 0.024457645, 0.67350495, 0.07577955, -0.025445161, 0.54859316, 0.6435709
799, 255174446, 0.7302898, 0.02737052, 0.6784441, 0.07510806, 0.086154856, 0.5680837, 0.70993614
800, 255191113, 0.7258086, 0.031131994, 0.6831344, 0.07456631, -0.0013602999, 0.27023995, 0.63467693
801, 255207780, 0.721472, 0.03469224, 0.68761575, 0.07388756, -0.31404778, -0.24393594, 0.28700542
802, 255224447, 0.71694803, 0.03686387, 0.6922891, 0.07322937, -0.60583365, -0.30432272, 0.26861095
803, 255241114, 0.7120734, 0.037188806, 0.69729686, 0.07311458, -0.7330979, -0.06362458, 0.37450504
804, 255257781, 0.7068098, 0.036097802, 0.702633, 0.073647924, -0.68545926, 0.069503084, 0.66436195
805, 255274448, 0.701311, 0.034488797, 0.7080967, 0.07465018, -0.62223595, 0.030837746, 0.6345587
806, 255291115, 0.6955335, 0.032934412, 0.7137334, 0.075718544, -0.65986073, -0.22329122, 0.645668
807, 255307782, 0.68947065, 0.031749934, 0.7196003, 0.07614433, -0.3988164, -0.23206514, 0.50673485
808, 255324449, 0.6831577, 0.031675752, 0.72561723, 0.075973764, 0.089751184, 0.10728187, 0.49229908
809, 255341116, 0.6771847, 0.03422183, 0.7311958, 0.07485085, 0.6683529, 0.22658053, 0.73946
810, 255357783, 0.67202705, 0.039933573, 0.73596406, 0.07170805, 1.2372488, 0.03507156, 0.6611643
811, 255374450, 0.66726106, 0.04700758, 0.74031866, 0.0669438, 1.334633, -0.34909135, 1.1313868
812, 255391117, 0.66223407, 0.052021753, 0.74482054, 0.06310457, 1.1937801, -0.1954183, 0.87645435
813, 255407784, 0.65715706, 0.05355403, 0.74933594, 0.061417818, 1.0422262, 0.067177854, 0.7349415
814, 255424451, 0.6521324, 0.05328212, 0.7537566, 0.061117467, 1.0989926, 0.16381556, 0.8484411
815, 255441118, 0.64712685, 0.05366381, 0.7580826, 0.06047845, 1.2451316, 0.20788504, 0.9781122
816, 255457785, 0.6421449, 0.05585954, 0.76228654, 0.058728814, 1.253373, 0.13078395, 0.89680195
817, 255474452, 0.6374276, 0.059184, 0.76618695, 0.05604553, 1.1856124, 0.047613457, 0.64598846
818, 255491119, 0.63313234, 0.062228706, 0.76971614, 0.052995037, 1.0549861, -0.10176324, 0.40233994
819, 255507786, 0.629347, 0.06407386, 0.7728376, 0.05038839, 0.9196986, -0.18258056, 0.3279543
820, 255524453, 0.62591755, 0.064912245, 0.7756765, 0.04837272, 0.8597515, -0.26638538, 0.3877344
821, 255541120, 0.62280965, 0.065043435, 0.77825844, 0.046815198, 0.903658, -0.3190432, 0.4998541
822, 255557787, 0.6197341, 0.06461612, 0.78082466, 0.045467094, 0.8955275, -0.22060016, 0.54621696
823, 255574454, 0.6165627, 0.06378459, 0.7834475, 0.044631556, 0.88523203, -0.043945413, 0.5161028
824, 255591121, 0.61329067, 0.06312324, 0.7860774, 0.04441281, 0.9512291, -0.035487767, 0.42059612
825, 255607788, 0.6101099, 0.06320841, 0.78854173, 0.04441373, 1.1052881, -0.20734744, 0.34095573
826, 255624455, 0.6072243, 0.06406565, 0.7907171, 0.044055775, 1.1688114, -0.40501222, 0.23103714
827, 255641122, 0.604606, 0.065306835, 0.7926687, 0.043164726, 1.0416535, -0.3859038, 0.24940968
828, 255657789, 0.60208, 0.06660608, 0.7945382, 0.042102497, 0.88607377, -0.24412484, 0.28320122
829, 255674456, 0.5995361, 0.06772148, 0.79641557, 0.0411427, 0.8880912, -0.23165509, 0.30138206
830, 255691123, 0.5969765, 0.068628505, 0.79830414, 0.040248957, 0.96251786, -0.20067832, 0.2698145
831, 255707790, 0.5945365, 0.06930109, 0.8001097, 0.0393482, 1.0410764, -0.0814441, 0.21214962
832, 255724457, 0.59206665, 0.07004695, 0.80191886, 0.03843258, 1.1911829, 0.019904276, 0.23684025
833, 255741124, 0.58970547, 0.07101155, 0.8036208, 0.037398413, 1.4569545, 0.027506007, 0.23580265
834, 255757791, 0.5877519, 0.0718362, 0.80502933, 0.036268596, 1.5980394, -0.027133578, 0.14165401
835, 255774458, 0.5862894, 0.072131515, 0.8061057, 0.035435908, 1.6795608, -0.041961428, 0.17716694
836, 255791125, 0.58523434, 0.07159518, 0.8069296, 0.035211653, 1.5601177, 0.100577146, 0.019267082
837, 255807792, 0.58451396, 0.07063436, 0.80752975, 0.03535491, 1.3805792, 0.09862716, 0.059355736
838, 255824459, 0.5840288, 0.06986481, 0.80793893, 0.035552107, 1.1739544, 0.046650954, 0.05090809
839, 255841126, 0.5837441, 0.069578245, 0.8081714, 0.03550655, 0.9043772, -0.06478165, 0.049248695
840, 255857793, 0.5837306, 0.06957896, 0.8081968, 0.03514781, 0.6571348, -0.14230642, 0.094950676
841, 255874460, 0.5838846, 0.06966084, 0.80809826, 0.034689866, 0.4579311, -0.14967665, 0.053556442
842, 255891127, 0.5841491, 0.06964694, 0.80792344, 0.03433684, 0.2904439, -0.107997775, 0.14776897
843, 255907794, 0.584372, 0.069551915, 0.8077812, 0.03407942, 0.12372336, -0.15185054, 0.24465561
844, 255924461, 0.58431816, 0.06928979, 0.8078513, 0.03387379, -0.0504804, -0.13231486, 0.16947174
845, 255941128, 0.5841793, 0.06864172, 0.8080051, 0.0339216, -0.20384382, -0.10632064, -0.016426086
846, 255957795, 0.58404005, 0.067590654, 0.80817854, 0.03429828, -0.24085577, 0.027366983, -0.060546875
847, 255974462, 0.5839294, 0.06667499, 0.8083129, 0.03480301, -0.114913374, -0.07096548, -0.08710289
848, 255991129, 0.58392674, 0.066172935, 0.8083493, 0.03496299, -0.068181284, -0.25636163, -0.061941147
849, 256007796, 0.58404976, 0.06583409, 0.8082996, 0.03469447, -0.14194816, -0.33880952, -0.12744999
850, 256024463, 0.58411384, 0.065210514, 0.8083173, 0.03438106, -0.28555033, -0.23646587, -0.11142731
851, 256041130, 0.58403057, 0.06410854, 0.8084644, 0.034405816, -0.34164894, -0.08657931, -0.17065811
852, 256057797, 0.5837522, 0.062697574, 0.80876184, 0.034736153, -0.2485321, -0.011194982, -0.116438866
853, 256074464, 0.5834871, 0.061248608, 0.80904675, 0.035139475, -0.11417802, 5.320726E-4, -0.14525795
854, 256091131, 0.58328426, 0.060054403, 0.80927116, 0.035400033, -0.087550916, 0.025511267, -0.068035126
855, 256107798, 0.5831693, 0.059161194, 0.8094167, 0.035471965, -0.1000596, 0.019130306, -0.13048172
856, 256124465, 0.5830969, 0.05847479, 0.80951834, 0.035481945, -0.1456625, 0.06862113, -0.09144688
857, 256141132, 0.5829715, 0.05801756, 0.80964005, 0.035512153, -0.19785456, 0.041532002, -0.10815811
858, 256157799, 0.5826799, 0.05788909, 0.80986166, 0.03545622, -0.2354119, 0.033620007, -0.06428337
859, 256174466, 0.5822708, 0.05805652, 0.8101534, 0.0352405, -0.17103435, 0.027330438, -0.069563866
860, 256191133, 0.5818118, 0.058409475, 0.8104728, 0.03488881, -0.048121892, 0.1189166, -0.045840263
861, 256207800, 0.581399, 0.05898323, 0.8107411, 0.03457038, 0.092334546, 0.15907982, 0.016614914
862, 256224467, 0.58102554, 0.059799906, 0.8109641, 0.034214705, 0.12395939, 0.035294764, 0.012558937
863, 256241134, 0.5807777, 0.06054312, 0.81110257, 0.033834312, 0.13041668, -0.06582828, 0.002149582
864, 256257801, 0.5805689, 0.06103439, 0.8112249, 0.033598546, 0.16601917, -0.12861428, 0.113508224
865, 256274468, 0.5803298, 0.061338864, 0.8113834, 0.0333483, 0.29118106, -0.116319746, 0.10815525
866, 256291135, 0.5800045, 0.06159109, 0.81160927, 0.03304558, 0.37763005, -0.076109014, 0.07421017
867, 256307802, 0.57969284, 0.061730508, 0.81183225, 0.0327729, 0.43516138, -0.016185468, -0.07350731
868, 256324469, 0.57954156, 0.0617711, 0.8119449, 0.03258408, 0.5383122, 0.102795705, -0.09068298
869, 256341136, 0.57963246, 0.06191207, 0.81187433, 0.032454398, 0.6126691, 0.09810188, -0.10398102
870, 256357803, 0.5800115, 0.062182367, 0.81159073, 0.032260157, 0.56438094, 0.002380832, -0.06986427
871, 256374470, 0.5805882, 0.06224918, 0.81117797, 0.032137565, 0.43957803, -0.072286524, 0.008189201
872, 256391137, 0.5812074, 0.061857514, 0.81075436, 0.032390986, 0.3114662, -0.020943053, 0.07638359
873, 256407804, 0.58176446, 0.061362203, 0.8103725, 0.03288419, 0.18019705, -0.04053156, 0.08098316
874, 256424471, 0.5822463, 0.06108505, 0.8100346, 0.033196565, 0.12555975, -0.165542, 0.057969093
875, 256441138, 0.58275414, 0.060723368, 0.8096906, 0.03334389, 0.06485988, -0.32319677, 0.013257027
876, 256457805, 0.5833354, 0.059811547, 0.80932796, 0.03362666, 0.028360218, -0.2961731, 0.024534225
877, 256474472, 0.58387613, 0.058447823, 0.80901426, 0.034183618, 0.053695858, -0.06633395, 0.06923962
878, 256491139, 0.5844216, 0.057251606, 0.8086802, 0.034787014, 0.09175341, -0.002318388, -0.013972282
879, 256507806, 0.5849737, 0.056712437, 0.80831033, 0.034987774, 0.073499106, -0.04176943, -0.045844078
880, 256524473, 0.58553696, 0.056497663, 0.8079214, 0.034896493, 0.08452366, -0.085055284, -0.0124435425
881, 256541140, 0.5859282, 0.056174528, 0.8076622, 0.034848373, 0.22842532, -0.0112441825, 0.015055656
882, 256557807, 0.58623457, 0.055787995, 0.8074661, 0.034861375, 0.62484074, 0.019446103, -0.041275978
883, 256574474, 0.58666277, 0.055419922, 0.8071795, 0.034885235, 0.9011193, 0.1337075, 0.019890785
884, 256591141, 0.5872484, 0.055142775, 0.80676806, 0.034984436, 1.0219938, 0.18387073, 0.18399048
885, 256607808, 0.58796316, 0.055047836, 0.8062484, 0.035109393, 1.1283797, 0.20832257, 0.3450222
886, 256624475, 0.5886303, 0.055381384, 0.8057386, 0.035110347, 1.3131092, 0.18349394, 0.40194416
887, 256641142, 0.5893226, 0.05614869, 0.8051893, 0.03487747, 1.6059988, 0.10468989, 0.44919205
888, 256657809, 0.5903662, 0.05726123, 0.8043658, 0.034420382, 1.9357058, 0.018092759, 0.52821827
889, 256674476, 0.59214276, 0.058775824, 0.8029963, 0.033308465, 2.457194, -0.33200994, 0.59284496
890, 256691143, 0.594545, 0.060428586, 0.80120295, 0.030636497, 2.9187574, -0.5245668, 0.718956
891, 256707810, 0.5974362, 0.0616198, 0.79907143, 0.027531318, 3.0090406, -0.18619621, 0.7917547
892, 256724477, 0.6009885, 0.061820105, 0.7964348, 0.026132159, 3.2007766, 0.33306, 1.0202713
893, 256741144, 0.6053624, 0.06132676, 0.79313433, 0.026712636, 3.2995377, 0.28158766, 1.0389938
894, 256757811, 0.6105015, 0.061060064, 0.78917193, 0.027706182, 3.3023233, -0.09119379, 1.2077913
895, 256774478, 0.61628115, 0.061382443, 0.78462815, 0.028078679, 3.0989459, -0.1059861, 1.3320818
896, 256791145, 0.6223664, 0.06210541, 0.7797389, 0.028463842, 2.8567684, -0.13203944, 1.5274248
897, 256807812, 0.6286286, 0.062717825, 0.7746248, 0.029140368, 2.738537, -0.36952072, 1.7208891
898, 256824479, 0.63543546, 0.0625682, 0.76903707, 0.029819546, 2.7798736, -0.7806928, 1.831397
899, 256841146, 0.6432026, 0.06119424, 0.76264566, 0.030288551, 2.7563207, -0.9355337, 1.9630413
900, 256857813, 0.6520641, 0.058138836, 0.7552918, 0.031093005, 2.433259, -0.6848241, 2.1074343
901, 256874480, 0.66147494, 0.053316657, 0.74735194, 0.032763783, 1.8382434, -0.37926635, 2.319809
902, 256891147, 0.67077667, 0.047514413, 0.73930675, 0.03502738, 1.36175, -0.16405214, 2.2950659
903, 256907814, 0.6799663, 0.041596256, 0.7311097, 0.037342, 0.96216965, -0.09032181, 2.0185242
904, 256924481, 0.6892983, 0.03601764, 0.72250926, 0.03938476, 0.54158175, -0.060161028, 1.9349146
905, 256941148, 0.6987307, 0.030850133, 0.7135432, 0.040987328, 0.11331838, -0.06435044, 1.9555349
906, 256957815, 0.7081218, 0.025667071, 0.7043526, 0.04233564, -0.24345657, -0.010167101, 1.8023958
907, 256974482, 0.71729064, 0.020142406, 0.6951055, 0.043781776, -0.61768836, 0.10729608, 1.7763758
908, 256991149, 0.72612333, 0.014340799, 0.68591464, 0.04539452, -0.84989774, 0.20155577, 1.6118279
909, 257007816, 0.7346654, 0.008783126, 0.6767383, 0.047065224, -0.9936197, 0.24316019, 1.3400002
910, 257024483, 0.74335295, 0.0038690194, 0.6671436, 0.048280377, -1.1298665, 0.13377085, 1.1163654
911, 257041150, 0.7520793, -3.7697016E-4, 0.65725297, 0.048942517, -1.4549482, 0.14682008, 0.8861971
912, 257057817, 0.7605964, -0.004459694, 0.64732426, 0.049441848, -1.7175884, 0.14667113, 0.60188293
913, 257074484, 0.76872414, -0.008918707, 0.6375616, 0.04998831, -1.844057, 0.13575587, 0.43229198
914, 257091151, 0.7763742, -0.014111481, 0.6280697, 0.050717887, -1.9029593, 0.18299678, 0.3107996
915, 257107818, 0.78365785, -0.019754313, 0.6187151, 0.05178714, -1.9785233, 0.28588143, 0.08521938
916, 257124485, 0.7906911, -0.024823364, 0.60942155, 0.052885137, -1.9950238, 0.270138, -0.10039616
917, 257141152, 0.79747367, -0.028627131, 0.6002884, 0.053573508, -2.0055304, 0.15797241, -0.16056728
918, 257157819, 0.80381817, -0.031726062, 0.5915778, 0.053903684, -1.8910046, 0.08485551, -0.24794102
919, 257174486, 0.8097427, -0.03510569, 0.5831992, 0.054435853, -1.6067626, 0.09253436, -0.35683918
920, 257191153, 0.81546813, -0.038359415, 0.57488227, 0.055236377, -1.419368, 0.025711756, -0.12827682
921, 257207820, 0.82121736, -0.040301185, 0.56647825, 0.05550159, -1.1883996, -0.1795179, 0.14984894
922, 257224487, 0.8270528, -0.04097316, 0.5579242, 0.055007026, -1.0477228, -0.29039365, 0.20867729
923, 257241154, 0.8328357, -0.041490644, 0.54927725, 0.05438657, -0.9808245, -0.24090134, 0.053850174
924, 257257821, 0.8384529, -0.043161936, 0.54056835, 0.054035377, -1.1819692, -0.1901234, -0.10850525
925, 257274488, 0.8436625, -0.04624804, 0.5321302, 0.054151226, -1.4511784, -0.10857033, -0.053383827
926, 257291155, 0.84842116, -0.050120108, 0.524121, 0.05446944, -1.413006, -0.16406247, -0.07630539
927, 257307822, 0.85278803, -0.054312695, 0.5165369, 0.054702915, -1.2918981, -0.115990095, -0.31643963
928, 257324489, 0.85692286, -0.05820314, 0.5091875, 0.054989204, -1.1662772, -0.022346377, -0.39526463
929, 257341156, 0.86114424, -0.060724612, 0.5016941, 0.05519144, -1.0517223, 0.047097392, -0.21409321
930, 257357823, 0.8654338, -0.06162605, 0.4941468, 0.05518653, -1.0037936, -0.083339155, -0.08083916
931, 257374490, 0.86959547, -0.062287655, 0.48670667, 0.05514178, -0.94547904, -0.24734944, -0.28460026
932, 257391157, 0.87355536, -0.063766405, 0.47936195, 0.055201482, -0.9369945, -0.28635553, -0.5758209
933, 257407824, 0.87733763, -0.0657751, 0.47210616, 0.05539068, -1.0385737, -0.22233811, -0.5790024
934, 257424491, 0.8810584, -0.06717138, 0.46492565, 0.05539412, -1.0557923, -0.18674491, -0.3765955
935, 257441158, 0.8846873, -0.067617625, 0.45793816, 0.05521824, -0.93959236, -0.14656582, -0.36145687
936, 257457825, 0.8882305, -0.06812095, 0.45100304, 0.054795284, -0.8461702, -0.14427242, -0.51149464
937, 257474492, 0.89149725, -0.06999789, 0.4442659, 0.054413993, -0.86977005, -0.0914368, -0.67882633
938, 257491159, 0.89460933, -0.073066205, 0.43752086, 0.05395619, -0.76517963, 0.02641655, -0.54303074
939, 257507826, 0.89762485, -0.07591484, 0.43087447, 0.05342162, -0.7013631, 0.15562196, -0.300498
940, 257524493, 0.9004321, -0.07830799, 0.4246061, 0.052911963, -0.65170836, 0.20580833, -0.3058014
941, 257541160, 0.9029538, -0.080601424, 0.41882256, 0.05259023, -0.6148093, 0.27912804, -0.47486782
942, 257557827, 0.90539145, -0.08246894, 0.41316572, 0.052530725, -0.5033556, 0.30465373, -0.46856976
943, 257574494, 0.90790856, -0.08345886, 0.40740925, 0.05248123, -0.46260723, 0.36694553, -0.26731205
944, 257591161, 0.9105015, -0.08383904, 0.40150174, 0.052484635, -0.40392524, 0.44218814, -0.02364254
945, 257607828, 0.9130372, -0.08419769, 0.39560065, 0.05267039, -0.27354208, 0.5365916, 0.06583786
946, 257624495, 0.9154433, -0.08481919, 0.389777, 0.053324975, -0.1821977, 0.61680293, 0.09997463
947, 257641162, 0.9178159, -0.085326254, 0.38388965, 0.05442717, -0.12279131, 0.5372338, 0.2622881
948, 257657829, 0.9202459, -0.08514885, 0.37790355, 0.055554375, -0.21880846, 0.4220436, 0.46407604
949, 257674496, 0.9227576, -0.084380575, 0.37176797, 0.05645395, -0.15865172, 0.25398245, 0.5057745
950, 257691163, 0.925349, -0.08386883, 0.3652725, 0.05719644, -0.13538449, 0.14176583, 0.45019913
951, 257707830, 0.92800176, -0.08415981, 0.3582884, 0.057959225, -0.24654217, 0.16335249, 0.34400368
952, 257724497, 0.9304915, -0.08494687, 0.3514111, 0.05899029, -0.61254686, 0.18700229, 0.24402618
953, 257741164, 0.9325686, -0.0857565, 0.3454298, 0.060333844, -0.576855, 0.09972254, -0.081318855
954, 257757831, 0.9346386, -0.08664124, 0.339371, 0.061409988, -0.39103705, -0.07885308, -0.3820877
955, 257774498, 0.9366405, -0.08772233, 0.3333889, 0.062138494, -0.5122942, -0.08905857, -0.5009451
956, 257791165, 0.9385447, -0.088762134, 0.32760063, 0.06271509, -0.516232, 0.036592033, -0.43055153
957, 257807832, 0.94040877, -0.08910842, 0.32203653, 0.063116424, -0.458662, 0.11985228, -0.16719818
958, 257824499, 0.9422105, -0.089210846, 0.3166177, 0.06351462, -0.4350027, 0.10851839, -0.12517071
959, 257841166, 0.9439026, -0.08987149, 0.31123966, 0.064039804, -0.5131404, -0.050065562, -0.26937675
960, 257857833, 0.94547373, -0.09147362, 0.3058745, 0.06444404, -0.31484595, 0.026238633, -0.7085743
961, 257874500, 0.9470426, -0.0936436, 0.3002405, 0.06478554, -0.39639553, 0.1838322, -0.8127842
962, 257891167, 0.9485862, -0.095318034, 0.29467273, 0.06531967, -0.49049827, 0.2724443, -0.68464184
963, 257907834, 0.95010465, -0.09619336, 0.2893039, 0.06596446, -0.43028703, 0.30066544, -0.7775469
964, 257924501, 0.95142514, -0.096855596, 0.2844857, 0.06691152, -0.5031395, 0.41154373, -0.9885521
965, 257941168, 0.95249146, -0.0974362, 0.280349, 0.06834297, -0.26633447, 0.4359686, -1.0780964
966, 257957835, 0.95359683, -0.09732348, 0.2762289, 0.0698501, -0.0865726, 0.37811622, -0.8793011
967, 257974502, 0.9548598, -0.096346416, 0.27179018, 0.071346425, -0.2435538, 0.2573549, -0.7205992
968, 257991169, 0.95616, -0.09515927, 0.2672331, 0.07272791, -0.22905049, -0.04386034, -0.88794994
969, 258007836, 0.957266, -0.09477772, 0.2630671, 0.07385772, -0.16398676, -0.13124983, -1.2429523
970, 258024503, 0.9581211, -0.09505245, 0.25952414, 0.07494251, -0.24579452, -0.095767535, -1.2353115
971, 258041170, 0.95891976, -0.09465025, 0.25638363, 0.07603916, -0.25151756, 0.060329836, -0.9017525
972, 258057837, 0.9597691, -0.09307922, 0.25340027, 0.07725242, -0.01806387, 0.10470168, -0.7120476
973, 258074504, 0.96071005, -0.091489345, 0.25005403, 0.078352734, 0.16235198, 0.068691395, -0.8328209
974, 258091171, 0.96171254, -0.090818495, 0.24618967, 0.07906849, 0.08387033, 0.020617226, -1.0194254
975, 258107838, 0.962473, -0.09126154, 0.24287634, 0.07955057, -0.24794918, 0.025408283, -1.3067865
976, 258124505, 0.9629592, -0.09314907, 0.24007004, 0.07999812, -0.1157178, -0.050520968, -1.4966803
977, 258141172, 0.96327215, -0.09576805, 0.23760875, 0.08048211, -0.088662446, -0.10965892, -1.6725836
978, 258157839, 0.9635104, -0.09801959, 0.23550244, 0.081109434, 0.11510247, 0.010815289, -1.8903685
979, 258174506, 0.9638638, -0.09881928, 0.23350208, 0.08172005, -0.012828973, -0.038976133, -1.7802019
980, 258191173, 0.96415687, -0.09848299, 0.23215206, 0.082511425, -0.063862346, -0.075578, -1.6636133
981, 258207840, 0.9643261, -0.098119766, 0.2312996, 0.08335533, -0.004154994, -0.23008826, -1.6251564
982, 258224507, 0.964361, -0.0979478, 0.23091418, 0.084220015, 0.064653136, -0.17957327, -1.550457
983, 258241174, 0.9643008, -0.09747417, 0.23104079, 0.08510543, 0.10871212, -0.0725993, -1.2661963
984, 258257841, 0.96422875, -0.09646961, 0.23145312, 0.085942715, 0.11352894, -0.011060259, -0.83840084
985, 258274508, 0.9641909, -0.09544025, 0.23175116, 0.086710684, 0.20256834, -0.039471157, -0.6399336
986, 258291175, 0.9642147, -0.09454593, 0.23178795, 0.08732445, 0.25224254, -0.10121717, -0.5834284
987, 258307842, 0.9642911, -0.09367183, 0.23165677, 0.08776924, 0.14989583, -0.08858366, -0.6227846
988, 258324509, 0.96430874, -0.09273948, 0.23179083, 0.08821081, 0.053010568, 2.0529664E-4, -0.58187675
989, 258341176, 0.9642311, -0.09155594, 0.23234507, 0.08883688, 0.05530694, 0.061918452, -0.36025715
990, 258357843, 0.96415055, -0.090278715, 0.23288234, 0.08960609, 0.18248157, -0.119565964, -0.2672596
991, 258374510, 0.96409553, -0.08935125, 0.23325825, 0.09014809, 0.18877055, -0.25751325, -0.38972187
992, 258391177, 0.9639518, -0.088978045, 0.23383185, 0.090567075, 0.05076985, -0.15222652, -0.36339474
993, 258407844, 0.9637316, -0.08860836, 0.23475158, 0.09089367, 0.07042513, -0.021189308, -0.08926678
994, 258424511, 0.9634832, -0.08814156, 0.23580693, 0.0912485, 0.05258835, 0.05808828, 0.119737625
995, 258441178, 0.9632569, -0.087753914, 0.23667105, 0.09177266, 0.19473141, 4.9401954E-4, 0.15695953
996, 258457845, 0.9631195, -0.08711811, 0.23726384, 0.092288844, 0.11555463, -0.074563645, 0.1954813
997, 258474512, 0.9630516, -0.08627118, 0.23773895, 0.092569806, 0.10226947, -0.026007185, 0.23617077
998, 258491179, 0.9629706, -0.08588019, 0.2381244, 0.0927844, 0.0494243, 0.10050791, 0.23610687
999, 258507846, 0.9627941, -0.086052686, 0.23863311, 0.093148395, 0.08950867, -0.023692708, 0.20660496
1000, 258524513, 0.9625823, -0.08597814, 0.23938392, 0.09347982, 0.09905804, -0.09855742, 0.29589462
1001, 258541180, 0.9624254, -0.08561711, 0.24003148, 0.09376621, 0.12265318, -0.10949771, 0.46812057
1002, 258557847, 0.9623219, -0.08541222, 0.24040806, 0.094050206, 0.17336403, -0.03601414, 0.41015148
1003, 258574514, 0.9622939, -0.085171565, 0.24049295, 0.094337046, 0.09125497, -0.09442008, 0.42382812
1004, 258591181, 0.9622783, -0.08479886, 0.240604, 0.09454892, 0.13722488, -0.1411059, 0.24747086
1005, 258607848, 0.9622318, -0.08466213, 0.24080813, 0.09462511, 0.08260659, -0.104170725, 0.1645546
1006, 258624515, 0.9621, -0.08473655, 0.24128747, 0.0946775, 0.070452176, -0.054136403, 0.18965721
1007, 258641182, 0.9620611, -0.08467729, 0.24146473, 0.09467354, 0.115601346, -0.064952195, 0.2901106
1008, 258657849, 0.962137, -0.08446105, 0.24128029, 0.09456563, 0.07702659, -0.08796492, 0.16383171
1009, 258674516, 0.962184, -0.08457987, 0.24111052, 0.09441402, 0.046124358, 0.0057239993, -0.1251316
1010, 258691183, 0.96214175, -0.0848475, 0.24120887, 0.09435352, -0.026805462, 0.1268893, -0.24655724
1011, 258707850, 0.9620797, -0.08457871, 0.2415347, 0.0943946, -0.0025362016, 0.14384958, -0.24782658
1012, 258724517, 0.96196645, -0.08389527, 0.242209, 0.09443199, 0.018406963, 0.18974814, -0.19021702
1013, 258741184, 0.9617856, -0.08354291, 0.24301434, 0.09451594, 0.08645861, 0.19207379, -9.317398E-4
1014, 258757851, 0.9615859, -0.083294295, 0.24382646, 0.0946751, 0.1633949, 0.2825856, 0.33971882
1015, 258774518, 0.9614889, -0.08287248, 0.24426718, 0.09489327, 0.23344967, 0.22275642, 0.574872
1016, 258791185, 0.96149755, -0.08239173, 0.24431841, 0.09509343, 0.12950385, 0.13119131, 0.5081167
1017, 258807852, 0.9615003, -0.08199357, 0.24438038, 0.095251344, 0.022616606, 0.08309234, 0.34481812
1018, 258824519, 0.96141636, -0.081596896, 0.24477433, 0.095426396, 0.02099122, 0.019902935, 0.29787827
1019, 258841186, 0.96135086, -0.08122602, 0.24513981, 0.09546623, 0.07815824, 0.007332678, 0.27078533
1020, 258857853, 0.9613189, -0.08114972, 0.2452892, 0.0954674, 0.108973965, 0.04638581, 0.20744514
1021, 258874520, 0.96134716, -0.08119483, 0.24515297, 0.09549426, 0.03176678, 0.085157484, 0.20457172
1022, 258891187, 0.9613926, -0.08089806, 0.2450301, 0.09560504, -0.010488569, 0.018841192, 0.2396326
1023, 258907854, 0.9614569, -0.080216445, 0.24499854, 0.095613636, 0.021022512, -0.15815939, 0.23969078
1024, 258924521, 0.96149766, -0.07989849, 0.24499191, 0.09548557, 0.06381071, -0.14549592, 0.08940029
1025, 258941188, 0.96148044, -0.080189124, 0.24501686, 0.09535187, 0.08072774, 0.0019899358, -0.087449074
1026, 258957855, 0.9614611, -0.080077745, 0.24516048, 0.095271096, 0.028509077, 0.0601969, 0.010251999
1027, 258974522, 0.9615026, -0.07927096, 0.2453111, 0.09514074, 0.024303235, -0.026743604, 0.21409035
1028, 258991189, 0.9615501, -0.078792155, 0.24536176, 0.09492492, 0.13399959, -0.11979708, 0.23904324
1029, 259007856, 0.9616094, -0.07906267, 0.24517442, 0.09458274, 0.14740479, -0.088815555, 0.19165611
1030, 259024523, 0.96172607, -0.079243176, 0.24477021, 0.094293386, 0.06549064, 0.05609784, 0.057260513
1031, 259041190, 0.9618367, -0.07863163, 0.24461442, 0.09407955, -0.042772334, 0.025399119, -0.1443243
1032, 259057857, 0.9618635, -0.077921, 0.2448346, 0.0938248, -0.0073397183, 0.011754602, -0.23103714
1033, 259074524, 0.9618111, -0.077904135, 0.24513815, 0.0935833, 0.14315401, 0.056820847, -0.091900826
1034, 259091191, 0.9618122, -0.07808633, 0.24512984, 0.09344188, 0.119475946, 0.13554071, 0.11511898
1035, 259107858, 0.96193683, -0.07758365, 0.24483052, 0.0933617, 0.119909115, 0.03642803, 0.1733656
1036, 259124525, 0.9620911, -0.076867566, 0.24447648, 0.09329377, -0.0064700297, -0.06545493, -0.024443626
1037, 259141192, 0.96217144, -0.07618782, 0.24444123, 0.09311271, -0.032094225, -0.15952997, -0.18539047
1038, 259157859, 0.9622094, -0.075562514, 0.24462715, 0.092741854, 0.067529745, -0.15469582, -0.2508974
1039, 259174526, 0.9622314, -0.075206056, 0.24482353, 0.092283756, 0.15518907, -0.015355787, -0.29283428
1040, 259191193, 0.96225286, -0.07491602, 0.24497455, 0.091895066, 0.09125676, 0.14185484, -0.25190258
1041, 259207860, 0.9623212, -0.07437046, 0.24495311, 0.09167756, 0.07526843, 0.12756002, -0.18935299
1042, 259224527, 0.9624159, -0.0738092, 0.24479854, 0.09155181, 0.059713945, -0.06022495, -0.44511795
1043, 259241194, 0.96245515, -0.073458664, 0.24483237, 0.091329694, 8.748297E-4, -0.22017708, -0.8340244
1044, 259257861, 0.9623517, -0.07334419, 0.24539001, 0.09101505, -0.036267214, -0.114145495, -1.1436205
1045, 259274528, 0.9621285, -0.07298195, 0.24643372, 0.09084531, -0.11429827, -0.011372339, -1.1438379
1046, 259291195, 0.9618578, -0.07182859, 0.24790117, 0.0906389, -0.031948943, -0.065901175, -1.032155
1047, 259307862, 0.96159583, -0.070603155, 0.24939334, 0.090287074, 0.118190296, -0.039297264, -0.8415308
1048, 259324529, 0.96133804, -0.06965895, 0.25072372, 0.090081714, 0.16594541, 0.1358671, -0.79251003
1049, 259341196, 0.96102786, -0.068198636, 0.2523263, 0.09003347, -0.07553531, 0.17096758, -0.635849
1050, 259357863, 0.960625, -0.066266805, 0.25443754, 0.08983476, -0.027625307, 0.29918468, -0.4238062
1051, 259374530, 0.9601718, -0.064189486, 0.25672042, 0.08969024, 0.2357333, 0.4582052, -0.07482815
1052, 259391197, 0.9597605, -0.06189763, 0.2588764, 0.089506544, 0.2556436, 0.54199207, 0.20059872
1053, 259407864, 0.9594211, -0.05901639, 0.260611, 0.09005805, 0.113872476, 0.48366627, 0.61104965
1054, 259424531, 0.95920676, -0.05570433, 0.26183954, 0.09088366, 0.16252834, 0.22648668, 0.7379885
1055, 259441198, 0.959024, -0.05320566, 0.26282507, 0.09146184, 0.18031728, 0.04563978, 0.6635008
1056, 259457865, 0.9587606, -0.05219958, 0.26383156, 0.091905184, 0.21206261, -0.03328784, 0.673954
1057, 259474532, 0.9584409, -0.052114584, 0.26496488, 0.092025615, -0.012014715, 0.04562151, 0.77151585
1058, 259491199, 0.9581352, -0.052025985, 0.2660562, 0.092110686, -0.009020983, 0.24201284, 0.8929453
1059, 259507866, 0.957856, -0.051709395, 0.2670364, 0.09235549, 0.15262896, 0.17016983, 1.0046654
1060, 259524533, 0.9577024, -0.05085072, 0.2676253, 0.09272009, 0.18394513, 0.10034528, 0.9597044
1061, 259541200, 0.9576367, -0.0496859, 0.26798022, 0.09300461, 0.07032031, 0.037930876, 0.8022909
1062, 259557867, 0.9575132, -0.048882414, 0.26848727, 0.09323906, -0.015540632, 0.07814826, 0.75041676
1063, 259574534, 0.957391, -0.048809603, 0.2688955, 0.093356796, 0.053978827, 0.03285903, 0.8526125
1064, 259591201, 0.9573309, -0.049114477, 0.26903197, 0.09341961, 0.03951575, -0.009410733, 0.83803844
1065, 259607868, 0.95731664, -0.048853774, 0.2691122, 0.093471535, 0.018003969, 0.024197401, 0.7257366
1066, 259624535, 0.95736855, -0.04802094, 0.2690872, 0.09344247, -0.012929107, 0.03702984, 0.6235304
1067, 259641202, 0.957415, -0.047591873, 0.26902187, 0.093375795, -0.016229946, 0.026361508, 0.49106598
1068, 259657869, 0.9575058, -0.04777645, 0.268725, 0.093203634, 0.037953842, -0.063393384, 0.43321896
1069, 259674536, 0.9576726, -0.048025258, 0.26820242, 0.092866935, -0.027022716, -0.09950688, 0.2918434
1070, 259691203, 0.95781124, -0.04820028, 0.26781908, 0.09245282, -0.05453001, 0.029714791, 0.055295944
1071, 259707870, 0.9578662, -0.048399583, 0.26767838, 0.09218611, -0.081050046, 0.16801207, 0.08416271
1072, 259724537, 0.9579021, -0.04830066, 0.26761937, 0.092036285, -0.021893093, 0.058126695, 0.12973976
1073, 259741204, 0.95797783, -0.04833052, 0.2674529, 0.09171549, 0.04805886, -0.07271061, 0.037940025
1074, 259757871, 0.95804185, -0.049175475, 0.2672204, 0.09127415, 0.14811422, -0.015313208, -0.12429714
1075, 259774538, 0.9581011, -0.050033752, 0.26699, 0.09085961, 0.07183908, 0.1890023, -0.003025055
1076, 259791205, 0.95816225, -0.049976632, 0.2668754, 0.09058162, 0.04014762, 0.28603974, 0.10923672
1077, 259807872, 0.9581847, -0.04967962, 0.26691434, 0.090392336, 0.010933807, 0.22820567, -0.09667683
1078, 259824539, 0.958151, -0.05015924, 0.26698947, 0.09026229, 0.16110277, 0.13883507, -0.25225067
