DeviceTag:,Xsens DOT 4,,,,,,,,,,,,,,,,,
FirmwareVersion:,1.3.0,,,,,,,,,,,,,,,,,
AppVersion:,2020.1.1,,,,,,,,,,,,,,,,,
Measurement Mode:,Sensor fusion Mode - Orientation (Quaternion),,,,,,,,,,,,,,,,,
StartTime:,2020-08-11 10:05:51.846 +0200,,,,,,,,,,,,,,,,,
© Xsens Technologies B. V. 2005-2020,,,,,,,,,,,,,,,,,,,
PacketCounter,SampleTimeFine,Quat_W,Quat_X,Quat_Y,Quat_Z
1, 321228317, 0.97453433, 0.007897489, 0.039371405, 0.22061473
2, 321244984, 0.9745915, 0.008658214, 0.0375988, 0.22064196
3, 321261651, 0.9745915, 0.0095276, 0.037158243, 0.22068045
4, 321278318, 0.9746001, 0.010470119, 0.036549352, 0.220702
5, 321294985, 0.97458816, 0.011378747, 0.03620927, 0.22076572
6, 321311652, 0.97456914, 0.011842065, 0.035967506, 0.22086509
7, 321328319, 0.97455853, 0.012109323, 0.03582747, 0.22092001
8, 321344986, 0.9745671, 0.012148819, 0.03554995, 0.2209245
9, 321361653, 0.9745742, 0.012342963, 0.03541079, 0.22090471
10, 321378320, 0.9745693, 0.012715947, 0.035382386, 0.2209102
11, 321394987, 0.9745593, 0.013087831, 0.035513572, 0.22091092
12, 321411654, 0.974558, 0.0130625395, 0.035710722, 0.22088632
13, 321428321, 0.9745593, 0.012891468, 0.035985444, 0.22084622
14, 321444988, 0.9745794, 0.012830274, 0.036270462, 0.22071476
15, 321461655, 0.97459894, 0.01318832, 0.03665656, 0.22054401
16, 321478322, 0.9746305, 0.013693378, 0.03697542, 0.22031996
17, 321494989, 0.9746873, 0.013655838, 0.03702143, 0.22006305
18, 321511656, 0.97484434, 0.013104198, 0.036878895, 0.21942388
19, 321528323, 0.97494185, 0.012735505, 0.036791798, 0.2190268
20, 321544990, 0.9750127, 0.012857202, 0.036863364, 0.21869223
21, 321561657, 0.9751089, 0.013066672, 0.03697518, 0.21823093
22, 321578324, 0.97518826, 0.012933689, 0.03688563, 0.21789919
23, 321594991, 0.97535455, 0.012892972, 0.03677975, 0.21717398
24, 321611658, 0.97537553, 0.013116148, 0.036769457, 0.21706854
25, 321628325, 0.9754312, 0.013407686, 0.036850248, 0.21678634
26, 321644992, 0.9753757, 0.013509022, 0.036766954, 0.21704416
27, 321661659, 0.9754311, 0.013618203, 0.03664992, 0.21680789
28, 321678326, 0.9754563, 0.013615046, 0.03649803, 0.21672063
29, 321694993, 0.9754437, 0.013780637, 0.036425468, 0.2167786
30, 321711660, 0.975346, 0.013885295, 0.0363379, 0.21722555
31, 321728327, 0.9753851, 0.01389561, 0.03611978, 0.21708582
32, 321744994, 0.9753477, 0.013941199, 0.03587036, 0.21729212
33, 321761661, 0.9753347, 0.014263301, 0.035806794, 0.21734013
34, 321778328, 0.97527295, 0.01449994, 0.035788562, 0.21760473
35, 321794995, 0.97521514, 0.014239058, 0.035570096, 0.21791638
36, 321811662, 0.97520024, 0.013587525, 0.035245128, 0.21807799
37, 321828329, 0.9751052, 0.013180089, 0.035092644, 0.21855184
38, 321844996, 0.97506106, 0.01313895, 0.035216916, 0.21873099
39, 321861663, 0.97498584, 0.013021994, 0.03537362, 0.21904762
40, 321878330, 0.9748731, 0.012924976, 0.035580017, 0.21952121
41, 321894997, 0.9747977, 0.012876018, 0.035890937, 0.21980776
42, 321911664, 0.97472423, 0.012862531, 0.03633327, 0.22006212
43, 321928331, 0.97474134, 0.012761925, 0.036752503, 0.21992294
44, 321944998, 0.9746749, 0.012588005, 0.03717769, 0.22015585
45, 321961665, 0.9747053, 0.012604364, 0.037605934, 0.21994723
46, 321978332, 0.9747443, 0.012643157, 0.038060684, 0.2196942
47, 321994999, 0.9747736, 0.01247966, 0.038427882, 0.21950856
48, 322011666, 0.97476447, 0.012116859, 0.038643893, 0.21953194
49, 322028333, 0.9749046, 0.012024269, 0.03887698, 0.21887214
50, 322045000, 0.9749092, 0.012151646, 0.039184067, 0.21878988
51, 322061667, 0.97495896, 0.012389104, 0.03951367, 0.21849537
52, 322078334, 0.9749249, 0.012391661, 0.03973424, 0.21860687
53, 322095001, 0.97492844, 0.0124301845, 0.039955176, 0.21854901
54, 322111668, 0.97490686, 0.0128225945, 0.040403526, 0.2185401
55, 322128335, 0.97487766, 0.013074362, 0.0410067, 0.21854365
56, 322145002, 0.97483844, 0.012829116, 0.041536674, 0.21863335
57, 322161669, 0.97472924, 0.012573332, 0.042239893, 0.21899924
58, 322178336, 0.97470707, 0.012354527, 0.04321185, 0.2189208
59, 322195003, 0.9746016, 0.011654449, 0.044136528, 0.2192437
60, 322211670, 0.9745564, 0.010006086, 0.044697262, 0.21941307
61, 322228337, 0.9744492, 0.008573953, 0.045329966, 0.21981965
62, 322245004, 0.9744821, 0.0083614085, 0.046271283, 0.21948543
63, 322261671, 0.9744807, 0.008995322, 0.047408115, 0.21922372
64, 322278338, 0.9744305, 0.00957876, 0.048439868, 0.21919668
65, 322295005, 0.9743623, 0.009709156, 0.04941588, 0.21927617
66, 322311672, 0.97437656, 0.009594737, 0.050469935, 0.21897744
67, 322328339, 0.97447693, 0.009436627, 0.05158757, 0.21827634
68, 322345006, 0.97430974, 0.009190863, 0.052753747, 0.21875422
69, 322361673, 0.97428495, 0.009280691, 0.054014154, 0.2185531
70, 322378340, 0.9741341, 0.009568028, 0.05549882, 0.2188409
71, 322395007, 0.9738545, 0.0094686225, 0.057101045, 0.2196754
72, 322411674, 0.9735141, 0.009121009, 0.05867589, 0.2207816
73, 322428341, 0.9732281, 0.0094118165, 0.060552824, 0.221522
74, 322445008, 0.9728822, 0.009873124, 0.06280174, 0.22239369
75, 322461675, 0.9730237, 0.010321225, 0.06520777, 0.22105749
76, 322478342, 0.9726971, 0.010392722, 0.067677155, 0.22174846
77, 322495009, 0.9725747, 0.010841868, 0.07044247, 0.2214022
78, 322511676, 0.9724087, 0.011806184, 0.073565565, 0.22106566
79, 322528343, 0.97227025, 0.0126642035, 0.07693741, 0.22047873
80, 322545010, 0.97214216, 0.012866675, 0.08009322, 0.21990722
81, 322561677, 0.9717213, 0.012126057, 0.08299603, 0.22073188
82, 322578344, 0.97155184, 0.0117463395, 0.08599771, 0.2203487
83, 322595011, 0.9712797, 0.011998229, 0.08934752, 0.22020233
84, 322611678, 0.97091645, 0.0123035535, 0.09285632, 0.22033562
85, 322628345, 0.9705945, 0.011824104, 0.09612184, 0.22038047
86, 322645012, 0.97024614, 0.010775386, 0.09926523, 0.22057375
87, 322661679, 0.9698352, 0.010383456, 0.10262563, 0.22086184
88, 322678346, 0.969387, 0.010482694, 0.106333055, 0.22107126
89, 322695013, 0.96894246, 0.009942664, 0.109797925, 0.22135101
90, 322711680, 0.9684772, 0.008794794, 0.11303107, 0.22180772
91, 322728347, 0.9679453, 0.007682664, 0.11640644, 0.22242452
92, 322745014, 0.967344, 0.0076031666, 0.12012248, 0.22306657
93, 322761681, 0.9667086, 0.008628903, 0.124193765, 0.22355375
94, 322778348, 0.966047, 0.009937588, 0.128468, 0.22394319
95, 322795015, 0.9653835, 0.0107841175, 0.13293318, 0.22415893
96, 322811682, 0.964703, 0.011192518, 0.13732967, 0.22441801
97, 322828349, 0.9639711, 0.012013526, 0.14204285, 0.22458716
98, 322845016, 0.9631894, 0.013052429, 0.14731392, 0.22448736
99, 322861683, 0.9623797, 0.013361442, 0.15271796, 0.22433098
100, 322878350, 0.9616144, 0.012203392, 0.15771154, 0.22422339
101, 322895017, 0.9608542, 0.0101260785, 0.16238365, 0.22425084
102, 322911684, 0.96003515, 0.008806412, 0.16732697, 0.22418071
103, 322928351, 0.95914, 0.0078239245, 0.17257732, 0.2240678
104, 322945018, 0.9582298, 0.0060572145, 0.17760034, 0.2240924
105, 322961685, 0.95733446, 0.0032896947, 0.18212682, 0.22434309
106, 322978352, 0.9564058, 0.0011003404, 0.18663643, 0.22461872
107, 322995019, 0.9554079, 4.9890723E-4, 0.1917192, 0.22458664
108, 323011686, 0.95434165, 0.0010371113, 0.19703649, 0.22451682
109, 323028353, 0.95321673, 0.0018406876, 0.20243458, 0.22448823
110, 323045020, 0.9520211, 0.002469419, 0.20791468, 0.22454652
111, 323061687, 0.95073396, 0.0025824693, 0.21373957, 0.22452968
112, 323078354, 0.94943655, 0.0016258116, 0.21942462, 0.22454472
113, 323095021, 0.94807494, -5.1251467E-5, 0.22496009, 0.22482626
114, 323111688, 0.94665766, -0.0016938772, 0.23065215, 0.22502476
115, 323128355, 0.9451491, -0.0028634097, 0.23660226, 0.2251766
116, 323145022, 0.94356066, -0.003679147, 0.24289559, 0.22512592
117, 323161689, 0.94188964, -0.0050682044, 0.2492675, 0.22513144
118, 323178356, 0.94012177, -0.00782734, 0.25549012, 0.22546619
119, 323195023, 0.93819326, -0.0125884395, 0.26125354, 0.22667547
120, 323211690, 0.9361203, -0.018580498, 0.26671562, 0.2284655
121, 323228357, 0.93394536, -0.025262052, 0.27220646, 0.23024248
122, 323245024, 0.9317496, -0.032074995, 0.27767783, 0.23175238
123, 323261691, 0.92953074, -0.038061872, 0.28328338, 0.23296921
124, 323278358, 0.92735434, -0.041859582, 0.28922775, 0.23368627
125, 323295025, 0.9251697, -0.043442447, 0.295841, 0.23377751
126, 323311692, 0.92295176, -0.04518214, 0.30240032, 0.23382235
127, 323328359, 0.92064255, -0.047624126, 0.30877352, 0.2341119
128, 323345026, 0.91824144, -0.050144006, 0.31519306, 0.23446037
129, 323361693, 0.9157677, -0.052175112, 0.32182008, 0.23468982
130, 323378360, 0.9132601, -0.053977024, 0.32857075, 0.23469925
131, 323395027, 0.91067713, -0.055716153, 0.3354356, 0.2346186
132, 323411694, 0.9080265, -0.05703562, 0.34246778, 0.234416
133, 323428361, 0.905184, -0.05809799, 0.34960166, 0.23461759
134, 323445028, 0.9020979, -0.059406005, 0.3570538, 0.23495375
135, 323461695, 0.89893186, -0.06196285, 0.36419496, 0.23546633
136, 323478362, 0.8956575, -0.065189034, 0.37115502, 0.23620346
137, 323495029, 0.8922181, -0.06847911, 0.3782986, 0.23695515
138, 323511696, 0.8887564, -0.070254706, 0.38582262, 0.23731326
139, 323528363, 0.8852338, -0.07054934, 0.39385968, 0.23718888
140, 323545030, 0.88169074, -0.07055806, 0.40207553, 0.2365978
141, 323561697, 0.8779953, -0.070447505, 0.41032115, 0.23621592
142, 323578364, 0.8742273, -0.06966971, 0.41864708, 0.23581266
143, 323595031, 0.8703734, -0.06836473, 0.4270487, 0.2353843
144, 323611698, 0.8664249, -0.06687949, 0.4357656, 0.2344001
145, 323628365, 0.8621462, -0.06577191, 0.44491866, 0.23329298
146, 323645032, 0.8577966, -0.06557667, 0.45359176, 0.2326781
147, 323661699, 0.85373884, -0.065056935, 0.46140292, 0.23238961
148, 323678366, 0.84968424, -0.064506374, 0.46915805, 0.23187616
149, 323695033, 0.8457618, -0.06428481, 0.4769058, 0.23046769
150, 323711700, 0.8420856, -0.063288786, 0.48467588, 0.22798187
151, 323728367, 0.8385284, -0.061216395, 0.49280217, 0.22420695
152, 323745034, 0.83492523, -0.059383266, 0.5009717, 0.22000208
153, 323761701, 0.8313059, -0.057466313, 0.50877666, 0.2162743
154, 323778368, 0.8273568, -0.05592751, 0.5165498, 0.21337624
155, 323795035, 0.8231625, -0.055894483, 0.52413106, 0.21110682
156, 323811702, 0.8188659, -0.05647614, 0.5314794, 0.20928185
157, 323828369, 0.81428474, -0.056451112, 0.53914315, 0.2075536
158, 323845036, 0.809322, -0.056475066, 0.5472185, 0.20581646
159, 323861703, 0.8044474, -0.057216387, 0.554733, 0.20460215
160, 323878370, 0.7996599, -0.058671795, 0.5614733, 0.20457184
161, 323895037, 0.7948067, -0.060366884, 0.5681801, 0.20447385
162, 323911704, 0.78994715, -0.061826598, 0.5750324, 0.20371282
163, 323928371, 0.78517526, -0.062398113, 0.58205855, 0.20202479
164, 323945038, 0.7806338, -0.06227843, 0.58894014, 0.19970429
165, 323961705, 0.7764029, -0.061601456, 0.5954924, 0.1969588
166, 323978372, 0.772094, -0.060947366, 0.6019401, 0.19448511
167, 323995039, 0.7677908, -0.061375454, 0.6079476, 0.19269215
168, 324011706, 0.76365066, -0.06296403, 0.6134196, 0.1912842
169, 324028373, 0.75977796, -0.06547226, 0.6182066, 0.19045083
170, 324045040, 0.7562997, -0.06809449, 0.62236196, 0.18984117
171, 324061707, 0.7530871, -0.06956801, 0.6264595, 0.18859723
172, 324078374, 0.74994266, -0.07005015, 0.6308135, 0.18642294
173, 324095041, 0.7471316, -0.070039935, 0.63493645, 0.18369728
174, 324111708, 0.7446868, -0.069793046, 0.63860554, 0.18098025
175, 324128375, 0.74243104, -0.06906878, 0.6419367, 0.17872564
176, 324145042, 0.740235, -0.06821675, 0.6449977, 0.17713454
177, 324161709, 0.7380236, -0.06762297, 0.6478167, 0.17630067
178, 324178376, 0.73580426, -0.06771679, 0.6503613, 0.17617291
179, 324195043, 0.7337099, -0.06858614, 0.65249765, 0.17667113
180, 324211710, 0.7317722, -0.06966655, 0.6542793, 0.17769289
181, 324228377, 0.72994006, -0.070665784, 0.6558703, 0.17896426
182, 324245044, 0.7282077, -0.07169552, 0.65734905, 0.18018283
183, 324261711, 0.72657794, -0.07281421, 0.65880185, 0.18100557
184, 324278378, 0.7251715, -0.0739176, 0.6600747, 0.18155968
185, 324295045, 0.7241406, -0.07406543, 0.6612015, 0.18151437
186, 324311712, 0.7232065, -0.0732819, 0.6623516, 0.18136336
187, 324328379, 0.7221248, -0.07179237, 0.66393954, 0.18046114
188, 324345046, 0.7210353, -0.07015326, 0.6657243, 0.17887971
189, 324361713, 0.7199663, -0.068719365, 0.66740334, 0.17748035
190, 324378380, 0.7191325, -0.067689456, 0.6687085, 0.1763399
191, 324395047, 0.7183059, -0.06678632, 0.66986686, 0.17565542
192, 324411714, 0.71730226, -0.06620944, 0.671152, 0.17506866
193, 324428381, 0.71631366, -0.06637733, 0.67221487, 0.17497468
194, 324445048, 0.7154497, -0.06716456, 0.6729292, 0.17546293
195, 324461715, 0.7147222, -0.067658044, 0.67347926, 0.17612606
196, 324478382, 0.713928, -0.06743746, 0.67424023, 0.17652008
197, 324495049, 0.71315277, -0.06686957, 0.67511266, 0.1765351
198, 324511716, 0.71207535, -0.06247564, 0.6749236, 0.18309489
199, 324528383, 0.7089275, -0.052026037, 0.67544466, 0.19618773
200, 324545050, 0.7068504, -0.043830786, 0.6753158, 0.20588864
201, 324561717, 0.70583844, -0.039762557, 0.67545384, 0.20969772
202, 324578384, 0.7058032, -0.039666954, 0.6755325, 0.20958082
203, 324595051, 0.70614004, -0.040644195, 0.6751232, 0.20957822
204, 324611718, 0.70585036, -0.04110186, 0.6754027, 0.2095645
205, 324628385, 0.7058558, -0.04178852, 0.67539865, 0.20942418
206, 324645052, 0.70560914, -0.042315863, 0.6756613, 0.20930117
207, 324661719, 0.70533395, -0.04281299, 0.675906, 0.20933764
208, 324678386, 0.7051393, -0.04349611, 0.6759564, 0.20969014
209, 324695053, 0.70499426, -0.04433107, 0.6759243, 0.21010524
210, 324711720, 0.7049034, -0.045185637, 0.67588305, 0.21036075
211, 324728387, 0.7047922, -0.045916423, 0.6758945, 0.21053766
212, 324745054, 0.7047416, -0.04665612, 0.67583627, 0.21073204
213, 324761721, 0.70470524, -0.047493886, 0.67576444, 0.21089704
214, 324778388, 0.7047133, -0.04817331, 0.6756837, 0.21097447
215, 324795055, 0.7046724, -0.048509426, 0.6757179, 0.21092454
216, 324811722, 0.70463693, -0.048730206, 0.6757469, 0.21089946
217, 324828389, 0.70459116, -0.049225893, 0.6757341, 0.21097815
218, 324845056, 0.7046155, -0.049619667, 0.67567885, 0.21098103
219, 324861723, 0.70467794, -0.049894404, 0.6755793, 0.21102689
220, 324878390, 0.70474184, -0.049633324, 0.67563707, 0.21069026
221, 324895057, 0.70479774, -0.04917075, 0.67574567, 0.21026254
222, 324911724, 0.7047848, -0.04882293, 0.67585725, 0.21002851
223, 324928391, 0.70475364, -0.04870401, 0.6758838, 0.2100748
224, 324945058, 0.7046831, -0.048978794, 0.675795, 0.21053278
225, 324961725, 0.704558, -0.049377408, 0.67575526, 0.21098517
226, 324978392, 0.70434064, -0.049602527, 0.6758299, 0.21141908
227, 324995059, 0.70407426, -0.049875293, 0.67591715, 0.21196236
228, 325011726, 0.7038219, -0.050365254, 0.67593735, 0.21261919
229, 325028393, 0.7036552, -0.050914016, 0.67588276, 0.21321334
230, 325045060, 0.7034337, -0.0512973, 0.6759536, 0.21362655
231, 325061727, 0.7031573, -0.051601913, 0.6761226, 0.21392848
232, 325078394, 0.7027506, -0.052343905, 0.6763048, 0.21450773
233, 325095061, 0.7024543, -0.053195883, 0.6763057, 0.21526484
234, 325111728, 0.70221305, -0.05366849, 0.6763537, 0.2157831
235, 325128395, 0.702057, -0.053538848, 0.6765401, 0.21573877
236, 325145062, 0.7020387, -0.053219218, 0.67671716, 0.21532229
237, 325161729, 0.70202094, -0.052943483, 0.67690927, 0.21484329
238, 325178396, 0.70195085, -0.052913856, 0.677056, 0.21461722
239, 325195063, 0.701909, -0.053300705, 0.6770126, 0.21479459
240, 325211730, 0.70193636, -0.05360893, 0.67692345, 0.21490912
241, 325228397, 0.7019773, -0.053708214, 0.67687064, 0.21491736
242, 325245064, 0.70202845, -0.053689208, 0.676845, 0.21483564
243, 325261731, 0.702123, -0.05376137, 0.67670316, 0.21495584
244, 325278398, 0.7021445, -0.05391977, 0.676565, 0.21528116
245, 325295065, 0.7021105, -0.054259352, 0.67636764, 0.21592504
246, 325311732, 0.7020947, -0.05490495, 0.6760778, 0.21672009
247, 325328399, 0.70218194, -0.055554032, 0.67571616, 0.21739808
248, 325345066, 0.70229137, -0.055970207, 0.67544794, 0.2177718
249, 325361733, 0.7023788, -0.056305587, 0.6752681, 0.21796103
250, 325378400, 0.70246595, -0.05655031, 0.6751128, 0.21809764
251, 325395067, 0.70258945, -0.056841284, 0.6749001, 0.21828245
252, 325411734, 0.7027315, -0.05696681, 0.67470896, 0.2183826
253, 325428401, 0.7028707, -0.057021152, 0.6745727, 0.21834138
254, 325445068, 0.7030409, -0.05705467, 0.67442596, 0.21823831
255, 325461735, 0.7032088, -0.05705509, 0.6743068, 0.21806559
256, 325478402, 0.7033847, -0.056956064, 0.6742001, 0.21785372
257, 325495069, 0.70359445, -0.05681919, 0.6740909, 0.21755002
258, 325511736, 0.70394206, -0.05655518, 0.6738949, 0.21710116
259, 325528403, 0.7043558, -0.056304455, 0.6736837, 0.21647888
260, 325545070, 0.70483905, -0.056027222, 0.6733889, 0.21589449
261, 325561737, 0.70541555, -0.05588582, 0.6729452, 0.21543075
262, 325578404, 0.7060719, -0.05574125, 0.6724256, 0.21494026
263, 325595071, 0.7068045, -0.05563289, 0.6718162, 0.21446535
264, 325611738, 0.7076706, -0.05553735, 0.67102844, 0.21410014
265, 325628405, 0.7086819, -0.05540048, 0.67011064, 0.21366487
266, 325645072, 0.7097454, -0.05545375, 0.6690916, 0.2133145
267, 325661739, 0.7109595, -0.055752728, 0.66779053, 0.21327022
268, 325678406, 0.71227694, -0.056490637, 0.66615325, 0.21380031
269, 325695073, 0.71376234, -0.05732091, 0.6642343, 0.21459389
270, 325711740, 0.71537364, -0.057955578, 0.6622035, 0.21533355
271, 325728407, 0.71720284, -0.058536272, 0.659943, 0.21603031
272, 325745074, 0.7193066, -0.059142563, 0.6573409, 0.21680285
273, 325761741, 0.72165585, -0.059649535, 0.6544509, 0.2175982
274, 325778408, 0.7242589, -0.05995544, 0.65127516, 0.21839242
275, 325795075, 0.72706854, -0.060154587, 0.64789695, 0.21904883
276, 325811742, 0.7301796, -0.060181644, 0.64422846, 0.21951233
277, 325828409, 0.7335684, -0.05987317, 0.6403007, 0.21979032
278, 325845076, 0.73720324, -0.05930762, 0.63612986, 0.21989343
279, 325861743, 0.7410234, -0.058541078, 0.6317498, 0.21988504
280, 325878410, 0.7450196, -0.057555374, 0.6271739, 0.21974087
281, 325895077, 0.74911726, -0.056063198, 0.6225472, 0.21935187
282, 325911744, 0.75323063, -0.054500673, 0.6178614, 0.21890804
283, 325928411, 0.7574859, -0.05306423, 0.61281765, 0.21875554
284, 325945078, 0.7618368, -0.051694363, 0.607451, 0.21894212
285, 325961745, 0.7661704, -0.050487008, 0.6018813, 0.21948378
286, 325978412, 0.77044415, -0.049582053, 0.5961193, 0.22045247
287, 325995079, 0.77477735, -0.048984643, 0.5900979, 0.22159672
288, 326011746, 0.77921396, -0.04830806, 0.5838141, 0.22283019
289, 326028413, 0.7837469, -0.04750224, 0.5773268, 0.22400492
290, 326045080, 0.7883247, -0.046386912, 0.5707204, 0.22510134
291, 326061747, 0.7928829, -0.045142073, 0.56400436, 0.2262698
292, 326078414, 0.7974837, -0.04408605, 0.5570044, 0.22764502
293, 326095081, 0.80213207, -0.043265376, 0.54968184, 0.22926514
294, 326111748, 0.8068692, -0.042328898, 0.54218274, 0.2306696
295, 326128415, 0.8116877, -0.041075636, 0.53450245, 0.23191169
296, 326145082, 0.8165761, -0.03910586, 0.52676654, 0.23279014
297, 326161749, 0.82143867, -0.036978118, 0.51895076, 0.23358414
298, 326178416, 0.8262771, -0.035085365, 0.5109417, 0.23446505
299, 326195083, 0.83096427, -0.03333263, 0.5029197, 0.23549797
300, 326211750, 0.83551985, -0.032077476, 0.4947554, 0.23684382
301, 326228417, 0.83998966, -0.031338703, 0.48636904, 0.2384962
302, 326245084, 0.84437245, -0.030498207, 0.4779398, 0.24016365
303, 326261751, 0.848733, -0.029351074, 0.4693762, 0.24182044
304, 326278418, 0.8530904, -0.028078629, 0.46062323, 0.2434638
305, 326295085, 0.8573481, -0.026600217, 0.45189077, 0.24503362
306, 326311752, 0.86148417, -0.02460376, 0.44339126, 0.24626021
307, 326328419, 0.8655685, -0.022414166, 0.43496254, 0.24717674
308, 326345086, 0.8692694, -0.021211205, 0.4269345, 0.24828994
309, 326361753, 0.8728684, -0.021583902, 0.41836533, 0.25021064
310, 326378420, 0.8762803, -0.022519099, 0.40981296, 0.2523472
311, 326395087, 0.87953734, -0.023000136, 0.40161285, 0.2541501
312, 326411754, 0.8826653, -0.02281912, 0.39383635, 0.2554887
313, 326428421, 0.8857277, -0.021767434, 0.3864753, 0.2562218
314, 326445088, 0.88873065, -0.019891204, 0.3792938, 0.25670746
315, 326461755, 0.89158356, -0.017106494, 0.3724316, 0.25706258
316, 326478422, 0.8944094, -0.013923485, 0.36562076, 0.25721484
317, 326495089, 0.8970709, -0.010716969, 0.3592791, 0.25703642
318, 326511756, 0.8996364, -0.008369094, 0.35305393, 0.25678238
319, 326528423, 0.9022666, -0.006555784, 0.34651935, 0.25650787
320, 326545090, 0.90476656, -0.00441641, 0.34045938, 0.25586247
321, 326561757, 0.90713054, -0.0030517676, 0.3346145, 0.2552214
322, 326578424, 0.90946245, -0.002439022, 0.32871768, 0.25459132
323, 326595091, 0.91176164, -0.0016313107, 0.32266638, 0.25411496
324, 326611758, 0.91396743, -3.989082E-4, 0.31663465, 0.2537834
325, 326628425, 0.9160379, 4.8616255E-4, 0.31077465, 0.25356206
326, 326645092, 0.91806924, 5.692329E-4, 0.3046911, 0.25359777
327, 326661759, 0.9200506, 4.8719996E-4, 0.29839057, 0.25390905
328, 326678426, 0.92190653, 5.0137995E-4, 0.29216224, 0.2544199
329, 326695093, 0.92365456, 2.0733038E-4, 0.28615946, 0.25490233
330, 326711760, 0.92540973, -8.3895103E-4, 0.27989385, 0.2554907
331, 326728427, 0.92717075, -0.001836845, 0.27344257, 0.25608635
332, 326745094, 0.92895424, -0.0022360869, 0.26689443, 0.2565275
333, 326761761, 0.93074983, -0.0016135962, 0.26056856, 0.25652704
334, 326778428, 0.9325582, -2.2441766E-4, 0.25437757, 0.25617844
335, 326795095, 0.93433946, 9.1200764E-4, 0.24817736, 0.25576812
336, 326811762, 0.9360916, 0.0017730284, 0.24186844, 0.25539988
337, 326828429, 0.93777496, 0.0025041986, 0.2355473, 0.25512668
338, 326845096, 0.93945426, 0.0034430523, 0.2292794, 0.25464723
339, 326861763, 0.94111556, 0.004857811, 0.22315273, 0.25393087
340, 326878430, 0.9427079, 0.0069923652, 0.21721958, 0.2531179
341, 326895097, 0.94426, 0.009252239, 0.21115819, 0.25238824
342, 326911764, 0.9457607, 0.011429808, 0.20527251, 0.25153393
343, 326928431, 0.9472084, 0.012948999, 0.19944626, 0.25069934
344, 326945098, 0.94858944, 0.013586328, 0.19345114, 0.25014046
345, 326961765, 0.94990253, 0.013803228, 0.18733776, 0.24979861
346, 326978432, 0.9511192, 0.014100898, 0.1814443, 0.2495029
347, 326995099, 0.9522677, 0.01443703, 0.17580783, 0.24913721
348, 327011766, 0.9533288, 0.014674943, 0.17027092, 0.2489111
349, 327028433, 0.9543569, 0.014894492, 0.16493489, 0.24855164
350, 327045100, 0.955322, 0.01555167, 0.15972711, 0.24820457
351, 327061767, 0.9561912, 0.017014466, 0.1548955, 0.24782339
352, 327078434, 0.9569794, 0.018820642, 0.15029904, 0.24748078
353, 327095101, 0.9577341, 0.019942302, 0.14573479, 0.24720265
354, 327111768, 0.95846987, 0.020578848, 0.14121641, 0.24692112
355, 327128435, 0.9592207, 0.021119833, 0.13669847, 0.2465021
356, 327145102, 0.9599304, 0.022019856, 0.13256238, 0.24591866
357, 327161769, 0.9605854, 0.023194904, 0.12871915, 0.245294
358, 327178436, 0.96121866, 0.02434071, 0.12466421, 0.24479657
359, 327195103, 0.9618203, 0.025642546, 0.12062982, 0.24432111
360, 327211770, 0.9623826, 0.026948504, 0.116954, 0.24375296
361, 327228437, 0.96294415, 0.027782233, 0.11326628, 0.24318244
362, 327245104, 0.9634995, 0.028027164, 0.10933642, 0.24275292
363, 327261771, 0.96402365, 0.027853452, 0.10536603, 0.2424477
364, 327278438, 0.96451986, 0.027652396, 0.101616345, 0.24209723
365, 327295105, 0.96501726, 0.027570654, 0.09803983, 0.24159855
366, 327311772, 0.9654888, 0.027592897, 0.09443823, 0.24114648
367, 327328439, 0.9659458, 0.027557334, 0.090783246, 0.24072401
368, 327345106, 0.9663973, 0.027554119, 0.087103054, 0.24027127
369, 327361773, 0.96682096, 0.027805476, 0.08367185, 0.23975624
370, 327378440, 0.96723074, 0.028161222, 0.08037134, 0.2391907
371, 327395107, 0.96764094, 0.028203845, 0.07702458, 0.2386277
372, 327411774, 0.9680446, 0.028161753, 0.07363546, 0.23806421
373, 327428441, 0.96843714, 0.028197952, 0.07037217, 0.23744962
374, 327445108, 0.96883535, 0.028024975, 0.06739551, 0.23670807
375, 327461775, 0.96926904, 0.027173119, 0.06420417, 0.23591784
376, 327478442, 0.9696641, 0.026816778, 0.060985234, 0.2351878
377, 327495109, 0.9699712, 0.027533446, 0.058129333, 0.23456135
378, 327511776, 0.97025615, 0.028553016, 0.055642154, 0.23386261
379, 327528443, 0.9705773, 0.028687088, 0.052986883, 0.23312971
380, 327545110, 0.97090656, 0.02781199, 0.050163604, 0.23248816
381, 327561777, 0.97117776, 0.026715873, 0.047386322, 0.23206607
382, 327578444, 0.971366, 0.026281316, 0.045042332, 0.23179457
383, 327595111, 0.97149134, 0.026585951, 0.04303076, 0.23161645
384, 327611778, 0.971588, 0.026877701, 0.04127466, 0.23149703
385, 327628445, 0.97171575, 0.027152274, 0.039771087, 0.23119216
386, 327645112, 0.971804, 0.027810913, 0.03861078, 0.23093879
387, 327661779, 0.9718777, 0.028921092, 0.037802596, 0.23062585
388, 327678446, 0.97192305, 0.029824244, 0.037067898, 0.23043895
389, 327695113, 0.9719772, 0.029983325, 0.036344416, 0.23030548
390, 327711780, 0.9720245, 0.030126918, 0.03569219, 0.23018922
391, 327728447, 0.9720275, 0.030618515, 0.03569526, 0.23011087
392, 327745114, 0.9720533, 0.031101307, 0.036036838, 0.22988375
393, 327761781, 0.9721155, 0.030453205, 0.036097996, 0.22969781
394, 327778448, 0.97216976, 0.029072395, 0.03624465, 0.22962427
395, 327795115, 0.9721096, 0.02763133, 0.036693953, 0.22998558
396, 327811782, 0.971946, 0.026925936, 0.03745838, 0.23063563
397, 327828449, 0.9716902, 0.026977366, 0.0381648, 0.23158987
398, 327845116, 0.9713815, 0.02723568, 0.038619015, 0.23277652
399, 327861783, 0.9710714, 0.02763596, 0.03915368, 0.23393099
400, 327878450, 0.9707852, 0.028011825, 0.039544884, 0.23500553
401, 327895117, 0.9705326, 0.028008763, 0.03971826, 0.23601805
402, 327911784, 0.9703105, 0.027163958, 0.03958944, 0.23704933
403, 327928451, 0.9701481, 0.025985697, 0.039307468, 0.2378919
404, 327945118, 0.9700427, 0.024980279, 0.0391733, 0.23845126
405, 327961785, 0.9699802, 0.02437865, 0.038857095, 0.2388187
406, 327978452, 0.96989983, 0.024333933, 0.0385125, 0.239205
407, 327995119, 0.9698385, 0.024888976, 0.038293544, 0.23943159
408, 328011786, 0.9697895, 0.025303392, 0.03812632, 0.2396133
409, 328028453, 0.96976197, 0.02540119, 0.037732977, 0.23977672
410, 328045120, 0.96970886, 0.025005559, 0.03714985, 0.24012381
411, 328061787, 0.96965015, 0.02499723, 0.036843713, 0.2404089
412, 328078454, 0.9695817, 0.02551101, 0.036749844, 0.24064521
413, 328095121, 0.9695039, 0.026118137, 0.036953345, 0.24086191
414, 328111788, 0.96942604, 0.026218835, 0.03707424, 0.24114637
415, 328128455, 0.9693535, 0.026016418, 0.037108082, 0.24145426
416, 328145122, 0.9692819, 0.026160035, 0.03737957, 0.24168386
417, 328161789, 0.9692324, 0.02637089, 0.03791429, 0.2417764
418, 328178456, 0.96921974, 0.025986148, 0.038220286, 0.24182089
419, 328195123, 0.9692282, 0.025184903, 0.03827218, 0.2418634
420, 328211790, 0.969228, 0.024709033, 0.038338806, 0.24190223
421, 328228457, 0.9691935, 0.025134707, 0.03869605, 0.24194026
422, 328245124, 0.9691317, 0.025902765, 0.03928784, 0.2420109
423, 328261791, 0.9690908, 0.026047502, 0.03961467, 0.24210611
424, 328278458, 0.96907604, 0.025426779, 0.039696146, 0.24221815
425, 328295125, 0.9690894, 0.024660146, 0.039624233, 0.242255
426, 328311792, 0.9690736, 0.024295527, 0.039694026, 0.24234393
427, 328328459, 0.96904165, 0.024181092, 0.039707735, 0.24248065
428, 328345126, 0.9689987, 0.02412306, 0.03969184, 0.24266092
429, 328361793, 0.9689586, 0.024225079, 0.039677653, 0.24281299
430, 328378460, 0.96892005, 0.024697596, 0.039724197, 0.24291176
431, 328395127, 0.9688987, 0.02504071, 0.039714847, 0.24296308
432, 328411794, 0.9689016, 0.025153963, 0.03958802, 0.24296074
433, 328428461, 0.9689078, 0.02522155, 0.03940691, 0.24295826
434, 328445128, 0.9689049, 0.02575905, 0.039411966, 0.24291277
435, 328461795, 0.96892667, 0.026119914, 0.039599616, 0.2427571
436, 328478462, 0.9689803, 0.026053833, 0.03940388, 0.24258141
437, 328495129, 0.96902865, 0.026296163, 0.03930224, 0.24237856
438, 328511796, 0.9690396, 0.02705137, 0.039356925, 0.24224302
439, 328528463, 0.9690649, 0.027719067, 0.039667793, 0.24201521
440, 328545130, 0.96914345, 0.027476842, 0.039616752, 0.24173631
441, 328561797, 0.9692331, 0.026805287, 0.039293315, 0.24150544
442, 328578464, 0.96930337, 0.026538294, 0.03902551, 0.24129653
443, 328595131, 0.96934736, 0.027065339, 0.038973216, 0.24106964
444, 328611798, 0.96936977, 0.027912153, 0.039187588, 0.2408473
445, 328628465, 0.9694369, 0.028152037, 0.039098676, 0.24056347
446, 328645132, 0.9695438, 0.027833626, 0.03875172, 0.24022634
447, 328661799, 0.96964246, 0.027929792, 0.0385086, 0.23985581
448, 328678466, 0.9696888, 0.028668635, 0.038452804, 0.23958977
449, 328695133, 0.96969306, 0.029638356, 0.03861024, 0.23942922
450, 328711800, 0.96970856, 0.02992795, 0.03852257, 0.23934476
451, 328728467, 0.9697491, 0.02996553, 0.038334355, 0.23920542
452, 328745134, 0.96977454, 0.030494967, 0.03823453, 0.23905136
453, 328761801, 0.96976966, 0.03174089, 0.038336504, 0.23889285
454, 328778468, 0.96978056, 0.03263101, 0.038565144, 0.23869118
455, 328795135, 0.96983993, 0.03290054, 0.038590938, 0.23840907
456, 328811802, 0.9699102, 0.032864634, 0.03860397, 0.23812623
457, 328828469, 0.96995044, 0.033193044, 0.03883187, 0.23787916
458, 328845136, 0.9699659, 0.033770025, 0.039163318, 0.23768103
459, 328861803, 0.97000694, 0.034235254, 0.039305735, 0.2374231
460, 328878470, 0.9700553, 0.03472978, 0.03935624, 0.23714536
461, 328895137, 0.9700582, 0.035527878, 0.039536435, 0.23698477
462, 328911804, 0.97003704, 0.036111843, 0.039728932, 0.23695102
463, 328928471, 0.969993, 0.03659981, 0.039685823, 0.23706362
464, 328945138, 0.96993405, 0.03743642, 0.03972442, 0.23716791
465, 328961805, 0.9698578, 0.038656194, 0.03991467, 0.23725186
466, 328978472, 0.96978176, 0.0401385, 0.04022332, 0.2372648
467, 328995139, 0.9696693, 0.041915137, 0.040400453, 0.23738663
468, 329011806, 0.9694756, 0.044633906, 0.040689524, 0.23763248
469, 329028473, 0.96921283, 0.048271198, 0.041184977, 0.23790798
470, 329045140, 0.96886694, 0.05223488, 0.041846864, 0.23836395
471, 329061807, 0.96838605, 0.056530416, 0.042502638, 0.23922053
472, 329078474, 0.9677101, 0.0616148, 0.043120585, 0.24058595
473, 329095141, 0.96680164, 0.06745779, 0.043840017, 0.24253328
474, 329111808, 0.96570736, 0.0741494, 0.04446646, 0.24481408
475, 329128475, 0.9643122, 0.083197385, 0.045261435, 0.24724828
476, 329145142, 0.9626004, 0.09406564, 0.046698026, 0.2497432
477, 329161809, 0.96070784, 0.10498295, 0.04835089, 0.2523517
478, 329178476, 0.95889443, 0.11416374, 0.04919836, 0.25508422
479, 329195143, 0.9570684, 0.12284354, 0.049913168, 0.2577563
480, 329211810, 0.9550262, 0.13225135, 0.05092061, 0.2604646
481, 329228477, 0.9526654, 0.14298213, 0.05235592, 0.26314202
482, 329245144, 0.94996643, 0.15498672, 0.053959187, 0.2657657
483, 329261811, 0.94695085, 0.16775253, 0.055185452, 0.2685109
484, 329278478, 0.94365513, 0.18042085, 0.05667875, 0.27157155
485, 329295145, 0.94013995, 0.19313714, 0.058117233, 0.27469546
486, 329311812, 0.9361826, 0.20690279, 0.05916755, 0.27794388
487, 329328479, 0.931492, 0.22270304, 0.060387, 0.28121123
488, 329345146, 0.92625976, 0.23930511, 0.062384937, 0.2844015
489, 329361813, 0.9211023, 0.25409248, 0.065368146, 0.2876364
490, 329378480, 0.91672826, 0.26551163, 0.06701679, 0.29089838
491, 329395147, 0.9132422, 0.27390677, 0.06752897, 0.2939448
492, 329411814, 0.9099914, 0.28134495, 0.06785642, 0.29691142
493, 329428481, 0.906592, 0.28897434, 0.06885227, 0.2997402
494, 329445148, 0.9028404, 0.2973228, 0.070581384, 0.3024846
495, 329461815, 0.89886487, 0.3059991, 0.07239219, 0.3052312
496, 329478482, 0.8949625, 0.3142595, 0.07350264, 0.30802694
497, 329495149, 0.8912573, 0.3221291, 0.074328214, 0.31043294
498, 329511816, 0.8871011, 0.33121982, 0.07560409, 0.3124565
499, 329528483, 0.8824677, 0.34124437, 0.07728881, 0.31437162
500, 329545150, 0.8773926, 0.35189015, 0.07901579, 0.31640488
501, 329561817, 0.87236357, 0.36240354, 0.080093734, 0.31816772
502, 329578484, 0.86753756, 0.3724161, 0.081444, 0.3194554
503, 329595151, 0.86239374, 0.38269338, 0.0835378, 0.32069355
504, 329611818, 0.8572565, 0.39276716, 0.085388586, 0.32179838
505, 329628485, 0.8519907, 0.40307862, 0.08758765, 0.3224406
506, 329645152, 0.8466373, 0.41316858, 0.089876935, 0.32313967
507, 329661819, 0.84140086, 0.4225682, 0.09200534, 0.32406172
508, 329678486, 0.8364221, 0.43128714, 0.09373385, 0.3249669
509, 329695153, 0.83165526, 0.4393547, 0.09516799, 0.32597557
510, 329711820, 0.82687473, 0.44732794, 0.09640211, 0.32692894
511, 329728487, 0.8221773, 0.45482942, 0.09755395, 0.32808205
512, 329745154, 0.8176968, 0.46180898, 0.09859496, 0.32921657
513, 329761821, 0.8129262, 0.469041, 0.09951958, 0.33052623
514, 329778488, 0.8076064, 0.4766986, 0.10066079, 0.33226216
515, 329795155, 0.80223304, 0.48406157, 0.10195213, 0.3342341
516, 329811822, 0.7971204, 0.49070826, 0.10297017, 0.33645454
517, 329828489, 0.79247266, 0.49653548, 0.1033402, 0.33876315
518, 329845156, 0.78781086, 0.50209796, 0.10395937, 0.34123915
519, 329861823, 0.78343904, 0.5072192, 0.104605116, 0.3435255
520, 329878490, 0.7783571, 0.5130329, 0.10503819, 0.3463012
521, 329895157, 0.7729117, 0.5190708, 0.10552263, 0.34933946
522, 329911824, 0.76685727, 0.5255926, 0.106427506, 0.35264075
523, 329928491, 0.7606846, 0.5319281, 0.10713292, 0.3562781
524, 329945158, 0.7550375, 0.53738225, 0.10772285, 0.3599092
525, 329961825, 0.749405, 0.5430881, 0.10753552, 0.36315817
526, 329978492, 0.7426113, 0.5495172, 0.1081533, 0.36723647
527, 329995159, 0.7353248, 0.55627185, 0.10905096, 0.37143895
528, 330011826, 0.72812814, 0.5626889, 0.11034312, 0.37554634
529, 330028493, 0.7216335, 0.5682707, 0.11089105, 0.37949535
530, 330045160, 0.71482605, 0.57398033, 0.11135199, 0.38362896
531, 330061827, 0.70752513, 0.579948, 0.11228383, 0.38789302
532, 330078494, 0.6994958, 0.5864683, 0.1141098, 0.39209658
533, 330095161, 0.69116586, 0.5930292, 0.116456166, 0.3962881
534, 330111828, 0.68314034, 0.59913063, 0.11876745, 0.40032023
535, 330128495, 0.6752359, 0.60472447, 0.11993073, 0.4049463
536, 330145162, 0.6676026, 0.60974056, 0.120676376, 0.4098301
537, 330161829, 0.6602935, 0.61457586, 0.12112801, 0.41429153
538, 330178496, 0.65287614, 0.6194145, 0.122007474, 0.41856024
539, 330195163, 0.64490366, 0.6243119, 0.123991355, 0.42303672
540, 330211830, 0.63713837, 0.62886596, 0.12624176, 0.4273705
541, 330228497, 0.6289051, 0.6332694, 0.12787819, 0.4325453
542, 330245164, 0.6212249, 0.63747436, 0.12881453, 0.4371649
543, 330261831, 0.61370593, 0.6416118, 0.13009821, 0.4413319
544, 330278498, 0.6059527, 0.6458326, 0.13244285, 0.44517472
545, 330295165, 0.597668, 0.6502741, 0.13579957, 0.4488822
546, 330311832, 0.5888959, 0.6548516, 0.1388631, 0.45286638
547, 330328499, 0.5798001, 0.65946335, 0.14162953, 0.4570351
548, 330345166, 0.5712041, 0.6638888, 0.14418879, 0.4606379
549, 330361833, 0.56304437, 0.6678231, 0.14703973, 0.4640828
550, 330378500, 0.5554963, 0.6712967, 0.14951512, 0.467365
551, 330395167, 0.5481492, 0.67454183, 0.151241, 0.47079942
552, 330411834, 0.54084176, 0.6777141, 0.15238217, 0.47431368
553, 330428501, 0.53371114, 0.68076193, 0.15342684, 0.477678
554, 330445168, 0.5265939, 0.68360335, 0.1544542, 0.48117492
555, 330461835, 0.5196239, 0.6863622, 0.15504321, 0.48462325
556, 330478502, 0.5126638, 0.6890094, 0.1555086, 0.48811784
557, 330495169, 0.5058113, 0.6914002, 0.15595837, 0.49172923
558, 330511836, 0.49934477, 0.6935285, 0.1560328, 0.4953048
559, 330528503, 0.49309173, 0.69558007, 0.15563644, 0.4988049
560, 330545170, 0.4867192, 0.6975825, 0.15510507, 0.5024197
561, 330561837, 0.48044586, 0.6995792, 0.15435624, 0.5059002
562, 330578504, 0.47450256, 0.70139456, 0.15355323, 0.5092292
563, 330595171, 0.4686165, 0.70311815, 0.15270096, 0.5125483
564, 330611838, 0.4626701, 0.70486826, 0.15161845, 0.5158577
565, 330628505, 0.45723626, 0.7065804, 0.14991024, 0.51885086
566, 330645172, 0.4518493, 0.7083744, 0.14793606, 0.5216829
567, 330661839, 0.44622675, 0.7103483, 0.14595443, 0.52438956
568, 330678506, 0.44067544, 0.7125145, 0.14355919, 0.5268011
569, 330695173, 0.43525586, 0.71489483, 0.14085887, 0.52880687
570, 330711840, 0.4299977, 0.7172353, 0.13852045, 0.5305542
571, 330728507, 0.425027, 0.71956563, 0.13600573, 0.53205276
572, 330745174, 0.4196615, 0.7219427, 0.13382569, 0.5336421
573, 330761841, 0.41415384, 0.72420216, 0.13195664, 0.535346
574, 330778508, 0.40973902, 0.7256919, 0.130805, 0.5370057
575, 330795175, 0.40704757, 0.726514, 0.129011, 0.5383733
576, 330811842, 0.40478522, 0.7268158, 0.12657826, 0.540246
577, 330828509, 0.40253842, 0.72680545, 0.12426043, 0.54247224
578, 330845176, 0.40026805, 0.72653043, 0.122438215, 0.5449294
579, 330861843, 0.39781487, 0.72604626, 0.120842464, 0.54772
580, 330878510, 0.39556146, 0.72548693, 0.11912699, 0.55046237
581, 330895177, 0.39330864, 0.72493905, 0.11734753, 0.5531739
582, 330911844, 0.39061436, 0.7244668, 0.11557238, 0.5560678
583, 330928511, 0.38745776, 0.7241524, 0.11355358, 0.5590935
584, 330945178, 0.38425994, 0.72384375, 0.111488305, 0.56210774
585, 330961845, 0.3814536, 0.7235348, 0.10889595, 0.56491786
586, 330978512, 0.37831315, 0.72326124, 0.10648301, 0.56783247
587, 330995179, 0.37484965, 0.7231797, 0.10411742, 0.57066506
588, 331011846, 0.37110075, 0.72319496, 0.101815656, 0.573504
589, 331028513, 0.36723405, 0.72318935, 0.099249646, 0.5764424
590, 331045180, 0.3640718, 0.7231749, 0.0960333, 0.57900554
591, 331061847, 0.36100745, 0.7232667, 0.09253915, 0.58137393
592, 331078514, 0.35758007, 0.72356737, 0.088972434, 0.58366996
593, 331095181, 0.35369724, 0.7239868, 0.08559088, 0.58601683
594, 331111848, 0.3494317, 0.7243758, 0.08272163, 0.58850175
595, 331128515, 0.3458184, 0.72479415, 0.080290906, 0.59045446
596, 331145182, 0.34208673, 0.7251868, 0.07700968, 0.5925793
597, 331161849, 0.3378179, 0.7254378, 0.07338674, 0.5951752
598, 331178516, 0.3337301, 0.725644, 0.0696667, 0.5976719
599, 331195183, 0.3292824, 0.7255802, 0.06625092, 0.6005977
600, 331211850, 0.32538953, 0.72536695, 0.06267899, 0.6033539
601, 331228517, 0.32167453, 0.72482824, 0.05943107, 0.6063149
602, 331245184, 0.31805325, 0.72392863, 0.056522734, 0.60956943
603, 331261851, 0.3146047, 0.7226306, 0.0537, 0.613144
604, 331278518, 0.31157658, 0.72099215, 0.05097964, 0.61684006
605, 331295185, 0.30858824, 0.71915704, 0.048401468, 0.62068003
606, 331311852, 0.30545804, 0.71704596, 0.0463423, 0.62481445
607, 331328519, 0.3024811, 0.7148862, 0.04427689, 0.62887406
608, 331345186, 0.29951194, 0.71273285, 0.04215505, 0.6328726
609, 331361853, 0.29634285, 0.7105876, 0.040202092, 0.6368908
610, 331378520, 0.2931042, 0.70852214, 0.038238645, 0.6407995
611, 331395187, 0.28969973, 0.7065699, 0.03631265, 0.64460415
612, 331411854, 0.28625834, 0.70472294, 0.03453881, 0.64825064
613, 331428521, 0.2830839, 0.70311785, 0.032416523, 0.6514891
614, 331445188, 0.27985385, 0.701646, 0.030312436, 0.6545654
615, 331461855, 0.2765217, 0.7002294, 0.028539717, 0.6575715
616, 331478522, 0.27375373, 0.6986982, 0.027459295, 0.66039824
617, 331495189, 0.27130625, 0.6975702, 0.025945911, 0.662658
618, 331511856, 0.2681355, 0.6962673, 0.0239361, 0.665389
619, 331528523, 0.26521304, 0.6949303, 0.022043528, 0.6680181
620, 331545190, 0.26254773, 0.693475, 0.020233976, 0.67063534
621, 331561857, 0.26009536, 0.6919648, 0.018515693, 0.67319566
622, 331578524, 0.25784665, 0.6902832, 0.017083276, 0.67582005
623, 331595191, 0.25589752, 0.68863547, 0.015183313, 0.6782827
624, 331611858, 0.2537597, 0.686907, 0.013621212, 0.6808666
625, 331628525, 0.25170302, 0.68518144, 0.012103954, 0.6833927
626, 331645192, 0.24956821, 0.68353015, 0.010674516, 0.6858488
627, 331661859, 0.24811634, 0.68227834, 0.008588111, 0.6876488
628, 331678526, 0.24702483, 0.681282, 0.006286579, 0.6890531
629, 331695193, 0.24547268, 0.68040687, 0.004474899, 0.690485
630, 331711860, 0.24358194, 0.6797672, 0.002975195, 0.6917917
631, 331728527, 0.24143013, 0.67918015, 0.001953918, 0.69312495
632, 331745194, 0.23895098, 0.6786847, 9.6622785E-4, 0.6944701
633, 331761861, 0.2364373, 0.6782633, 3.6186771E-4, 0.69574153
634, 331778528, 0.23379877, 0.67790115, -1.9261497E-5, 0.6969851
635, 331795195, 0.23095573, 0.6774218, 4.978117E-5, 0.69839776
636, 331811862, 0.22806963, 0.6768261, 8.117077E-4, 0.69992155
637, 331828529, 0.22451085, 0.67598003, 0.0027743233, 0.70188195
638, 331845196, 0.22077829, 0.67492586, 0.005558368, 0.7040606
639, 331861863, 0.2173151, 0.67409843, 0.008076463, 0.705904
640, 331878530, 0.21353048, 0.6733304, 0.010573647, 0.7077564
641, 331895197, 0.20934443, 0.6726473, 0.013240838, 0.7096091
642, 331911864, 0.20472375, 0.6721775, 0.015890244, 0.7113461
643, 331928531, 0.20039381, 0.672077, 0.01823664, 0.71261656
644, 331945198, 0.19665134, 0.6722315, 0.019849684, 0.71346986
645, 331961865, 0.19371445, 0.67272943, 0.02071484, 0.7137793
646, 331978532, 0.19055575, 0.67310077, 0.02203015, 0.7142399
647, 331995199, 0.18768701, 0.6732872, 0.023210205, 0.7147861
648, 332011866, 0.18594481, 0.6734028, 0.023405088, 0.7151261
649, 332028533, 0.18509188, 0.6734023, 0.022904985, 0.7153641
650, 332045200, 0.18481836, 0.6731296, 0.021732012, 0.71572804
651, 332061867, 0.18552893, 0.6724589, 0.019556211, 0.7162372
652, 332078534, 0.18666023, 0.67120165, 0.016670205, 0.717195
653, 332095201, 0.18800879, 0.66994256, 0.013518652, 0.7180856
654, 332111868, 0.18878348, 0.66848904, 0.011771376, 0.7192668
655, 332128535, 0.18858524, 0.66708, 0.011518092, 0.72062993
656, 332145202, 0.18808144, 0.66590744, 0.012125152, 0.7218351
657, 332161869, 0.187548, 0.66510415, 0.012878413, 0.72270083
658, 332178536, 0.18707901, 0.66477805, 0.013296122, 0.7231147
659, 332195203, 0.18632278, 0.6646545, 0.014237238, 0.7234056
660, 332211870, 0.18459328, 0.6644547, 0.0155525, 0.72400516
661, 332228537, 0.18305603, 0.6641797, 0.016200507, 0.72463334
662, 332245204, 0.18137397, 0.6636666, 0.016173728, 0.7255265
663, 332261871, 0.17981556, 0.6631329, 0.015773268, 0.7264106
664, 332278538, 0.17808366, 0.66261053, 0.015835563, 0.72731215
665, 332295205, 0.17592682, 0.66194135, 0.016321627, 0.72843456
666, 332311872, 0.17444593, 0.6613563, 0.016475862, 0.72931826
667, 332328539, 0.17299855, 0.6607663, 0.016540641, 0.7301958
668, 332345206, 0.17151307, 0.66000664, 0.016887978, 0.73122466
669, 332361873, 0.17059878, 0.65953594, 0.017058946, 0.7318589
670, 332378540, 0.17031933, 0.65927786, 0.017175257, 0.7321538
671, 332395207, 0.17052035, 0.65909034, 0.017364113, 0.7322712
672, 332411874, 0.1706005, 0.6587255, 0.017640354, 0.7325742
673, 332428541, 0.17069897, 0.6582189, 0.018038789, 0.732997
674, 332445208, 0.17114657, 0.65771526, 0.018305032, 0.73333794
675, 332461875, 0.17162158, 0.6571575, 0.01875791, 0.73371553
676, 332478542, 0.17188558, 0.65649825, 0.019271752, 0.7342303
677, 332495209, 0.17206277, 0.6557975, 0.019619888, 0.7348055
678, 332511876, 0.1721842, 0.65518546, 0.019874508, 0.7353161
679, 332528543, 0.17222531, 0.6547849, 0.020218644, 0.7356539
680, 332545210, 0.1724237, 0.65458465, 0.020451196, 0.73577905
681, 332561877, 0.1724817, 0.65448725, 0.020744411, 0.73584396
682, 332578544, 0.17242333, 0.6544957, 0.021201374, 0.7358372
683, 332595211, 0.17246254, 0.6547283, 0.021874016, 0.7356012
684, 332611878, 0.17279027, 0.65513575, 0.022514068, 0.7351422
685, 332628545, 0.17369436, 0.65569013, 0.02285188, 0.73442405
686, 332645212, 0.17458493, 0.6561943, 0.0233008, 0.7337482
687, 332661879, 0.17548499, 0.65652657, 0.023952866, 0.73321515
688, 332678546, 0.17653967, 0.6566072, 0.0247352, 0.73286366
689, 332695213, 0.17790984, 0.65654033, 0.025287202, 0.73257315
690, 332711880, 0.17932147, 0.65631914, 0.025628868, 0.73241526
691, 332728547, 0.18049742, 0.6560044, 0.026077008, 0.73239255
692, 332745214, 0.18104738, 0.6555491, 0.026624616, 0.7326447
693, 332761881, 0.1817398, 0.6551605, 0.02682633, 0.7328136
694, 332778548, 0.18249148, 0.6547868, 0.0266177, 0.73296857
695, 332795215, 0.18322761, 0.6544228, 0.02635393, 0.7331195
696, 332811882, 0.18373072, 0.65412605, 0.026228175, 0.7332627
697, 332828549, 0.18391407, 0.6538808, 0.02631548, 0.73343253
698, 332845216, 0.18397962, 0.65372306, 0.02642655, 0.7335526
699, 332861883, 0.18413775, 0.65379006, 0.026364667, 0.73345554
700, 332878550, 0.18438551, 0.65395755, 0.026380721, 0.7332434
701, 332895217, 0.18455358, 0.65420437, 0.026587423, 0.7329734
702, 332911884, 0.18478048, 0.6545063, 0.026784196, 0.7326393
703, 332928551, 0.18505877, 0.6549128, 0.026968295, 0.73219895
704, 332945218, 0.18507768, 0.6552621, 0.027482407, 0.7318624
705, 332961885, 0.1852061, 0.6556126, 0.02769827, 0.7315078
706, 332978552, 0.18536858, 0.6558243, 0.02784636, 0.7312714
707, 332995219, 0.18530487, 0.65601534, 0.028197832, 0.7311026
708, 333011886, 0.18510102, 0.65611476, 0.02875704, 0.73104334
709, 333028553, 0.1848285, 0.6562289, 0.029278308, 0.730989
710, 333045220, 0.18454291, 0.65632755, 0.029811902, 0.73095113
711, 333061887, 0.18433553, 0.65641165, 0.030163264, 0.73091346
712, 333078554, 0.18413706, 0.6564157, 0.030543907, 0.73094416
713, 333095221, 0.18407765, 0.65643436, 0.030770687, 0.7309327
714, 333111888, 0.18398465, 0.65639377, 0.031192377, 0.73097473
715, 333128555, 0.18397462, 0.65636444, 0.031596508, 0.7309861
716, 333145222, 0.18389396, 0.6562829, 0.032179486, 0.73105437
717, 333161889, 0.18385088, 0.6562428, 0.032782737, 0.7310744
718, 333178556, 0.18396503, 0.65621126, 0.033369787, 0.73104733
719, 333195223, 0.18408279, 0.65622884, 0.03396255, 0.7309746
720, 333211890, 0.18412985, 0.6562715, 0.034808077, 0.7308847
721, 333228557, 0.18421154, 0.65634716, 0.035875253, 0.73074454
722, 333245224, 0.18425988, 0.6564326, 0.036989704, 0.7306001
723, 333261891, 0.18455258, 0.6565368, 0.037844658, 0.7303888
724, 333278558, 0.18525784, 0.6566862, 0.038359143, 0.7300491
725, 333295225, 0.18640801, 0.6569446, 0.03851266, 0.72951543
726, 333311892, 0.1874335, 0.6572217, 0.038946554, 0.72897995
727, 333328559, 0.18814225, 0.6574398, 0.039752454, 0.72855705
728, 333345226, 0.18895504, 0.65754354, 0.040315412, 0.728222
729, 333361893, 0.19059347, 0.65767205, 0.040099703, 0.7276906
730, 333378560, 0.1921923, 0.65771, 0.04002296, 0.7272399
731, 333395227, 0.19369978, 0.65768707, 0.040201228, 0.72685075
732, 333411894, 0.19544151, 0.6576914, 0.04029652, 0.7263752
733, 333428561, 0.19717959, 0.65769035, 0.040522676, 0.72589374
734, 333445228, 0.19889657, 0.65764505, 0.04087666, 0.7254463
735, 333461895, 0.20081191, 0.6575317, 0.04093779, 0.7250178
736, 333478562, 0.20312724, 0.65747243, 0.040763646, 0.7244362
737, 333495229, 0.20501427, 0.6573687, 0.040753566, 0.72399914
738, 333511896, 0.20632598, 0.6571768, 0.04116818, 0.72377723
739, 333528563, 0.20762524, 0.6569432, 0.041314486, 0.7236094
740, 333545230, 0.2091713, 0.6567385, 0.04114161, 0.72335976
741, 333561897, 0.21080261, 0.656586, 0.040749215, 0.72304684
742, 333578564, 0.21244541, 0.6563742, 0.040328503, 0.7227818
743, 333595231, 0.21394281, 0.65621793, 0.040138118, 0.7224925
744, 333611898, 0.21488239, 0.6560426, 0.04039326, 0.7223587
745, 333628565, 0.21584024, 0.6558536, 0.040724125, 0.7222263
746, 333645232, 0.21723604, 0.6556954, 0.04054656, 0.7219613
747, 333661899, 0.21931206, 0.6557146, 0.039879415, 0.7213531
748, 333678566, 0.22121193, 0.6557298, 0.039632857, 0.7207727
749, 333695233, 0.22284184, 0.6559925, 0.039607722, 0.7200323
750, 333711900, 0.22453727, 0.6563048, 0.04030913, 0.71918166
751, 333728567, 0.2257958, 0.656645, 0.041354816, 0.71841717
752, 333745234, 0.22764505, 0.65720457, 0.042043164, 0.7172812
753, 333761901, 0.22973925, 0.6577208, 0.042515624, 0.7161116
754, 333778568, 0.2322939, 0.65821284, 0.042555258, 0.7148318
755, 333795235, 0.23509896, 0.6586739, 0.042758618, 0.7134768
756, 333811902, 0.23737293, 0.65898097, 0.043579478, 0.71238965
757, 333828569, 0.23925602, 0.659124, 0.04489528, 0.7115452
758, 333845236, 0.24189726, 0.6592337, 0.045590136, 0.7105057
759, 333861903, 0.24560003, 0.65931034, 0.04542891, 0.7091734
760, 333878570, 0.24965084, 0.6592818, 0.045028895, 0.70780975
761, 333895237, 0.2537897, 0.65923566, 0.044772893, 0.7063955
762, 333911904, 0.25777963, 0.6591614, 0.045034908, 0.7050022
763, 333928571, 0.2618844, 0.65882254, 0.045165036, 0.7037966
764, 333945238, 0.26718113, 0.65833044, 0.043931533, 0.7023426
765, 333961905, 0.27397087, 0.65762955, 0.041090347, 0.7005533
766, 333978572, 0.28128317, 0.65688723, 0.03810261, 0.6985179
767, 333995239, 0.28686464, 0.6562, 0.037392, 0.6969306
768, 334011906, 0.29075447, 0.65551263, 0.038758073, 0.69589007
769, 334028573, 0.2947893, 0.6547385, 0.04041397, 0.6948262
770, 334045240, 0.300419, 0.65387875, 0.040569723, 0.69321364
771, 334061907, 0.30793256, 0.6529275, 0.038685326, 0.69091755
772, 334078574, 0.31623694, 0.65224445, 0.036415726, 0.6879282
773, 334095241, 0.32219478, 0.6515668, 0.03708583, 0.68576676
774, 334111908, 0.32652485, 0.6508677, 0.03953184, 0.68424433
775, 334128575, 0.33153188, 0.65013367, 0.041128933, 0.6824377
776, 334145242, 0.3381604, 0.64895415, 0.040740833, 0.6803283
777, 334161909, 0.3472108, 0.64767796, 0.03853071, 0.67710674
778, 334178576, 0.35468102, 0.64563066, 0.03800328, 0.67521745
779, 334195243, 0.3624307, 0.64386797, 0.04209745, 0.67253685
780, 334211910, 0.36885586, 0.6420473, 0.04683955, 0.6704675
781, 334228577, 0.37496895, 0.64089084, 0.048220944, 0.6680809
782, 334245244, 0.38236758, 0.6395845, 0.04752098, 0.6651832
783, 334261911, 0.39053872, 0.63872236, 0.047549814, 0.66125053
784, 334278578, 0.3963479, 0.6377982, 0.049569733, 0.65853244
785, 334295245, 0.40082896, 0.63682383, 0.05342083, 0.6564586
786, 334311912, 0.40733585, 0.63582236, 0.055165395, 0.65327215
787, 334328579, 0.41478908, 0.63453454, 0.056019355, 0.64975226
788, 334345246, 0.42266622, 0.6333516, 0.05640346, 0.64578444
789, 334361913, 0.42876017, 0.63253534, 0.058399707, 0.642381
790, 334378580, 0.43345785, 0.6317851, 0.061909325, 0.6396321
791, 334395247, 0.43913388, 0.63067406, 0.06423593, 0.6366205
792, 334411914, 0.44670257, 0.6288716, 0.06413367, 0.6331385
793, 334428581, 0.4552895, 0.6268399, 0.06296611, 0.6291412
794, 334445248, 0.46244758, 0.6251264, 0.06338871, 0.62557286
795, 334461915, 0.46743658, 0.62369514, 0.06639576, 0.6229761
796, 334478582, 0.4723884, 0.62200886, 0.06907365, 0.62063134
797, 334495249, 0.4796367, 0.61927, 0.0690427, 0.6178077
798, 334511916, 0.48893583, 0.61583304, 0.06589672, 0.61428756
799, 334528583, 0.4987317, 0.61218446, 0.06227692, 0.6104251
800, 334545250, 0.50544316, 0.60913986, 0.06291641, 0.60787946
801, 334561917, 0.51040417, 0.60654485, 0.06568079, 0.60603386
802, 334578584, 0.51709574, 0.6028245, 0.06643197, 0.603988
803, 334595251, 0.52761626, 0.5969901, 0.06335361, 0.6010078
804, 334611918, 0.5393045, 0.5913573, 0.058522325, 0.5966763
805, 334628585, 0.5476299, 0.58657724, 0.057935372, 0.5938622
806, 334645252, 0.5529543, 0.5830771, 0.061344177, 0.59203017
807, 334661919, 0.5585929, 0.5790254, 0.06447859, 0.5903779
808, 334678586, 0.5678319, 0.57239383, 0.063208036, 0.5881642
809, 334695253, 0.578821, 0.56465864, 0.059592407, 0.5852995
810, 334711920, 0.5891992, 0.55744326, 0.056458022, 0.5821631
811, 334728587, 0.596179, 0.55235416, 0.058041338, 0.57974714
812, 334745254, 0.60089403, 0.5483588, 0.0626873, 0.5781862
813, 334761921, 0.6073476, 0.5428921, 0.0647393, 0.57637304
814, 334778588, 0.6161603, 0.5358625, 0.06388177, 0.5736873
815, 334795255, 0.62501377, 0.5289849, 0.06273015, 0.57061195
816, 334811922, 0.6323996, 0.52280873, 0.063530624, 0.568072
817, 334828589, 0.639646, 0.5161766, 0.06452438, 0.5659077
818, 334845256, 0.64779603, 0.50817925, 0.06429208, 0.5638979
819, 334861923, 0.6574091, 0.4988265, 0.062115487, 0.5613619
820, 334878590, 0.6671707, 0.4894971, 0.059571274, 0.5583254
821, 334895257, 0.67511576, 0.48185742, 0.059818313, 0.55538625
822, 334911924, 0.6815026, 0.47544143, 0.06223832, 0.5528438
823, 334928591, 0.6886284, 0.46768835, 0.06370532, 0.55045485
824, 334945258, 0.69834435, 0.45735097, 0.061934758, 0.5470919
825, 334961925, 0.70922154, 0.44509736, 0.056699812, 0.54376316
826, 334978592, 0.71882975, 0.4346208, 0.052596923, 0.5400207
827, 334995259, 0.7255332, 0.42731643, 0.053333785, 0.53680354
828, 335011926, 0.73035616, 0.42191213, 0.05721071, 0.53413206
829, 335028593, 0.7373504, 0.41376606, 0.05901787, 0.5306875
830, 335045260, 0.74639666, 0.4031043, 0.056868076, 0.5264648
831, 335061927, 0.7552393, 0.39184842, 0.052571505, 0.5227854
832, 335078594, 0.7627758, 0.38254187, 0.05133485, 0.51884437
833, 335095261, 0.76825714, 0.37553436, 0.054054096, 0.5155904
834, 335111928, 0.7731268, 0.369345, 0.057569712, 0.5123915
835, 335128595, 0.77966195, 0.36070967, 0.058652963, 0.50850326
836, 335145262, 0.7867305, 0.3513085, 0.05787634, 0.5042696
837, 335161929, 0.79258496, 0.34369394, 0.058861896, 0.50021875
838, 335178596, 0.79692686, 0.33820114, 0.06359871, 0.4964703
839, 335195263, 0.8003746, 0.333623, 0.07026197, 0.49311224
840, 335211930, 0.804917, 0.32714635, 0.074687354, 0.4893932
841, 335228597, 0.81127876, 0.3172079, 0.07519095, 0.48533732
842, 335245264, 0.8182558, 0.30549234, 0.07373682, 0.48134688
843, 335261931, 0.82445925, 0.2946154, 0.073542126, 0.47755656
844, 335278598, 0.8297901, 0.28490525, 0.07504132, 0.47396868
845, 335295265, 0.83524966, 0.27461594, 0.075691365, 0.470335
846, 335311932, 0.84129894, 0.26295498, 0.07432876, 0.46641847
847, 335328599, 0.847074, 0.2511462, 0.07264931, 0.4627242
848, 335345266, 0.8520456, 0.24060494, 0.07287266, 0.45914835
849, 335361933, 0.85640335, 0.23131911, 0.07410247, 0.4556028
850, 335378600, 0.8610261, 0.22138973, 0.07431171, 0.45177296
851, 335395267, 0.86598754, 0.2100392, 0.073122926, 0.44788632
852, 335411934, 0.87055415, 0.19963194, 0.07237967, 0.4438962
853, 335428601, 0.8744746, 0.1914174, 0.073613286, 0.43958488
854, 335445268, 0.8779081, 0.18547244, 0.07616624, 0.43482894
855, 335461935, 0.8814037, 0.17888446, 0.0777947, 0.43020445
856, 335478602, 0.8852882, 0.17045507, 0.077521525, 0.42567638
857, 335495269, 0.88932383, 0.16152838, 0.07663583, 0.42087853
858, 335511936, 0.8930843, 0.15397975, 0.07688349, 0.41566765
859, 335528603, 0.8962938, 0.14950703, 0.07915507, 0.4099263
860, 335545270, 0.8988323, 0.14807688, 0.082695045, 0.4041477
861, 335561937, 0.9014184, 0.1465591, 0.085419215, 0.39833298
862, 335578604, 0.9043529, 0.14299114, 0.08688148, 0.3926207
863, 335595271, 0.90773076, 0.136073, 0.08678134, 0.3872702
864, 335611938, 0.911053, 0.12839144, 0.08624225, 0.38217834
865, 335628605, 0.9139666, 0.12204968, 0.0863737, 0.37723807
866, 335645272, 0.91648215, 0.11744402, 0.087509185, 0.37230295
867, 335661939, 0.91898155, 0.11247911, 0.0883904, 0.36743498
868, 335678606, 0.9215787, 0.106356315, 0.08832821, 0.36273852
869, 335695273, 0.9242051, 0.09962751, 0.08772189, 0.35808426
870, 335711940, 0.9266013, 0.094347216, 0.08754328, 0.35333365
871, 335728607, 0.928785, 0.09167901, 0.08825132, 0.3480881
872, 335745274, 0.93073946, 0.0916337, 0.08956693, 0.3424983
873, 335761941, 0.93246794, 0.09294469, 0.09133953, 0.3369302
874, 335778608, 0.93449044, 0.092174836, 0.091865, 0.331349
875, 335795275, 0.93680644, 0.08837892, 0.091548964, 0.32588613
876, 335811942, 0.9392366, 0.0833546, 0.09108863, 0.32029614
877, 335828609, 0.9414192, 0.081549756, 0.09223918, 0.31396112
878, 335845276, 0.9431647, 0.08368659, 0.094728716, 0.30734926
879, 335861943, 0.9449006, 0.08573004, 0.09653304, 0.30082345
880, 335878610, 0.9469533, 0.0845035, 0.096840136, 0.2945516
881, 335895277, 0.94915414, 0.081006676, 0.09642789, 0.28852397
882, 335911944, 0.95114475, 0.07835364, 0.09639506, 0.2826529
883, 335928611, 0.952708, 0.078144245, 0.097260006, 0.27709457
884, 335945278, 0.9540744, 0.078466125, 0.09837972, 0.27185827
885, 335961945, 0.9555072, 0.07798209, 0.099360704, 0.2665566
886, 335978612, 0.95698863, 0.07662736, 0.10014415, 0.26129
887, 335995279, 0.9584156, 0.0750349, 0.101002514, 0.25614074
888, 336011946, 0.95968103, 0.0735737, 0.10214721, 0.25132713
889, 336028613, 0.9609319, 0.07226107, 0.10353666, 0.24630968
890, 336045280, 0.9620572, 0.07137507, 0.10461434, 0.24167633
891, 336061947, 0.9629784, 0.071281545, 0.1055684, 0.23758532
892, 336078614, 0.9636959, 0.07108098, 0.10644901, 0.23432119
893, 336095281, 0.96425605, 0.07094225, 0.10732193, 0.23164573
894, 336111948, 0.96465796, 0.07132323, 0.107979394, 0.22953983
895, 336128615, 0.9649297, 0.071980916, 0.10854252, 0.22792129
896, 336145282, 0.96510094, 0.072676614, 0.1088061, 0.22684683
897, 336161949, 0.9651806, 0.07358277, 0.10900086, 0.22612153
898, 336178616, 0.96509784, 0.07461416, 0.10911677, 0.22608092
899, 336195283, 0.96490824, 0.075549066, 0.10897176, 0.22664896
900, 336211950, 0.9647348, 0.07632572, 0.108945474, 0.22713909
901, 336228617, 0.9645968, 0.0770641, 0.10892655, 0.22748484
902, 336245284, 0.9645603, 0.07750174, 0.10860995, 0.22764225
903, 336261951, 0.96453005, 0.07782405, 0.10818612, 0.22786197
904, 336278618, 0.96442884, 0.07828024, 0.107851006, 0.22829217
905, 336295285, 0.96428454, 0.07870455, 0.10762051, 0.22886431
906, 336311952, 0.96418333, 0.07858876, 0.10713884, 0.229556
907, 336328619, 0.96414906, 0.07787692, 0.10637496, 0.23029591
908, 336345286, 0.9640845, 0.07722263, 0.10573138, 0.23108149
909, 336361953, 0.9639912, 0.0766323, 0.105301335, 0.23186229
910, 336378620, 0.96395093, 0.07592458, 0.10489174, 0.23244758
911, 336395287, 0.96393317, 0.07525193, 0.10441316, 0.23295513
912, 336411954, 0.96389264, 0.07472405, 0.10408134, 0.23344027
913, 336428621, 0.9638782, 0.07416786, 0.10387858, 0.23376754
914, 336445288, 0.9638781, 0.07380544, 0.10389753, 0.23387417
915, 336461955, 0.96385735, 0.07376328, 0.10385368, 0.23399223
916, 336478622, 0.9638634, 0.073592894, 0.10369687, 0.23409072
917, 336495289, 0.96392393, 0.07303348, 0.1034409, 0.23412992
918, 336511956, 0.964056, 0.07145675, 0.10304632, 0.23424652
919, 336528623, 0.96428424, 0.0684726, 0.10238, 0.23449068
920, 336545290, 0.96449476, 0.066068865, 0.101789884, 0.23457155
921, 336561957, 0.9645087, 0.06591259, 0.101895645, 0.23451181
922, 336578624, 0.96439147, 0.06734724, 0.10241656, 0.23435988
923, 336595291, 0.96432054, 0.06851767, 0.10284885, 0.23412287
924, 336611958, 0.9644072, 0.06838647, 0.102822274, 0.23381574
925, 336628625, 0.964533, 0.06763696, 0.10274378, 0.23354934
926, 336645292, 0.9646182, 0.06729587, 0.10277417, 0.23328206
927, 336661959, 0.96465355, 0.06731801, 0.102892995, 0.2330773
928, 336678626, 0.9647, 0.0672393, 0.103027865, 0.23284853
929, 336695293, 0.9647592, 0.06703306, 0.103159994, 0.23260368
930, 336711960, 0.96478766, 0.06704714, 0.10334409, 0.23239976
931, 336728627, 0.9647862, 0.06735284, 0.10357203, 0.2322157
932, 336745294, 0.96481353, 0.067429364, 0.1037386, 0.2320059
933, 336761961, 0.96485734, 0.06735162, 0.10385832, 0.23179275
934, 336778628, 0.9648693, 0.06751425, 0.104114644, 0.23158008
935, 336795295, 0.96486235, 0.06788129, 0.104501344, 0.23132725
936, 336811962, 0.96487457, 0.068090975, 0.10490737, 0.23103043
937, 336828629, 0.9649144, 0.06801308, 0.10520972, 0.23074967
938, 336845296, 0.9649462, 0.067923754, 0.10549428, 0.23051275
939, 336861963, 0.96496785, 0.06779964, 0.105728686, 0.23035133
940, 336878630, 0.96498865, 0.06767457, 0.10605532, 0.23015088
941, 336895297, 0.9650032, 0.06753069, 0.10637829, 0.229983
942, 336911964, 0.96502477, 0.06727206, 0.106608525, 0.2298617
943, 336928631, 0.96506983, 0.06658282, 0.10671982, 0.2298222
944, 336945298, 0.9651535, 0.065664716, 0.106783934, 0.22970429
945, 336961965, 0.9652289, 0.06496621, 0.1069379, 0.22951424
946, 336978632, 0.9652954, 0.06467703, 0.10724449, 0.22917362
947, 336995299, 0.96536964, 0.06462866, 0.10752516, 0.22874227
948, 337011966, 0.96544635, 0.06442403, 0.10775632, 0.22836727
949, 337028633, 0.9654963, 0.06432328, 0.107983336, 0.22807734
950, 337045300, 0.9654982, 0.064616606, 0.108320095, 0.22782625
951, 337061967, 0.96544915, 0.06536004, 0.108768135, 0.2276085
952, 337078634, 0.9653843, 0.065988466, 0.10912237, 0.22753274
953, 337095301, 0.9653201, 0.066213556, 0.10940942, 0.2276019
954, 337111968, 0.9652725, 0.06600307, 0.109623425, 0.22776192
955, 337128635, 0.9652333, 0.06572712, 0.10984234, 0.22790234
956, 337145302, 0.965205, 0.065478265, 0.110318765, 0.22786374
957, 337161969, 0.96517915, 0.065368354, 0.11096425, 0.22769159
958, 337178636, 0.96517134, 0.06527047, 0.1116042, 0.22743917
959, 337195303, 0.9651731, 0.06502373, 0.11218374, 0.22721735
960, 337211970, 0.9651923, 0.06465503, 0.11268947, 0.22699027
961, 337228637, 0.9652179, 0.06434805, 0.113166414, 0.22673166
962, 337245304, 0.9652541, 0.06398287, 0.11362343, 0.2264525
963, 337261971, 0.965289, 0.06360444, 0.11407358, 0.22618344
964, 337278638, 0.96533316, 0.06320575, 0.11447472, 0.22590427
965, 337295305, 0.96540916, 0.062464982, 0.114783496, 0.22562805
966, 337311972, 0.96551937, 0.06175337, 0.11500039, 0.22524154
967, 337328639, 0.9656069, 0.061307397, 0.115296714, 0.22483614
968, 337345306, 0.9656852, 0.06116483, 0.11556, 0.22440386
969, 337361973, 0.9657796, 0.06090246, 0.11584581, 0.22392048
970, 337378640, 0.9658647, 0.060803197, 0.11617936, 0.22340705
971, 337395307, 0.9659383, 0.06073958, 0.11653753, 0.22291878
972, 337411974, 0.9660283, 0.060511015, 0.11685658, 0.2224239
973, 337428641, 0.96614075, 0.059833772, 0.11716246, 0.22195707
974, 337445308, 0.9662634, 0.0590909, 0.1173538, 0.22152105
975, 337461975, 0.9663432, 0.058837414, 0.11768928, 0.22106162
976, 337478642, 0.9664024, 0.058762833, 0.11804867, 0.22063112
977, 337495309, 0.9664818, 0.05850774, 0.11830002, 0.22021589
978, 337511976, 0.9666003, 0.05777593, 0.1184052, 0.21983214
979, 337528643, 0.9667206, 0.057222445, 0.11849305, 0.21940044
980, 337545310, 0.9668049, 0.057121765, 0.11862272, 0.21898392
981, 337561977, 0.9668545, 0.05715838, 0.11880746, 0.21865514
982, 337578644, 0.96692085, 0.056663863, 0.1189753, 0.21839932
983, 337595311, 0.9670164, 0.05581527, 0.11898627, 0.21818905
984, 337611978, 0.9670874, 0.055520315, 0.1190705, 0.21790357
985, 337628645, 0.9671202, 0.055611137, 0.11928883, 0.2176147
986, 337645312, 0.9671615, 0.055661194, 0.11945133, 0.21732886
987, 337661979, 0.96724105, 0.05527675, 0.11941348, 0.2170938
988, 337678646, 0.9673171, 0.054854352, 0.11928545, 0.2169323
989, 337695313, 0.9673654, 0.054723527, 0.11925482, 0.2167671
990, 337711980, 0.9673666, 0.054980706, 0.11935412, 0.2166421
991, 337728647, 0.9673827, 0.05490716, 0.119421154, 0.2165517
992, 337745314, 0.96743804, 0.05443526, 0.11928478, 0.2164989
993, 337761981, 0.96750337, 0.053947195, 0.11913114, 0.21641362
994, 337778648, 0.9675189, 0.054001402, 0.11919662, 0.21629432
995, 337795315, 0.9675054, 0.05446527, 0.11937526, 0.2161402
996, 337811982, 0.96751654, 0.054531787, 0.11939995, 0.21605954
997, 337828649, 0.9675651, 0.053981982, 0.11924594, 0.21606497
998, 337845316, 0.96760225, 0.05353398, 0.119118564, 0.21608083
999, 337861983, 0.9675845, 0.053752594, 0.1191341, 0.21609753
1000, 337878650, 0.9675241, 0.0542329, 0.119235285, 0.21619226
1001, 337895317, 0.9674975, 0.054238115, 0.11920552, 0.2163259
1002, 337911984, 0.9674984, 0.053732127, 0.11906517, 0.2165257
1003, 337928651, 0.967492, 0.05333239, 0.11893634, 0.21672443
1004, 337945318, 0.9674697, 0.053205613, 0.118951455, 0.21684633
1005, 337961985, 0.9674559, 0.053048015, 0.1190371, 0.21689972
1006, 337978652, 0.9674607, 0.052860443, 0.119143486, 0.21686542
1007, 337995319, 0.96748555, 0.052458804, 0.11913484, 0.21685673
1008, 338011986, 0.9675084, 0.052273028, 0.11909911, 0.2168188
1009, 338028653, 0.9675079, 0.052187204, 0.11916982, 0.21680292
1010, 338045320, 0.967504, 0.052100495, 0.11936345, 0.21673523
1011, 338061987, 0.9675063, 0.052037757, 0.11952037, 0.2166534
1012, 338078654, 0.9675165, 0.05189232, 0.119634435, 0.21657985
1013, 338095321, 0.967534, 0.051703412, 0.11965905, 0.21653317
1014, 338111988, 0.9675653, 0.051384438, 0.11959585, 0.21650454
1015, 338128655, 0.96757895, 0.051198836, 0.11960297, 0.21648309
1016, 338145322, 0.96759236, 0.050951753, 0.11960515, 0.21648014
1017, 338161989, 0.9676199, 0.050404754, 0.11947393, 0.21655793
1018, 338178656, 0.9676414, 0.04986612, 0.1193895, 0.21663265
1019, 338195323, 0.9676295, 0.049506225, 0.11948837, 0.21671377
1020, 338211990, 0.967627, 0.049212642, 0.119662456, 0.21669589
1021, 338228657, 0.9676344, 0.048822224, 0.11980672, 0.21667176
1022, 338245324, 0.9676613, 0.048349485, 0.11980383, 0.21665944
1023, 338261991, 0.9676711, 0.04789658, 0.11985328, 0.21668911
1024, 338278658, 0.967661, 0.047679815, 0.11992695, 0.21674056
1025, 338295325, 0.96763504, 0.04762427, 0.12009981, 0.21677306
1026, 338311992, 0.9676268, 0.047485195, 0.12018526, 0.21679297
1027, 338328659, 0.96763, 0.047272854, 0.12032359, 0.21674837
1028, 338345326, 0.96763754, 0.04691805, 0.12045238, 0.21672006
1029, 338361993, 0.9676551, 0.04658089, 0.12063913, 0.21661077
1030, 338378660, 0.9676869, 0.04631386, 0.120814666, 0.21642806
1031, 338395327, 0.96769464, 0.046405293, 0.12111011, 0.21620847
1032, 338411994, 0.96769017, 0.046574347, 0.12145675, 0.21599762
1033, 338428661, 0.96770066, 0.04638579, 0.12167651, 0.2158676
1034, 338445328, 0.96773463, 0.04591849, 0.12174529, 0.2157767
1035, 338461995, 0.96776223, 0.045417614, 0.12180758, 0.21572383
1036, 338478662, 0.9677514, 0.0452786, 0.12202261, 0.21567984
1037, 338495329, 0.9677339, 0.045314707, 0.12225346, 0.21561974
1038, 338511996, 0.9677402, 0.045207135, 0.12241098, 0.21552508
1039, 338528663, 0.9677701, 0.04501167, 0.12245302, 0.21540718
1040, 338545330, 0.9677888, 0.04493644, 0.12246019, 0.21533509
1041, 338561997, 0.9677808, 0.044987373, 0.12257804, 0.21529354
1042, 338578664, 0.9677616, 0.045027185, 0.12268775, 0.21530865
1043, 338595331, 0.9677521, 0.04483498, 0.12274895, 0.21535635
1044, 338611998, 0.96774507, 0.0446956, 0.12275809, 0.21541178
1045, 338628665, 0.96773064, 0.044566087, 0.12276492, 0.21549974
1046, 338645332, 0.96770406, 0.04440731, 0.122703284, 0.21568683
1047, 338661999, 0.96767175, 0.04419364, 0.12269083, 0.21588272
1048, 338678666, 0.9676381, 0.043984596, 0.1226412, 0.21610448
1049, 338695333, 0.9675979, 0.0439148, 0.1227485, 0.2162378
1050, 338712000, 0.96753997, 0.044000655, 0.12294476, 0.21636787
1051, 338728667, 0.96750176, 0.04404052, 0.123112574, 0.21643549
1052, 338745334, 0.96748036, 0.04393359, 0.12326814, 0.216464
1053, 338762001, 0.9674996, 0.043759584, 0.12341763, 0.21632819
1054, 338778668, 0.9675038, 0.043892153, 0.12360073, 0.21617804
1055, 338795335, 0.96748257, 0.044191286, 0.12387745, 0.2160541
1056, 338812002, 0.9674772, 0.044316422, 0.124000736, 0.21598089
1057, 338828669, 0.96747977, 0.04424738, 0.1240552, 0.2159522
1058, 338845336, 0.9674639, 0.044114947, 0.12415116, 0.21599528
1059, 338862003, 0.9674229, 0.044277523, 0.12438871, 0.21600898
1060, 338878670, 0.96738946, 0.044346377, 0.12464364, 0.2159979
1061, 338895337, 0.9673829, 0.044270303, 0.12474644, 0.21598363
1062, 338912004, 0.9673857, 0.044140976, 0.12483342, 0.21594766
1063, 338928671, 0.96739304, 0.043992374, 0.124827094, 0.21594854
1064, 338945338, 0.9673938, 0.043937583, 0.124848366, 0.2159436
1065, 338962005, 0.96738094, 0.043867443, 0.1249356, 0.2159656
1066, 338978672, 0.96737236, 0.04389248, 0.12501004, 0.2159557
1067, 338995339, 0.96736854, 0.043696377, 0.12501183, 0.21601152
1068, 339012006, 0.9673689, 0.04338593, 0.1249968, 0.2160813
1069, 339028673, 0.9673588, 0.043092053, 0.12501594, 0.21617377
1070, 339045340, 0.96735036, 0.042647623, 0.12507157, 0.21626791
1071, 339062007, 0.96735054, 0.042225573, 0.12509903, 0.21633385
1072, 339078674, 0.96735245, 0.041992806, 0.12519173, 0.21631676
1073, 339095341, 0.9673497, 0.042089853, 0.1253747, 0.21620402
1074, 339112008, 0.9673602, 0.04213097, 0.12553723, 0.21605483
1075, 339128675, 0.96739155, 0.041767538, 0.12560196, 0.21594709
1076, 339145342, 0.96742827, 0.041222304, 0.1256507, 0.21585958
1077, 339162009, 0.9674494, 0.04087172, 0.12575991, 0.2157675
1078, 339178676, 0.9674457, 0.040756825, 0.12594827, 0.21569681
1079, 339195343, 0.96745044, 0.040538616, 0.12604567, 0.21565937
1080, 339212010, 0.96747214, 0.040175885, 0.12601581, 0.21564704
1081, 339228677, 0.9674949, 0.03979763, 0.12595372, 0.21565096
1082, 339245344, 0.9675091, 0.039563045, 0.1259316, 0.21564423
1083, 339262011, 0.9675187, 0.039471503, 0.12597665, 0.21559119
1084, 339278678, 0.9675407, 0.03924062, 0.12597203, 0.21553732
1085, 339295345, 0.9675852, 0.038817674, 0.12586111, 0.21547887
1086, 339312012, 0.9676297, 0.038560826, 0.12573372, 0.21540019
1087, 339328679, 0.9676614, 0.03858197, 0.12564637, 0.21530439
1088, 339345346, 0.96767193, 0.038603432, 0.12565713, 0.21524687
1089, 339362013, 0.9677006, 0.038452752, 0.12557217, 0.21519484
1090, 339378680, 0.9677422, 0.038204353, 0.12537505, 0.21516679
1091, 339395347, 0.96776146, 0.038362578, 0.12527621, 0.21510954
1092, 339412014, 0.967747, 0.038890544, 0.12527776, 0.21507902
