DeviceTag:,Xsens DOT 5,,,,,,,,,,,,,,,,,
FirmwareVersion:,1.3.0,,,,,,,,,,,,,,,,,
AppVersion:,2020.1.1,,,,,,,,,,,,,,,,,
Measurement Mode:,Sensor fusion Mode - Orientation (Quaternion),,,,,,,,,,,,,,,,,
StartTime:,2020-08-11 10:05:51.846 +0200,,,,,,,,,,,,,,,,,
© Xsens Technologies B. V. 2005-2020,,,,,,,,,,,,,,,,,,,
PacketCounter,SampleTimeFine,Quat_W,Quat_X,Quat_Y,Quat_Z
1, 387526495, 0.9990172, 0.03633485, 0.023675518, 0.009181481
2, 387543162, 0.9990109, 0.037370015, 0.02224124, 0.009270432
3, 387559829, 0.99902356, 0.037320904, 0.021722544, 0.0093562165
4, 387576496, 0.9990363, 0.03726332, 0.021182774, 0.009449498
5, 387593163, 0.9990509, 0.037113003, 0.020754633, 0.009448526
6, 387609830, 0.99906695, 0.036848877, 0.020447586, 0.009457033
7, 387626497, 0.9990742, 0.03669469, 0.020288816, 0.009622543
8, 387643164, 0.99907655, 0.03661185, 0.020275695, 0.009724363
9, 387659831, 0.99907446, 0.036647666, 0.020304585, 0.009749186
10, 387676498, 0.99905866, 0.03703531, 0.020368015, 0.009769868
11, 387693165, 0.9990453, 0.03732331, 0.020468008, 0.0098305065
12, 387709832, 0.99903876, 0.037385356, 0.02063648, 0.0099079935
13, 387726499, 0.9990431, 0.037109364, 0.020899076, 0.009965236
14, 387743166, 0.9990469, 0.036817834, 0.021198776, 0.0100195
15, 387759833, 0.99903995, 0.036888443, 0.021388434, 0.010055793
16, 387776500, 0.9990325, 0.037038904, 0.02145443, 0.010100773
17, 387793167, 0.99902517, 0.03720144, 0.021511655, 0.010108996
18, 387809834, 0.9990251, 0.037185363, 0.02159967, 0.009984897
19, 387826501, 0.99902946, 0.037069052, 0.02174239, 0.009671161
20, 387843168, 0.9990328, 0.037090525, 0.021757519, 0.009190974
21, 387859835, 0.9990277, 0.037255533, 0.021759253, 0.009068944
22, 387876502, 0.99902827, 0.03718892, 0.02180472, 0.0091777155
23, 387893169, 0.9990318, 0.03700736, 0.021873474, 0.00935941
24, 387909836, 0.99903095, 0.037067074, 0.021837242, 0.009292991
25, 387926503, 0.9990245, 0.037320733, 0.02176413, 0.009147094
26, 387943170, 0.99902123, 0.037411213, 0.021726178, 0.009230132
27, 387959837, 0.9990293, 0.037214372, 0.021713536, 0.009173149
28, 387976504, 0.9990421, 0.036954686, 0.021679861, 0.008911794
29, 387993171, 0.9990459, 0.036886126, 0.021597605, 0.008968623
30, 388009838, 0.999039, 0.037094798, 0.021471841, 0.009168332
31, 388026505, 0.99902946, 0.037382737, 0.021401148, 0.0092051
32, 388043172, 0.99903095, 0.037438024, 0.021395234, 0.008826081
33, 388059839, 0.99904, 0.037193872, 0.021408482, 0.008806504
34, 388076506, 0.99904764, 0.03704617, 0.021381125, 0.008625282
35, 388093173, 0.99905276, 0.036952116, 0.021374434, 0.0084569
36, 388109840, 0.99905837, 0.03667095, 0.021533174, 0.008604741
37, 388126507, 0.99907357, 0.036098517, 0.021870263, 0.008398632
38, 388143174, 0.99908584, 0.03545752, 0.022277486, 0.008600141
39, 388159841, 0.999088, 0.035102095, 0.022710001, 0.008684456
40, 388176508, 0.999077, 0.035067707, 0.023149563, 0.008928744
41, 388193175, 0.9990631, 0.03520612, 0.023545142, 0.0089066345
42, 388209842, 0.99904954, 0.03536411, 0.023942795, 0.008747139
43, 388226509, 0.99903446, 0.035553124, 0.024362415, 0.008516349
44, 388243176, 0.9990221, 0.035759814, 0.02477305, 0.007906078
45, 388259843, 0.9990035, 0.035860877, 0.025206063, 0.008427248
46, 388276510, 0.9989955, 0.035687093, 0.025602551, 0.008902724
47, 388293177, 0.99899703, 0.035418063, 0.026018748, 0.008589491
48, 388309844, 0.9989911, 0.03522477, 0.02643298, 0.008798616
49, 388326511, 0.9989867, 0.035310805, 0.02678414, 0.007841577
50, 388343178, 0.99896663, 0.03545982, 0.027149947, 0.008450054
51, 388359845, 0.99895436, 0.035510805, 0.027527645, 0.008455158
52, 388376512, 0.9989326, 0.035549633, 0.027983362, 0.009337611
53, 388393179, 0.99891555, 0.035610016, 0.028493224, 0.0093766395
54, 388409846, 0.99889636, 0.035655998, 0.029037056, 0.009590451
55, 388426513, 0.9988782, 0.035558563, 0.029736638, 0.009694461
56, 388443180, 0.998865, 0.035159543, 0.030654795, 0.0096296035
57, 388459847, 0.9988464, 0.03476849, 0.031652555, 0.009762441
58, 388476514, 0.99883026, 0.03438537, 0.032502163, 0.0099821715
59, 388493181, 0.99881727, 0.033828527, 0.033392247, 0.0102395415
60, 388509848, 0.99880785, 0.03298936, 0.03443327, 0.010441729
61, 388526515, 0.9987921, 0.032146182, 0.035538204, 0.010859921
62, 388543182, 0.99876547, 0.03190369, 0.03659518, 0.010522565
63, 388559849, 0.9987284, 0.032307785, 0.037547097, 0.009393941
64, 388576516, 0.9986712, 0.032922357, 0.038579762, 0.009167325
65, 388593183, 0.9986122, 0.033381507, 0.039675526, 0.009238816
66, 388609850, 0.99856776, 0.033455487, 0.040781133, 0.008958995
67, 388626517, 0.9985322, 0.033199444, 0.041999787, 0.008210613
68, 388643184, 0.9984713, 0.032805923, 0.043421533, 0.0096667325
69, 388659851, 0.9984113, 0.03288124, 0.044894528, 0.008850325
70, 388676518, 0.99833393, 0.032926995, 0.04648973, 0.009154125
71, 388693185, 0.9982468, 0.03281304, 0.048300218, 0.009696946
72, 388709852, 0.9981349, 0.03272853, 0.050382826, 0.010834561
73, 388726519, 0.9980114, 0.032970402, 0.052561976, 0.011113255
74, 388743186, 0.99787134, 0.033554327, 0.054762088, 0.011328477
75, 388759853, 0.99773246, 0.033896614, 0.05716115, 0.010656871
76, 388776520, 0.9975735, 0.03366062, 0.059890285, 0.01129485
77, 388793187, 0.9973977, 0.033523023, 0.06281857, 0.011315553
78, 388809854, 0.99720097, 0.033887725, 0.06569939, 0.011205904
79, 388826521, 0.9969843, 0.034702994, 0.06846372, 0.011437605
80, 388843188, 0.9967677, 0.035113264, 0.071288794, 0.011792944
81, 388859855, 0.9965422, 0.035053838, 0.074301876, 0.012414645
82, 388876522, 0.99629986, 0.03497382, 0.07746202, 0.012774635
83, 388893189, 0.9960293, 0.035619553, 0.080515645, 0.013195767
84, 388909856, 0.99573827, 0.036621954, 0.08353538, 0.013642821
85, 388926523, 0.9954431, 0.03706172, 0.08671399, 0.014149923
86, 388943190, 0.9951412, 0.03695733, 0.090065196, 0.014727106
87, 388959857, 0.9948216, 0.036901824, 0.09346748, 0.015231581
88, 388976524, 0.9944891, 0.036954056, 0.096821696, 0.015866961
89, 388993191, 0.99414736, 0.036404878, 0.100366175, 0.016509349
90, 389009858, 0.9937993, 0.035152953, 0.10411079, 0.016976152
91, 389026525, 0.99340093, 0.034486864, 0.10800774, 0.017317874
92, 389043192, 0.992933, 0.03526183, 0.111945845, 0.017586814
93, 389059859, 0.9924049, 0.03690128, 0.115997784, 0.017762836
94, 389076526, 0.9918536, 0.03845555, 0.12011434, 0.017897733
95, 389093193, 0.9912803, 0.03972367, 0.12432251, 0.018142717
96, 389109860, 0.990657, 0.04099916, 0.12877737, 0.018291501
97, 389126527, 0.9899875, 0.04225992, 0.13340004, 0.018530264
98, 389143194, 0.98928654, 0.04325631, 0.13813496, 0.018969359
99, 389159861, 0.98861, 0.043295916, 0.14280649, 0.01954567
100, 389176528, 0.987944, 0.042123027, 0.14758407, 0.020281013
101, 389193195, 0.98722595, 0.040617257, 0.15262449, 0.021003876
102, 389209862, 0.9864666, 0.03954361, 0.15766661, 0.021486886
103, 389226529, 0.98568773, 0.03917374, 0.16250262, 0.021864707
104, 389243196, 0.9848978, 0.03851786, 0.16731447, 0.022329848
105, 389259863, 0.9840739, 0.037076186, 0.1723407, 0.022867864
106, 389276530, 0.9832003, 0.03542295, 0.17753886, 0.023293534
107, 389293197, 0.9822578, 0.03480815, 0.18277518, 0.023486404
108, 389309864, 0.98123974, 0.03555655, 0.18803453, 0.023395227
109, 389326531, 0.98014766, 0.03682774, 0.19342387, 0.023274908
110, 389343198, 0.9789998, 0.037757143, 0.19897105, 0.023331463
111, 389359865, 0.9778312, 0.038007345, 0.20454493, 0.023729917
112, 389376532, 0.97662586, 0.03770906, 0.21021606, 0.02427184
113, 389393199, 0.97536755, 0.036977604, 0.2160561, 0.02471055
114, 389409866, 0.9740248, 0.03580819, 0.22217865, 0.025101796
115, 389426533, 0.97259235, 0.034570996, 0.22852704, 0.025385953
116, 389443200, 0.9711094, 0.033064935, 0.23493084, 0.025709417
117, 389459867, 0.96955884, 0.03082721, 0.24148788, 0.026250204
118, 389476534, 0.967943, 0.02730188, 0.24823166, 0.026871357
119, 389493201, 0.96626943, 0.022624046, 0.2550358, 0.027720036
120, 389509868, 0.9645406, 0.017577112, 0.26176262, 0.028864257
121, 389526535, 0.96273774, 0.012363376, 0.26844376, 0.03035098
122, 389543202, 0.9607844, 0.0068503204, 0.27534243, 0.032141943
123, 389559869, 0.9587631, 0.0021242679, 0.2822118, 0.033544786
124, 389576536, 0.956739, -0.0010064573, 0.2889479, 0.03404222
125, 389593203, 0.9546801, -0.0030726332, 0.29562578, 0.03437895
126, 389609870, 0.9525245, -0.0049175695, 0.30241585, 0.034898054
127, 389626537, 0.9502823, -0.006973531, 0.30926773, 0.035615746
128, 389643204, 0.94800454, -0.008811778, 0.3160587, 0.036288086
129, 389659871, 0.9456928, -0.010530689, 0.3227941, 0.036862053
130, 389676538, 0.94322336, -0.0130915325, 0.32975617, 0.03767446
131, 389693205, 0.94049186, -0.016832246, 0.33715808, 0.038937703
132, 389709872, 0.9375435, -0.020930449, 0.34489572, 0.040262915
133, 389726539, 0.9345739, -0.023829237, 0.35255805, 0.041312538
134, 389743206, 0.93167216, -0.024893004, 0.3599823, 0.04219481
135, 389759873, 0.9287064, -0.025764765, 0.36739832, 0.043119483
136, 389776540, 0.92549866, -0.027935619, 0.37506166, 0.04472973
137, 389793207, 0.9220841, -0.03063807, 0.38299438, 0.046236634
138, 389809874, 0.9186089, -0.03313083, 0.39094737, 0.047119822
139, 389826541, 0.91508293, -0.03502089, 0.39889055, 0.04778337
140, 389843208, 0.9113613, -0.036484018, 0.4071211, 0.04839712
141, 389859875, 0.90751797, -0.03793627, 0.41545326, 0.048689697
142, 389876542, 0.9036397, -0.03922857, 0.4236926, 0.04879694
143, 389893209, 0.89965206, -0.040322855, 0.4319421, 0.049258515
144, 389909876, 0.8954308, -0.041386954, 0.44043702, 0.050063442
145, 389926543, 0.89112175, -0.043061994, 0.4488299, 0.050988425
146, 389943210, 0.88678247, -0.044607736, 0.4571206, 0.051652957
147, 389959877, 0.8827108, -0.04469752, 0.4649172, 0.051730264
148, 389976544, 0.8788602, -0.043201014, 0.47232297, 0.051475212
149, 389993211, 0.8749467, -0.040828165, 0.479787, 0.051050186
150, 390009878, 0.870947, -0.03850867, 0.4872472, 0.05058223
151, 390026545, 0.8669202, -0.03695713, 0.49454996, 0.050040506
152, 390043212, 0.8627652, -0.036572084, 0.50185007, 0.04945195
153, 390059879, 0.8583561, -0.03768266, 0.5092769, 0.04941686
154, 390076546, 0.8536762, -0.040019255, 0.51686716, 0.049839318
155, 390093213, 0.8486519, -0.043106794, 0.5247747, 0.050433613
156, 390109880, 0.84332836, -0.04613667, 0.5329971, 0.050823152
157, 390126547, 0.8379881, -0.04878321, 0.541129, 0.050752413
158, 390143214, 0.83276904, -0.05047641, 0.54903054, 0.05013454
159, 390159881, 0.82784915, -0.05043877, 0.5565811, 0.04836965
160, 390176548, 0.823185, -0.049237818, 0.56377727, 0.045797206
161, 390193215, 0.8184505, -0.048141338, 0.57089496, 0.0435918
162, 390209882, 0.81345576, -0.047873445, 0.5781004, 0.042401306
163, 390226549, 0.8084225, -0.04774086, 0.5852147, 0.041202765
164, 390243216, 0.80379254, -0.046031255, 0.5918679, 0.03861345
165, 390259883, 0.79958004, -0.042592738, 0.5980365, 0.03478573
166, 390276550, 0.7955554, -0.038719736, 0.60384476, 0.03104913
167, 390293217, 0.7916275, -0.0354879, 0.60933185, 0.027950097
168, 390309884, 0.7878035, -0.03352743, 0.6144741, 0.025757056
169, 390326551, 0.7841189, -0.032208193, 0.61930704, 0.024068026
170, 390343218, 0.78055793, -0.030847453, 0.6239093, 0.022696717
171, 390359885, 0.77729404, -0.029475404, 0.62808263, 0.0213896
172, 390376552, 0.7742644, -0.028120078, 0.6319079, 0.020409338
173, 390393219, 0.77139354, -0.026623724, 0.6355031, 0.019476611
174, 390409886, 0.7687723, -0.025071936, 0.63876754, 0.018353341
175, 390426553, 0.76648957, -0.023567557, 0.64160395, 0.016820116
176, 390443220, 0.7645164, -0.022373501, 0.64403296, 0.015358906
177, 390459887, 0.76269436, -0.021726811, 0.64623374, 0.014404012
178, 390476554, 0.7609732, -0.02158021, 0.6482763, 0.013857823
179, 390493221, 0.7594143, -0.0218339, 0.65009147, 0.013946946
180, 390509888, 0.7579953, -0.022680629, 0.65170425, 0.014505635
181, 390526555, 0.75675344, -0.023843836, 0.6530796, 0.015587663
182, 390543222, 0.7556056, -0.025618099, 0.6542876, 0.017667098
183, 390559889, 0.75446635, -0.027882429, 0.65543985, 0.020047426
184, 390576556, 0.7532594, -0.030099254, 0.6566455, 0.022605704
185, 390593223, 0.75196576, -0.032071345, 0.65795326, 0.024835309
186, 390609890, 0.75089115, -0.032807402, 0.65909743, 0.026015261
187, 390626557, 0.749905, -0.033036266, 0.6601683, 0.027001059
188, 390643224, 0.74888265, -0.032747492, 0.66132355, 0.027457373
189, 390659891, 0.74785733, -0.03255125, 0.6624687, 0.028019942
190, 390676558, 0.7468186, -0.032660916, 0.66360426, 0.028716616
191, 390693225, 0.7458346, -0.03293678, 0.6646622, 0.029503154
192, 390709892, 0.74496704, -0.033187896, 0.665582, 0.030389886
193, 390726559, 0.74415374, -0.033503775, 0.66643274, 0.031309847
194, 390743226, 0.7433089, -0.03378347, 0.66732514, 0.03205987
195, 390759893, 0.74252963, -0.033851523, 0.6681762, 0.032320313
196, 390776560, 0.74192303, -0.033754274, 0.66885775, 0.032254472
197, 390793227, 0.74133855, -0.03366471, 0.6695092, 0.03227471
198, 390809894, 0.7407667, -0.033762056, 0.67012465, 0.032525163
199, 390826561, 0.74022335, -0.033966314, 0.6706986, 0.032852244
200, 390843228, 0.73980904, -0.03415144, 0.67113173, 0.03314643
201, 390859895, 0.7395442, -0.034216482, 0.6714128, 0.033298537
202, 390876562, 0.7393822, -0.034272883, 0.6715843, 0.033375245
203, 390893229, 0.7392555, -0.034500744, 0.671701, 0.03359978
204, 390909896, 0.7391528, -0.035047643, 0.67176163, 0.03408173
205, 390926563, 0.7390677, -0.035713654, 0.671798, 0.034512345
206, 390943230, 0.7390141, -0.03633844, 0.6718076, 0.034818236
207, 390959897, 0.7389872, -0.036959168, 0.67179716, 0.03493792
208, 390976564, 0.7390065, -0.03765195, 0.6717318, 0.035042748
209, 390993231, 0.7390887, -0.03821574, 0.67158955, 0.035423424
210, 391009898, 0.7391527, -0.03868863, 0.671472, 0.03580405
211, 391026565, 0.73919386, -0.039176825, 0.6713805, 0.03613743
212, 391043232, 0.7392522, -0.039731625, 0.6712609, 0.03655847
213, 391059899, 0.7392831, -0.04013993, 0.67117995, 0.036971744
214, 391076566, 0.7392424, -0.04050492, 0.6711819, 0.03735018
215, 391093233, 0.7392257, -0.04098923, 0.6711491, 0.037744753
216, 391109900, 0.73920465, -0.041326996, 0.67114073, 0.037931055
217, 391126567, 0.7391869, -0.041593626, 0.67112696, 0.0382303
218, 391143234, 0.73908484, -0.041771866, 0.67121065, 0.038539313
219, 391159901, 0.73899716, -0.04177724, 0.6713019, 0.03862452
220, 391176568, 0.73897886, -0.041670747, 0.67132765, 0.038639326
221, 391193235, 0.73894733, -0.041525923, 0.67137206, 0.038629357
222, 391209902, 0.7389225, -0.04139145, 0.6714064, 0.0386502
223, 391226569, 0.7389706, -0.041251604, 0.6713547, 0.038777098
224, 391243236, 0.7390518, -0.0410068, 0.6712777, 0.038823143
225, 391259903, 0.7391487, -0.040720377, 0.6711893, 0.03881035
226, 391276570, 0.739218, -0.04054575, 0.6711231, 0.038818307
227, 391293237, 0.7391973, -0.04061206, 0.67112947, 0.039030332
228, 391309904, 0.7391501, -0.040731538, 0.671159, 0.03929107
229, 391326571, 0.7391414, -0.04081832, 0.67114896, 0.039536726
230, 391343238, 0.7391851, -0.040842794, 0.6710847, 0.03978425
231, 391359905, 0.7392033, -0.040985435, 0.6710355, 0.040124513
232, 391376572, 0.7391642, -0.041211005, 0.67104465, 0.04046298
233, 391393239, 0.73902696, -0.0413499, 0.6711863, 0.040477384
234, 391409906, 0.7389227, -0.041358933, 0.67130566, 0.04039231
235, 391426573, 0.73883575, -0.041321516, 0.6714052, 0.040366217
236, 391443240, 0.7387496, -0.041266754, 0.67150044, 0.04041408
237, 391459907, 0.7387078, -0.04126012, 0.67154056, 0.040520128
238, 391476574, 0.7387083, -0.041293167, 0.6715282, 0.040680736
239, 391493241, 0.73869956, -0.04143851, 0.671515, 0.040909015
240, 391509908, 0.7387312, -0.041627727, 0.6714535, 0.04115244
241, 391526575, 0.7388174, -0.041770708, 0.67133695, 0.04136234
242, 391543242, 0.7389369, -0.041795228, 0.6711962, 0.04148683
243, 391559909, 0.7391163, -0.04169801, 0.67100096, 0.04154756
244, 391576576, 0.73930854, -0.041662205, 0.6707922, 0.041534644
245, 391593243, 0.7395793, -0.04171754, 0.67049056, 0.041529108
246, 391609910, 0.73983103, -0.041780848, 0.6702002, 0.041666597
247, 391626577, 0.7400556, -0.0419138, 0.6699314, 0.041868415
248, 391643244, 0.74025583, -0.04205592, 0.6696883, 0.042076495
249, 391659911, 0.7404359, -0.042133383, 0.6694754, 0.042217076
250, 391676578, 0.74060756, -0.042081792, 0.6692923, 0.042161673
251, 391693245, 0.7407888, -0.042002782, 0.66910505, 0.042027835
252, 391709912, 0.7409989, -0.041961912, 0.6688859, 0.041853424
253, 391726579, 0.74121875, -0.041867726, 0.66865754, 0.041703667
254, 391743246, 0.74140024, -0.04177525, 0.6684701, 0.041573048
255, 391759913, 0.7415613, -0.0417823, 0.66829914, 0.041440852
256, 391776580, 0.74176204, -0.041805815, 0.6680867, 0.04125057
257, 391793247, 0.7419743, -0.041891526, 0.6678583, 0.041043002
258, 391809914, 0.742195, -0.042029463, 0.6676126, 0.040909752
259, 391826581, 0.7424879, -0.042313684, 0.66726583, 0.040962633
260, 391843248, 0.74286026, -0.042622644, 0.6668254, 0.041058894
261, 391859915, 0.7432908, -0.04302738, 0.6663132, 0.041161854
262, 391876582, 0.74379146, -0.04367947, 0.6656973, 0.04139472
263, 391893249, 0.744343, -0.044617306, 0.66499084, 0.04183576
264, 391909916, 0.7449717, -0.045749154, 0.66416866, 0.042476214
265, 391926583, 0.74580634, -0.046989735, 0.6630925, 0.04328224
266, 391943250, 0.7468707, -0.048330627, 0.6617465, 0.04404548
267, 391959917, 0.7481576, -0.050024748, 0.6601069, 0.044908322
268, 391976584, 0.7496579, -0.051993556, 0.65818244, 0.045889013
269, 391993251, 0.75130486, -0.05399558, 0.65606916, 0.046893176
270, 392009918, 0.7532045, -0.05582853, 0.6536578, 0.047937028
271, 392026585, 0.75524116, -0.05838831, 0.65093887, 0.049801584
272, 392043252, 0.7574751, -0.06152232, 0.6478911, 0.051804714
273, 392059919, 0.75985396, -0.06444068, 0.6446749, 0.053516563
274, 392076586, 0.7624801, -0.06680404, 0.64122826, 0.05466024
275, 392093253, 0.76542735, -0.06845313, 0.6374886, 0.055170476
276, 392109920, 0.768579, -0.06991705, 0.63349396, 0.0555302
277, 392126587, 0.77186185, -0.07148306, 0.62926924, 0.0560349
278, 392143254, 0.77530164, -0.072822526, 0.62482715, 0.0565282
279, 392159921, 0.77899826, -0.07346506, 0.62013346, 0.05656198
280, 392176588, 0.78290725, -0.07324909, 0.615283, 0.055838056
281, 392193255, 0.78703094, -0.07264923, 0.61017245, 0.05471903
282, 392209922, 0.7912609, -0.07204952, 0.6048327, 0.05378453
283, 392226589, 0.795551, -0.07146493, 0.5993287, 0.05288218
284, 392243256, 0.8000233, -0.07084846, 0.5935141, 0.05181282
285, 392259923, 0.8046535, -0.07011904, 0.5874237, 0.050495047
286, 392276590, 0.8092991, -0.06937179, 0.5812012, 0.04927345
287, 392293257, 0.8139045, -0.06893562, 0.5748715, 0.048273038
288, 392309924, 0.8185341, -0.06896281, 0.5683209, 0.047512732
289, 392326591, 0.8231489, -0.0692621, 0.56162566, 0.04696114
290, 392343258, 0.82780623, -0.06932652, 0.5547873, 0.046282656
291, 392359925, 0.8326454, -0.068826, 0.54765904, 0.045105156
292, 392376592, 0.8375801, -0.06804588, 0.54030544, 0.043582648
293, 392393259, 0.84246796, -0.067342, 0.5328453, 0.042294014
294, 392409926, 0.8473405, -0.06680736, 0.52521765, 0.041197393
295, 392426593, 0.85219383, -0.06626599, 0.51747406, 0.039938264
296, 392443260, 0.8571013, -0.06546282, 0.5095151, 0.03855136
297, 392459927, 0.86197716, -0.06430971, 0.5014821, 0.037087582
298, 392476594, 0.8668051, -0.06291016, 0.49338406, 0.035550006
299, 392493261, 0.8716195, -0.061545976, 0.48511642, 0.033964824
300, 392509928, 0.87636626, -0.06050671, 0.47673067, 0.032386374
301, 392526595, 0.8809405, -0.05987978, 0.46839544, 0.031048559
302, 392543262, 0.8853751, -0.05921116, 0.46012232, 0.029877642
303, 392559929, 0.8897831, -0.05806384, 0.451775, 0.028531343
304, 392576596, 0.89413875, -0.056228075, 0.44342607, 0.026980199
305, 392593263, 0.8983887, -0.053699635, 0.43516997, 0.025327923
306, 392609930, 0.9025228, -0.050787114, 0.42697838, 0.02372553
307, 392626597, 0.90654093, -0.048296437, 0.41874033, 0.022529786
308, 392643264, 0.9104271, -0.04649043, 0.41047546, 0.021702891
309, 392659931, 0.9140648, -0.045408458, 0.40246782, 0.021059344
310, 392676598, 0.9175165, -0.04471974, 0.39463657, 0.020631028
311, 392693265, 0.9208029, -0.044252496, 0.38697416, 0.020373696
312, 392709932, 0.9239542, -0.04398881, 0.37942287, 0.020301625
313, 392726599, 0.9269498, -0.043972366, 0.37204865, 0.020259656
314, 392743266, 0.9297816, -0.044011083, 0.3649253, 0.019974615
315, 392759933, 0.9325105, -0.04353645, 0.3579893, 0.019299405
316, 392776600, 0.9351175, -0.042429384, 0.35131413, 0.018265959
317, 392793267, 0.93767124, -0.041042157, 0.34466127, 0.01722902
318, 392809934, 0.94011647, -0.039453432, 0.33817372, 0.016220262
319, 392826601, 0.9424752, -0.037474725, 0.3318278, 0.015054553
320, 392843268, 0.9448601, -0.035487555, 0.32524613, 0.013978729
321, 392859935, 0.94718206, -0.033837367, 0.31863, 0.013275585
322, 392876602, 0.9493115, -0.032715734, 0.31236503, 0.012867832
323, 392893269, 0.9513149, -0.032066315, 0.30629635, 0.012429624
324, 392909936, 0.95330656, -0.03171079, 0.30008933, 0.0121379085
325, 392926603, 0.9552687, -0.031598363, 0.2937954, 0.012153294
326, 392943270, 0.9571284, -0.03163817, 0.28767654, 0.012114286
327, 392959937, 0.9589196, -0.03159659, 0.2816597, 0.011944339
328, 392976604, 0.96073204, -0.031262126, 0.27545947, 0.011783229
329, 392993271, 0.96255994, -0.030713296, 0.2690683, 0.011721809
330, 393009938, 0.9643172, -0.030759675, 0.26269504, 0.011731124
331, 393026605, 0.96594244, -0.031727616, 0.2565329, 0.011810506
332, 393043272, 0.96748084, -0.033067934, 0.25048432, 0.012048759
333, 393059939, 0.96903396, -0.03379586, 0.24429429, 0.01230821
334, 393076606, 0.9706307, -0.033648033, 0.23789145, 0.012311224
335, 393093273, 0.97220916, -0.032896437, 0.23147143, 0.012174609
336, 393109940, 0.9737727, -0.03156653, 0.2250109, 0.0118586095
337, 393126607, 0.97532815, -0.029676836, 0.21846022, 0.011391125
338, 393143274, 0.9768405, -0.027714988, 0.21187945, 0.011035924
339, 393159941, 0.97825223, -0.026392754, 0.20545217, 0.010754799
340, 393176608, 0.97956103, -0.025743976, 0.1992266, 0.010310591
341, 393193275, 0.9807966, -0.025321672, 0.1931301, 0.009899737
342, 393209942, 0.98201287, -0.024711363, 0.18694, 0.009683659
343, 393226609, 0.98320043, -0.024073506, 0.1806996, 0.009242128
344, 393243276, 0.9843058, -0.023776215, 0.17465529, 0.008518229
345, 393259943, 0.98533124, -0.023673315, 0.16882493, 0.007763124
346, 393276610, 0.9863115, -0.023400234, 0.16307053, 0.007082359
347, 393293277, 0.9872645, -0.022920076, 0.15729807, 0.006399314
348, 393309944, 0.9881283, -0.023019517, 0.15178521, 0.0058231736
349, 393326611, 0.98888415, -0.023615554, 0.14670502, 0.0053302483
350, 393343278, 0.98958695, -0.023985138, 0.14184603, 0.0047100075
351, 393359945, 0.9902847, -0.023593554, 0.1369836, 0.0038827285
352, 393376612, 0.9909535, -0.022932142, 0.13219883, 0.0029638847
353, 393393279, 0.9915653, -0.022312528, 0.12765692, 0.002085716
354, 393409946, 0.9921305, -0.021599427, 0.123325564, 0.0012045464
355, 393426613, 0.99268055, -0.020572724, 0.11900435, 4.4054608E-4
356, 393443280, 0.9932111, -0.019362947, 0.114704676, -1.5381907E-4
357, 393459947, 0.9937049, -0.01829764, 0.11052336, -7.186814E-4
358, 393476614, 0.99416006, -0.017425535, 0.10649214, -0.0012679589
359, 393493281, 0.99458617, -0.016804589, 0.10253479, -0.0016388518
360, 393509948, 0.9949944, -0.01638012, 0.0985629, -0.0018593856
361, 393526615, 0.99537444, -0.016243054, 0.09466533, -0.0021875617
362, 393543282, 0.9957232, -0.016436698, 0.09087302, -0.0027360772
363, 393559949, 0.99604416, -0.01664839, 0.08722716, -0.0032697658
364, 393576616, 0.9963483, -0.016523188, 0.08368419, -0.0037248274
365, 393593283, 0.99664646, -0.016205411, 0.0800933, -0.004283431
366, 393609950, 0.99693435, -0.016061962, 0.07642023, -0.004884787
367, 393626617, 0.99719083, -0.016084129, 0.07295304, -0.0054448727
368, 393643284, 0.9974278, -0.01602996, 0.069607675, -0.0059709297
369, 393659951, 0.9976595, -0.015782505, 0.06621091, -0.006526955
370, 393676618, 0.99787325, -0.01582424, 0.06283849, -0.0070674866
371, 393693285, 0.9980595, -0.016290015, 0.059616376, -0.007609855
372, 393709952, 0.9982194, -0.0170624, 0.05655321, -0.008308544
373, 393726619, 0.9983742, -0.0177248, 0.053429745, -0.008949489
374, 393743286, 0.9985234, -0.018286219, 0.050278805, -0.00941479
375, 393759953, 0.9986507, -0.018909117, 0.047344588, -0.009893041
376, 393776620, 0.9987667, -0.019270986, 0.044530965, -0.010529595
377, 393793287, 0.9988872, -0.01915379, 0.041654203, -0.011067325
378, 393809954, 0.999007, -0.018836604, 0.03876363, -0.011299566
379, 393826621, 0.9990969, -0.01934924, 0.03604395, -0.011480371
380, 393843288, 0.9991474, -0.02091492, 0.03364781, -0.011615854
381, 393859955, 0.9991868, -0.022337258, 0.03146199, -0.011707605
382, 393876622, 0.9992515, -0.022447644, 0.029255068, -0.011701117
383, 393893289, 0.9993237, -0.021883123, 0.027191717, -0.011572491
384, 393909956, 0.99937654, -0.021693785, 0.025526818, -0.011154448
385, 393926623, 0.99940836, -0.021897973, 0.024311375, -0.010605559
386, 393943290, 0.99944293, -0.021815166, 0.023117626, -0.010183033
387, 393959957, 0.99948967, -0.021179562, 0.02184794, -0.009744143
388, 393976624, 0.9995289, -0.020591257, 0.02078661, -0.009273954
389, 393993291, 0.9995538, -0.02019043, 0.020177664, -0.00880051
390, 394009958, 0.9995758, -0.019665286, 0.019785287, -0.008372013
391, 394026625, 0.99960685, -0.018837336, 0.019268889, -0.007767976
392, 394043292, 0.99962693, -0.018395375, 0.01892274, -0.0070532905
393, 394059959, 0.9996243, -0.01883631, 0.018917432, -0.006201656
394, 394076626, 0.99960786, -0.019652233, 0.01925542, -0.0052392
395, 394093293, 0.9996095, -0.019511428, 0.01957165, -0.0041588554
396, 394109960, 0.99964243, -0.017845633, 0.01969698, -0.002976665
397, 394126627, 0.999679, -0.015765404, 0.01977046, -0.0016413381
398, 394143294, 0.9997081, -0.013887258, 0.01976922, -1.6716635E-4
399, 394159961, 0.99971515, -0.013131919, 0.019882282, 0.0013706844
400, 394176628, 0.9997001, -0.013822798, 0.020053804, 0.0025885315
401, 394193295, 0.99966913, -0.01559004, 0.020164043, 0.003471577
402, 394209962, 0.9996381, -0.017284242, 0.020177541, 0.004239442
403, 394226629, 0.99962294, -0.018132817, 0.020013498, 0.0049826093
404, 394243296, 0.99962723, -0.018103162, 0.019610142, 0.0057769683
405, 394259963, 0.9996426, -0.017535683, 0.019127274, 0.006427531
406, 394276630, 0.9996587, -0.016904056, 0.018683339, 0.006926949
407, 394293297, 0.9996648, -0.016717346, 0.018344799, 0.0073719746
408, 394309964, 0.9996624, -0.017047454, 0.01798722, 0.007828625
409, 394326631, 0.99965656, -0.017639404, 0.01762783, 0.008075512
410, 394343298, 0.9996504, -0.018168831, 0.017343564, 0.008263018
411, 394359965, 0.9996458, -0.018314108, 0.017346624, 0.008496346
412, 394376632, 0.9996499, -0.01795377, 0.01739179, 0.008694728
413, 394393299, 0.99965626, -0.017564213, 0.017349474, 0.008837415
414, 394409966, 0.99965453, -0.017477134, 0.017449046, 0.009009078
415, 394426633, 0.9996489, -0.017403314, 0.017706858, 0.00926274
416, 394443300, 0.99964416, -0.017291037, 0.01795916, 0.009514032
417, 394459967, 0.99963415, -0.017481027, 0.018153384, 0.009828878
418, 394476634, 0.9996116, -0.01830708, 0.018372552, 0.010200825
419, 394493301, 0.9995812, -0.019473577, 0.018651359, 0.010506872
420, 394509968, 0.9995646, -0.019939706, 0.018942922, 0.01069726
421, 394526635, 0.9995673, -0.019468546, 0.019191293, 0.010864935
422, 394543302, 0.99958116, -0.01853012, 0.019285467, 0.011056484
423, 394559969, 0.99958926, -0.017973147, 0.019318357, 0.011192653
424, 394576636, 0.999575, -0.018429484, 0.019478323, 0.011447081
425, 394593303, 0.99954677, -0.019546635, 0.019691253, 0.011689291
426, 394609970, 0.99952555, -0.02043998, 0.01975998, 0.011867771
427, 394626637, 0.99951786, -0.020701585, 0.019766627, 0.01204228
428, 394643304, 0.99951833, -0.020561708, 0.0197948, 0.01219288
429, 394659971, 0.99952376, -0.020250333, 0.019772887, 0.012303028
430, 394676638, 0.9995327, -0.01988394, 0.019642774, 0.0123791015
431, 394693305, 0.9995396, -0.019616056, 0.019513225, 0.012455885
432, 394709972, 0.99953735, -0.01971794, 0.019490086, 0.012515829
433, 394726639, 0.99953234, -0.019948846, 0.019521188, 0.012503135
434, 394743306, 0.99953234, -0.019992303, 0.019461157, 0.012515161
435, 394759973, 0.99953634, -0.019845964, 0.019372124, 0.012570943
436, 394776640, 0.9995405, -0.01970551, 0.019295748, 0.0125785945
437, 394793307, 0.9995546, -0.019129584, 0.019211799, 0.012476454
438, 394809974, 0.9995716, -0.018381402, 0.019183012, 0.012282442
439, 394826641, 0.99957496, -0.01822834, 0.019176502, 0.012253858
440, 394843308, 0.99956566, -0.01881824, 0.019106854, 0.012221209
441, 394859975, 0.9995583, -0.019402334, 0.018959893, 0.012134919
442, 394876642, 0.99956065, -0.019414993, 0.01888832, 0.012036458
443, 394893309, 0.99957573, -0.018777877, 0.018811898, 0.011918244
444, 394909976, 0.9995958, -0.018023273, 0.018571654, 0.011778681
445, 394926643, 0.99960554, -0.01776081, 0.01833895, 0.011706957
446, 394943310, 0.99960595, -0.017910037, 0.018174697, 0.011700612
447, 394959977, 0.999607, -0.018001443, 0.018093364, 0.011597037
448, 394976644, 0.99962413, -0.01728107, 0.017934082, 0.01146543
449, 394993311, 0.99964774, -0.016210357, 0.017712923, 0.011320571
450, 395009978, 0.9996583, -0.015725074, 0.017619353, 0.011208137
451, 395026645, 0.9996557, -0.015876954, 0.01766776, 0.011145233
452, 395043312, 0.99965715, -0.015816053, 0.017716857, 0.011028783
453, 395059979, 0.99967253, -0.015071164, 0.017632566, 0.010815197
454, 395076646, 0.99968594, -0.014289934, 0.01757149, 0.010724036
455, 395093313, 0.9996885, -0.014068038, 0.017650964, 0.010655514
456, 395109980, 0.9996872, -0.014062068, 0.017813344, 0.0105189355
457, 395126647, 0.99969417, -0.013605459, 0.017859286, 0.01037112
458, 395143314, 0.9997053, -0.01277429, 0.017817639, 0.0104192505
459, 395159981, 0.9997115, -0.0121807195, 0.017824905, 0.010532797
460, 395176648, 0.9997134, -0.011886299, 0.017909229, 0.010539668
461, 395193315, 0.9997193, -0.01147573, 0.017930942, 0.010410926
462, 395209982, 0.99972934, -0.010710427, 0.017897917, 0.01031039
463, 395226649, 0.9997361, -0.010174972, 0.017967863, 0.0100757675
464, 395243316, 0.9997385, -0.009779341, 0.0181373, 0.009914352
465, 395259983, 0.9997399, -0.009372913, 0.01835428, 0.009771465
466, 395276650, 0.9997447, -0.008593911, 0.018560875, 0.009608813
467, 395293317, 0.9997559, -0.0072396537, 0.018734701, 0.009230337
468, 395309984, 0.99976695, -0.0054088794, 0.018966436, 0.008792791
469, 395326651, 0.99977183, -0.0034577611, 0.01938665, 0.008276274
470, 395343318, 0.9997707, -0.0013388935, 0.02000012, 0.0075352467
471, 395359985, 0.9997623, 0.0013391264, 0.02079192, 0.006438065
472, 395376652, 0.99974036, 0.004870342, 0.021685585, 0.0050473535
473, 395393319, 0.99969417, 0.008964337, 0.022780776, 0.0034976373
474, 395409986, 0.9996189, 0.0130923055, 0.024243142, 0.0018259637
475, 395426653, 0.9995146, 0.017309505, 0.025909787, 8.466421E-6
476, 395443320, 0.99938774, 0.021656174, 0.027424239, -0.0017516642
477, 395459987, 0.9992344, 0.026042428, 0.028997095, -0.0034028916
478, 395476654, 0.99905, 0.03037175, 0.030852359, -0.0049836496
479, 395493321, 0.99883443, 0.034993876, 0.032574177, -0.006644365
480, 395509988, 0.99856275, 0.040518366, 0.034034345, -0.008516196
481, 395526655, 0.9982277, 0.046766724, 0.03532954, -0.010301649
482, 395543322, 0.9978299, 0.053341217, 0.036684044, -0.012022162
483, 395559989, 0.99736625, 0.060040396, 0.038226075, -0.013952149
484, 395576656, 0.99685466, 0.06663062, 0.039788976, -0.016069645
485, 395593323, 0.9962715, 0.073351175, 0.041617725, -0.018189533
486, 395609990, 0.9956155, 0.080015555, 0.04399858, -0.020281792
487, 395626657, 0.9949178, 0.08632858, 0.04671624, -0.022446888
488, 395643324, 0.9942477, 0.09211368, 0.04892663, -0.024354137
489, 395659991, 0.9936605, 0.0969664, 0.05073098, -0.025747102
490, 395676658, 0.9931874, 0.10040176, 0.05279182, -0.026672248
491, 395693325, 0.99279326, 0.102921166, 0.05496827, -0.027335368
492, 395709992, 0.9923993, 0.10539419, 0.056967337, -0.028116457
493, 395726659, 0.99195063, 0.10838187, 0.058719967, -0.028974347
494, 395743326, 0.9914283, 0.11179284, 0.060664948, -0.02987198
495, 395759993, 0.9908368, 0.115453064, 0.0629521, -0.030823436
496, 395776660, 0.9901851, 0.11941828, 0.065266594, -0.03183242
497, 395793327, 0.9894894, 0.12368179, 0.06735139, -0.032830656
498, 395809994, 0.98880523, 0.12770592, 0.06934925, -0.033854306
499, 395826661, 0.9881369, 0.13135093, 0.071526304, -0.03487757
500, 395843328, 0.9874235, 0.13500272, 0.07399017, -0.035980247
501, 395859995, 0.9866623, 0.13877141, 0.07659143, -0.037062027
502, 395876662, 0.9859402, 0.14239351, 0.07871897, -0.038071945
503, 395893329, 0.9852425, 0.14579943, 0.08062231, -0.039242946
504, 395909996, 0.9845555, 0.14896336, 0.08263291, -0.040400762
505, 395926663, 0.98387045, 0.15201443, 0.08466525, -0.041500296
506, 395943330, 0.983151, 0.15516618, 0.08663229, -0.04280728
507, 395959997, 0.9823743, 0.15845789, 0.08868193, -0.044354714
508, 395976664, 0.98156816, 0.16164446, 0.09101161, -0.045959696
509, 395993331, 0.9807307, 0.16477877, 0.09357765, -0.047525533
510, 396009998, 0.9798578, 0.16804215, 0.09602326, -0.049197495
511, 396026665, 0.97893274, 0.17148754, 0.09833544, -0.051117864
512, 396043332, 0.9779479, 0.17508797, 0.1006806, -0.053157162
513, 396059999, 0.97697204, 0.17846338, 0.10318029, -0.05504923
514, 396076666, 0.97604775, 0.18140095, 0.10578008, -0.056880105
515, 396093333, 0.97517705, 0.18401107, 0.10822371, -0.058800105
516, 396110000, 0.97438544, 0.1861651, 0.11064094, -0.060615215
517, 396126667, 0.9736947, 0.18764722, 0.1132525, -0.062299777
518, 396143334, 0.9730689, 0.1886164, 0.116004035, -0.06406257
519, 396160001, 0.97242737, 0.18967474, 0.11862196, -0.06586067
520, 396176668, 0.9717186, 0.19115555, 0.121111356, -0.06748867
521, 396193335, 0.97092366, 0.19288522, 0.123738095, -0.069221474
522, 396210002, 0.9700386, 0.19470663, 0.12667593, -0.07118807
523, 396226669, 0.9690797, 0.19682111, 0.12963289, -0.07308572
524, 396243336, 0.96810645, 0.1990273, 0.13250946, -0.074828796
525, 396260003, 0.9671641, 0.20097744, 0.13545737, -0.07650518
526, 396276670, 0.9662593, 0.20245928, 0.13870537, -0.07819286
527, 396293337, 0.96531934, 0.20386325, 0.14220089, -0.07985925
528, 396310004, 0.96435505, 0.2053862, 0.14562792, -0.081413835
529, 396326671, 0.9634055, 0.20701765, 0.14875509, -0.08285926
530, 396343338, 0.9624241, 0.20882525, 0.15176708, -0.08425348
531, 396360005, 0.9614321, 0.21050048, 0.15488702, -0.085720465
532, 396376672, 0.9604001, 0.2121473, 0.15816072, -0.08723801
533, 396393339, 0.9593284, 0.21398892, 0.16146728, -0.08846534
534, 396410006, 0.9581885, 0.21617708, 0.16468309, -0.089565165
535, 396426673, 0.9568771, 0.21895024, 0.16799296, -0.090694
536, 396443340, 0.955416, 0.22215256, 0.17137426, -0.09197443
537, 396460007, 0.9538318, 0.22564945, 0.17488462, -0.09328835
538, 396476674, 0.95219564, 0.22940093, 0.1781129, -0.09473272
539, 396493341, 0.95053, 0.23324147, 0.1811296, -0.09635019
540, 396510008, 0.94881815, 0.23716879, 0.18414891, -0.09789914
541, 396526675, 0.9470633, 0.24116276, 0.1873776, -0.09900192
542, 396543342, 0.9453476, 0.24496971, 0.19070296, -0.09970097
543, 396560009, 0.94381225, 0.2480009, 0.19400723, -0.10037603
544, 396576676, 0.94245476, 0.2502724, 0.19732583, -0.101022825
545, 396593343, 0.9411175, 0.25243527, 0.20060089, -0.10165495
546, 396610010, 0.93964946, 0.25505176, 0.2038635, -0.10221052
547, 396626677, 0.9380475, 0.25819704, 0.2070507, -0.10262219
548, 396643344, 0.9365105, 0.26127204, 0.20996091, -0.10296492
549, 396660011, 0.9351195, 0.26391914, 0.21257728, -0.10348582
550, 396676678, 0.9338217, 0.26629046, 0.21502006, -0.10408168
551, 396693345, 0.93241906, 0.26913607, 0.21734713, -0.10450378
552, 396710012, 0.9309633, 0.27223647, 0.21965231, -0.104631364
553, 396726679, 0.9294611, 0.27539182, 0.22203979, -0.10468867
554, 396743346, 0.9279993, 0.27835485, 0.22443387, -0.10471473
555, 396760013, 0.92646354, 0.2813513, 0.22699519, -0.10478592
556, 396776680, 0.9250018, 0.28400204, 0.22963785, -0.10479073
557, 396793347, 0.92361134, 0.28633246, 0.23227681, -0.10489791
558, 396810014, 0.92222285, 0.28866237, 0.23480162, -0.10510625
559, 396826681, 0.9207578, 0.29118595, 0.23732886, -0.10531401
560, 396843348, 0.9190639, 0.29432037, 0.2398653, -0.10564983
561, 396860015, 0.91739213, 0.29745978, 0.24217558, -0.106115684
562, 396876682, 0.91581595, 0.30017924, 0.24453579, -0.106658295
563, 396893349, 0.914399, 0.30237964, 0.2469362, -0.10706861
564, 396910016, 0.9128828, 0.30465943, 0.24954438, -0.107496135
565, 396926683, 0.91115826, 0.3075265, 0.2521586, -0.10786208
566, 396943350, 0.90941054, 0.31059954, 0.2545746, -0.10813177
567, 396960017, 0.90747, 0.31406048, 0.2570636, -0.10854824
568, 396976684, 0.9052132, 0.31818658, 0.25970444, -0.10908835
569, 396993351, 0.9027475, 0.32278615, 0.26233077, -0.1097217
570, 397010018, 0.90016574, 0.32755953, 0.26492402, -0.11055306
571, 397026685, 0.89758384, 0.3322578, 0.26736984, -0.11163088
572, 397043352, 0.8949612, 0.3368729, 0.26987833, -0.11281446
573, 397060019, 0.8924874, 0.34107542, 0.2723101, -0.11393411
574, 397076686, 0.89039916, 0.34431916, 0.27450472, -0.11524193
575, 397093353, 0.88881224, 0.34625626, 0.2765728, -0.11673452
576, 397110020, 0.8875544, 0.3474467, 0.27845147, -0.11829083
577, 397126687, 0.8863659, 0.3485982, 0.28003272, -0.120069295
578, 397143354, 0.8850888, 0.3500146, 0.28151473, -0.12189093
579, 397160021, 0.88382214, 0.35153064, 0.2828562, -0.123601004
580, 397176688, 0.8826101, 0.3528834, 0.28425556, -0.1251862
581, 397193355, 0.88144326, 0.35404542, 0.28586075, -0.12646571
582, 397210022, 0.8802142, 0.35536084, 0.28750858, -0.12759545
583, 397226689, 0.8788485, 0.35684115, 0.28936088, -0.12868689
584, 397243356, 0.8772586, 0.3585451, 0.29148057, -0.13000785
585, 397260023, 0.87559766, 0.36028087, 0.29367965, -0.13144945
586, 397276690, 0.87386173, 0.36228976, 0.2956538, -0.13304439
587, 397293357, 0.8717783, 0.36522216, 0.29732183, -0.13496423
588, 397310024, 0.8697958, 0.36809838, 0.2986853, -0.13691628
589, 397326691, 0.86799365, 0.37055558, 0.30011645, -0.13858566
590, 397343358, 0.8662597, 0.37288982, 0.30159613, -0.13995478
591, 397360025, 0.8644413, 0.37547415, 0.30309066, -0.14105591
592, 397376692, 0.86247903, 0.37852436, 0.30448475, -0.14191017
593, 397393359, 0.8604019, 0.38204873, 0.30556792, -0.1427435
594, 397410026, 0.85824764, 0.3858085, 0.30645555, -0.14369345
595, 397426693, 0.85603595, 0.38958105, 0.30743986, -0.14460193
596, 397443360, 0.8537455, 0.39323962, 0.3088156, -0.14530776
597, 397460027, 0.8515398, 0.39675254, 0.31013307, -0.14589483
598, 397476694, 0.84956, 0.39981112, 0.31129906, -0.14660093
599, 397493361, 0.8477696, 0.40225467, 0.31270698, -0.14728303
600, 397510028, 0.846087, 0.40422168, 0.31434226, -0.14809026
601, 397526695, 0.8445175, 0.40583122, 0.31599846, -0.14911845
602, 397543362, 0.8430177, 0.40744463, 0.31732178, -0.15039082
603, 397560029, 0.841644, 0.40902248, 0.3183156, -0.15169445
604, 397576696, 0.8404198, 0.41036236, 0.31926525, -0.15286317
605, 397593363, 0.8394717, 0.41115534, 0.3202334, -0.15391387
606, 397610030, 0.8387308, 0.4114362, 0.32134655, -0.15487912
607, 397626697, 0.8378717, 0.41188952, 0.32263932, -0.1556343
608, 397643364, 0.8370419, 0.41231433, 0.3238919, -0.15637109
609, 397660031, 0.8362164, 0.41267395, 0.3252096, -0.1571026
610, 397676698, 0.8352664, 0.41314802, 0.3266675, -0.15788276
611, 397693365, 0.83420813, 0.41371158, 0.32825363, -0.158711
612, 397710032, 0.83305746, 0.4141244, 0.33021948, -0.15959828
613, 397726699, 0.8316934, 0.41472128, 0.33238426, -0.16066423
614, 397743366, 0.8302087, 0.41545907, 0.33467254, -0.1616837
615, 397760033, 0.8287878, 0.41589913, 0.33711272, -0.16276859
616, 397776700, 0.82726157, 0.4163139, 0.33980867, -0.16386367
617, 397793367, 0.8259275, 0.41648662, 0.3422831, -0.16500038
618, 397810034, 0.8247192, 0.41634175, 0.34479406, -0.16617781
619, 397826701, 0.82350296, 0.41606626, 0.34738767, -0.16749315
620, 397843368, 0.822293, 0.41582075, 0.349815, -0.16898781
621, 397860035, 0.82113016, 0.4155825, 0.35202363, -0.170634
622, 397876702, 0.81998223, 0.41518977, 0.3543363, -0.17231527
623, 397893369, 0.81866187, 0.41508305, 0.3566261, -0.1741172
624, 397910036, 0.81746113, 0.41462547, 0.3589907, -0.17597938
625, 397926703, 0.81628054, 0.41402593, 0.36135146, -0.17802794
626, 397943370, 0.81504697, 0.4135065, 0.3636809, -0.18013114
627, 397960037, 0.81372666, 0.4131335, 0.36604962, -0.18214677
628, 397976704, 0.812314, 0.4129553, 0.36842597, -0.18405531
629, 397993371, 0.81089747, 0.4128978, 0.37078407, -0.18568787
630, 398010038, 0.80961555, 0.41268373, 0.37315354, -0.18700638
631, 398026705, 0.808496, 0.41227278, 0.37551984, -0.1880173
632, 398043372, 0.807558, 0.41168258, 0.37778345, -0.18880554
633, 398060039, 0.8067092, 0.41093218, 0.38013437, -0.18934874
634, 398076706, 0.8058668, 0.4101956, 0.38254032, -0.1896876
635, 398093373, 0.80519956, 0.4093308, 0.3847814, -0.18985687
636, 398110040, 0.80487794, 0.4079195, 0.38700542, -0.18973687
637, 398126707, 0.8047879, 0.406309, 0.38912967, -0.18922892
638, 398143374, 0.8048796, 0.40459538, 0.39128804, -0.18805599
639, 398160041, 0.8050572, 0.40299115, 0.39340115, -0.18632378
640, 398176708, 0.80528283, 0.40147138, 0.39551854, -0.1841343
641, 398193375, 0.80548364, 0.4001035, 0.39766496, -0.18159354
642, 398210042, 0.80556643, 0.39898592, 0.399797, -0.17898467
643, 398226709, 0.80539244, 0.39830598, 0.40189165, -0.17657544
644, 398243376, 0.80496126, 0.39812097, 0.40383163, -0.1745203
645, 398260043, 0.8045064, 0.3979198, 0.4056719, -0.17279999
646, 398276710, 0.804074, 0.39759648, 0.40744853, -0.1713717
647, 398293377, 0.8037811, 0.39714327, 0.40892917, -0.17026529
648, 398310044, 0.8031623, 0.39701754, 0.41044867, -0.16982208
649, 398326711, 0.80245817, 0.3969147, 0.4117968, -0.17012727
650, 398343378, 0.8016994, 0.39680722, 0.41303426, -0.17095384
651, 398360045, 0.80099183, 0.3962427, 0.41451243, -0.17199913
652, 398376712, 0.80028987, 0.3955514, 0.41607946, -0.17307095
653, 398393379, 0.79986066, 0.3943254, 0.41778296, -0.17374672
654, 398410046, 0.79991275, 0.3922918, 0.41948074, -0.17401977
655, 398426713, 0.8001701, 0.39011207, 0.4210659, -0.17390737
656, 398443380, 0.8003507, 0.38860324, 0.42230803, -0.17344171
657, 398460047, 0.80053526, 0.3876007, 0.42323688, -0.17256775
658, 398476714, 0.80067194, 0.38691643, 0.42407072, -0.17141892
659, 398493381, 0.8008234, 0.3864324, 0.4247746, -0.17005436
660, 398510048, 0.8010916, 0.3860398, 0.42523634, -0.16852151
661, 398526715, 0.8015471, 0.38566476, 0.42534947, -0.16692196
662, 398543382, 0.8019958, 0.38560557, 0.42520458, -0.16526477
663, 398560049, 0.8025133, 0.38542747, 0.42506534, -0.16351616
664, 398576716, 0.80308664, 0.3852064, 0.42483464, -0.16181295
665, 398593383, 0.80364895, 0.38498676, 0.42459747, -0.16015796
666, 398610050, 0.8041945, 0.38472316, 0.42436266, -0.15866932
667, 398626717, 0.8046898, 0.38455343, 0.42404816, -0.15740424
668, 398643384, 0.8052125, 0.38438758, 0.4236273, -0.15626556
669, 398660051, 0.8056607, 0.3842849, 0.4231811, -0.15541434
670, 398676718, 0.80603313, 0.38421428, 0.42275465, -0.15481812
671, 398693385, 0.80641425, 0.3840471, 0.42226467, -0.15458593
672, 398710052, 0.80684114, 0.3836824, 0.4217933, -0.15454994
673, 398726719, 0.80723566, 0.38330328, 0.4213288, -0.15469754
674, 398743386, 0.80766374, 0.3828192, 0.4208704, -0.15490912
675, 398760053, 0.8081356, 0.38226622, 0.4203676, -0.15517841
676, 398776720, 0.8086162, 0.38168344, 0.41987386, -0.15544626
677, 398793387, 0.8090497, 0.38115042, 0.41945472, -0.15563008
678, 398810054, 0.80941856, 0.38073996, 0.41909102, -0.15569699
679, 398826721, 0.8096773, 0.38052687, 0.41877413, -0.15572555
680, 398843388, 0.80991215, 0.38034615, 0.41847304, -0.1557552
681, 398860055, 0.8100989, 0.3801489, 0.41828904, -0.15575959
682, 398876722, 0.8102068, 0.37995785, 0.41824868, -0.1557732
683, 398893389, 0.8102267, 0.37981638, 0.41831502, -0.15583585
684, 398910056, 0.8101232, 0.37979144, 0.41847512, -0.15600474
685, 398926723, 0.809961, 0.37968174, 0.4187592, -0.15635094
686, 398943390, 0.80987275, 0.37930328, 0.41910675, -0.15679571
687, 398960057, 0.8099023, 0.37867174, 0.4194361, -0.1572883
688, 398976724, 0.8100638, 0.37797585, 0.41955903, -0.15780249
689, 398993391, 0.81034297, 0.37721935, 0.41947684, -0.15839542
690, 399010058, 0.81072944, 0.37646988, 0.41918498, -0.15897247
691, 399026725, 0.8111278, 0.37579736, 0.4188056, -0.15953074
692, 399043392, 0.81147057, 0.3752399, 0.41844603, -0.16004229
693, 399060059, 0.8117186, 0.37488455, 0.41809312, -0.16053958
694, 399076726, 0.811881, 0.37469748, 0.41776493, -0.16100878
695, 399093393, 0.81202316, 0.3745609, 0.41745636, -0.16140878
696, 399110060, 0.81217825, 0.37435627, 0.41722685, -0.16169627
697, 399126727, 0.8123162, 0.3741678, 0.41704628, -0.16190495
698, 399143394, 0.81237257, 0.37404913, 0.4169912, -0.16203827
699, 399160061, 0.81236535, 0.37393627, 0.4170755, -0.16211824
700, 399176728, 0.81229854, 0.373772, 0.41733855, -0.16215481
701, 399193395, 0.8121675, 0.37357607, 0.41775963, -0.16217889
702, 399210062, 0.8119672, 0.37336734, 0.41831988, -0.16221866
703, 399226729, 0.8117153, 0.37311852, 0.41900656, -0.16227968
704, 399243396, 0.81145096, 0.37282467, 0.41977558, -0.16228886
705, 399260063, 0.81122476, 0.3724915, 0.4205206, -0.16225694
706, 399276730, 0.8110637, 0.37210417, 0.42120048, -0.16218601
707, 399293397, 0.8109646, 0.37167683, 0.42180803, -0.16208296
708, 399310064, 0.81089133, 0.37125352, 0.42238253, -0.16192392
709, 399326731, 0.81082064, 0.3709323, 0.42286363, -0.16175734
710, 399343398, 0.8107885, 0.37062517, 0.42326394, -0.1615755
711, 399360065, 0.81077546, 0.37036628, 0.42355824, -0.16146356
712, 399376732, 0.8107942, 0.37011918, 0.4237544, -0.1614217
713, 399393399, 0.8108121, 0.36984876, 0.42395976, -0.16141206
714, 399410066, 0.8108368, 0.36955568, 0.4241831, -0.16137317
715, 399426733, 0.8109039, 0.3691801, 0.4244088, -0.16130196
716, 399443400, 0.8110223, 0.36871815, 0.4246066, -0.16124211
717, 399460067, 0.81113654, 0.36828873, 0.424759, -0.16124727
718, 399476734, 0.81123215, 0.3678163, 0.42496738, -0.16129531
719, 399493401, 0.8113062, 0.36732832, 0.42522457, -0.16135828
720, 399510068, 0.8113487, 0.366882, 0.42550522, -0.16142024
721, 399526735, 0.81143725, 0.36631593, 0.42580065, -0.161481
722, 399543402, 0.8115233, 0.3657566, 0.42606172, -0.16162783
723, 399560069, 0.8115555, 0.3653764, 0.4262124, -0.161928
724, 399576736, 0.8114785, 0.3652745, 0.42629457, -0.16232704
725, 399593403, 0.8114368, 0.36531943, 0.4262149, -0.16264398
726, 399610070, 0.8115914, 0.36515373, 0.4259995, -0.1628084
727, 399626737, 0.8118528, 0.3648985, 0.42566457, -0.16295384
728, 399643404, 0.81207186, 0.36486566, 0.42517152, -0.16322304
729, 399660071, 0.81229097, 0.36501917, 0.42448992, -0.16356291
730, 399676738, 0.81259626, 0.36519518, 0.42367554, -0.16376486
731, 399693405, 0.8130525, 0.3652545, 0.42272925, -0.16381362
732, 399710072, 0.81362355, 0.36514878, 0.42174116, -0.16376157
733, 399726739, 0.8142611, 0.36490238, 0.42075008, -0.16369034
734, 399743406, 0.814911, 0.3646713, 0.41969237, -0.16368628
735, 399760073, 0.81552804, 0.36458558, 0.41856867, -0.16368206
736, 399776740, 0.81611335, 0.36452544, 0.41750926, -0.16360463
737, 399793407, 0.8167017, 0.36439842, 0.41649947, -0.16352454
738, 399810074, 0.8172834, 0.36419323, 0.41557512, -0.16342728
739, 399826741, 0.8178171, 0.36391264, 0.4147814, -0.16339912
740, 399843408, 0.81823635, 0.36383924, 0.41401392, -0.1634102
741, 399860075, 0.8185853, 0.3639004, 0.41330156, -0.1633301
742, 399876742, 0.8189168, 0.3639463, 0.4125953, -0.16335124
743, 399893409, 0.81933904, 0.36384466, 0.41195196, -0.16308403
744, 399910076, 0.8198504, 0.36358777, 0.41128075, -0.16278112
745, 399926743, 0.8203825, 0.36336574, 0.4105096, -0.16254292
746, 399943410, 0.8208039, 0.36341402, 0.40970105, -0.16234611
747, 399960077, 0.82115763, 0.363732, 0.40870836, -0.16234754
748, 399976744, 0.8215699, 0.36394557, 0.4078313, -0.16198865
749, 399993411, 0.82195246, 0.36416325, 0.40699613, -0.16165924
750, 400010078, 0.8223503, 0.3643501, 0.4061392, -0.16136976
751, 400026745, 0.8227761, 0.3645908, 0.40514195, -0.16116251
752, 400043412, 0.8232586, 0.36478263, 0.40409273, -0.16089739
753, 400060079, 0.82368225, 0.36521316, 0.4030009, -0.16049019
754, 400076746, 0.8241372, 0.36585084, 0.40164196, -0.16010903
755, 400093413, 0.82486165, 0.3658773, 0.40046167, -0.15927207
756, 400110080, 0.8256416, 0.36574844, 0.3991812, -0.15874062
757, 400126747, 0.8264653, 0.3654565, 0.39786187, -0.15843852
758, 400143414, 0.8271514, 0.36544704, 0.3963802, -0.15859303
759, 400160081, 0.8278971, 0.3655733, 0.39471623, -0.15856227
760, 400176748, 0.82867813, 0.36611077, 0.39267814, -0.15830167
761, 400193415, 0.8296151, 0.36653137, 0.39046028, -0.15790644
762, 400210082, 0.83067286, 0.36654106, 0.3882437, -0.15778804
763, 400226749, 0.83178693, 0.36636195, 0.38602376, -0.15778168
764, 400243416, 0.83283454, 0.3663094, 0.38357502, -0.15834935
765, 400260083, 0.83388424, 0.3665253, 0.38104087, -0.15844327
766, 400276750, 0.83509547, 0.367134, 0.37792602, -0.15811561
767, 400293417, 0.8366347, 0.36736634, 0.37453574, -0.1575037
768, 400310084, 0.83853114, 0.366552, 0.3715982, -0.15626962
769, 400326751, 0.84059733, 0.36499837, 0.3690387, -0.1548643
770, 400343418, 0.84270114, 0.36331898, 0.3664802, -0.1534489
771, 400360085, 0.8444043, 0.3623343, 0.36403313, -0.15223391
772, 400376752, 0.8459224, 0.36177212, 0.3614663, -0.15125641
773, 400393419, 0.8475339, 0.36113757, 0.35865256, -0.15044717
774, 400410086, 0.8493046, 0.3601007, 0.3558606, -0.1495747
775, 400426753, 0.8511926, 0.3585564, 0.35333934, -0.1485263
776, 400443420, 0.85281265, 0.35735473, 0.35105836, -0.14753406
777, 400460087, 0.854136, 0.35679108, 0.3487039, -0.1468252
778, 400476754, 0.8555887, 0.35614792, 0.34602287, -0.14626962
779, 400493421, 0.8573292, 0.35494614, 0.34319383, -0.14566353
780, 400510088, 0.8594111, 0.35282856, 0.34053457, -0.14477913
781, 400526755, 0.861596, 0.35019866, 0.33819085, -0.14366756
782, 400543422, 0.8635146, 0.34822887, 0.33574018, -0.14268057
783, 400560089, 0.8657063, 0.3461687, 0.33266023, -0.14162318
784, 400576756, 0.86818767, 0.3433469, 0.32960328, -0.1404467
785, 400593423, 0.87078977, 0.33976945, 0.3270431, -0.13901436
786, 400610090, 0.87319535, 0.33609253, 0.3251257, -0.1373497
787, 400626757, 0.87502176, 0.33341265, 0.32359254, -0.13587129
788, 400643424, 0.8764209, 0.3318444, 0.32192987, -0.13463634
789, 400660091, 0.8780277, 0.33006838, 0.31982654, -0.13354181
790, 400676758, 0.87972987, 0.32797277, 0.31771937, -0.13252857
791, 400693425, 0.88150966, 0.3257125, 0.31541863, -0.13177098
792, 400710092, 0.8830924, 0.3237616, 0.31312603, -0.1314464
793, 400726759, 0.88436735, 0.32261643, 0.31080377, -0.13120262
794, 400743426, 0.8858637, 0.3212425, 0.30806607, -0.13093582
795, 400760093, 0.8876068, 0.31926107, 0.30516884, -0.13076217
796, 400776760, 0.8895227, 0.31667694, 0.30246085, -0.13031901
797, 400793427, 0.89123315, 0.3144312, 0.29986048, -0.13007803
798, 400810094, 0.8926247, 0.3131198, 0.29707775, -0.13008569
799, 400826761, 0.89416844, 0.31172916, 0.2938983, -0.13004476
800, 400843428, 0.8959942, 0.30978957, 0.29036212, -0.13005757
801, 400860095, 0.8980983, 0.3070953, 0.28678885, -0.12986201
802, 400876762, 0.9002323, 0.30402097, 0.28361163, -0.12929685
803, 400893429, 0.90194196, 0.30182722, 0.2805789, -0.12913907
804, 400910096, 0.9035181, 0.3000737, 0.27734035, -0.12920274
805, 400926763, 0.90532327, 0.29789567, 0.27364862, -0.12947793
806, 400943430, 0.9071789, 0.29540673, 0.2699652, -0.12992403
807, 400960097, 0.90906537, 0.29259786, 0.26661792, -0.1300069
808, 400976764, 0.9111176, 0.28933293, 0.26330936, -0.12968963
809, 400993431, 0.9130149, 0.2863128, 0.25999978, -0.12972721
810, 401010098, 0.9148021, 0.28360328, 0.256617, -0.1298237
811, 401026765, 0.9167824, 0.28039336, 0.25310674, -0.12971845
812, 401043432, 0.91877574, 0.27695873, 0.2496853, -0.12962402
813, 401060099, 0.920873, 0.27303067, 0.24649332, -0.12918456
814, 401076766, 0.9230113, 0.26896653, 0.24318019, -0.12872732
815, 401093433, 0.924963, 0.26519978, 0.24004671, -0.12841442
816, 401110100, 0.9267562, 0.26208147, 0.23668173, -0.12813371
817, 401126767, 0.92842716, 0.25951412, 0.2329873, -0.1280329
818, 401143434, 0.930199, 0.25666794, 0.2291812, -0.12777855
819, 401160101, 0.93211406, 0.25319326, 0.2254198, -0.12744638
820, 401176768, 0.93406403, 0.24920824, 0.22196996, -0.12707986
821, 401193435, 0.9360739, 0.24478841, 0.21876426, -0.12643872
822, 401210102, 0.9381109, 0.24035113, 0.2153929, -0.12563984
823, 401226769, 0.94010735, 0.23607208, 0.21206872, -0.124479145
824, 401243436, 0.94189155, 0.23249933, 0.20889518, -0.123074315
825, 401260103, 0.9432748, 0.23040695, 0.20560974, -0.1219432
826, 401276770, 0.94460565, 0.22830215, 0.20236978, -0.121016435
827, 401293437, 0.94603544, 0.22537285, 0.19938771, -0.12028546
828, 401310104, 0.9475932, 0.22183624, 0.19646432, -0.119404845
829, 401326771, 0.94933426, 0.21773681, 0.19357209, -0.117835164
830, 401343438, 0.9509039, 0.21429333, 0.19087449, -0.115876116
831, 401360105, 0.95240223, 0.21091665, 0.18832532, -0.11392134
832, 401376772, 0.9539479, 0.20722967, 0.18554732, -0.11230059
833, 401393439, 0.9555783, 0.203211, 0.18246749, -0.11082015
834, 401410106, 0.95735985, 0.19836752, 0.17978568, -0.10858038
835, 401426773, 0.9591126, 0.19338165, 0.17757048, -0.105714805
836, 401443440, 0.960732, 0.18904032, 0.1750915, -0.10296061
837, 401460107, 0.9623273, 0.18483356, 0.17207405, -0.10076483
838, 401476774, 0.9639744, 0.18032278, 0.16869393, -0.0988921
839, 401493441, 0.9657926, 0.1745398, 0.16573994, -0.09649237
840, 401510108, 0.9677911, 0.16746126, 0.16324987, -0.09320261
841, 401526775, 0.969659, 0.16044141, 0.16119976, -0.08963759
842, 401543442, 0.97138464, 0.15370986, 0.15906504, -0.08650798
843, 401560109, 0.973001, 0.14745964, 0.15657717, -0.08371813
844, 401576776, 0.9744591, 0.1416333, 0.15436596, -0.08087537
845, 401593443, 0.97584647, 0.13614911, 0.1521008, -0.0777988
846, 401610110, 0.9770788, 0.13139951, 0.14984092, -0.07482591
847, 401626777, 0.9782618, 0.12657918, 0.14756295, -0.07215712
848, 401643444, 0.9794317, 0.12156312, 0.14526448, -0.06952913
849, 401660111, 0.9806312, 0.11594753, 0.14317402, -0.066482864
850, 401676778, 0.9818524, 0.10957378, 0.14151424, -0.0627153
851, 401693445, 0.9830085, 0.10318573, 0.13987722, -0.05900506
852, 401710112, 0.98406744, 0.097412534, 0.13788043, -0.055781983
853, 401726779, 0.9849767, 0.09285891, 0.13571885, -0.052713104
854, 401743446, 0.98580277, 0.08888749, 0.13366254, -0.049259692
855, 401760113, 0.9865098, 0.08537143, 0.1319906, -0.04570491
856, 401776780, 0.9871184, 0.08223163, 0.1305223, -0.042416245
857, 401793447, 0.9877123, 0.07901878, 0.12903234, -0.039131556
858, 401810114, 0.9882566, 0.07628404, 0.12740828, -0.03600996
859, 401826781, 0.9887212, 0.0740185, 0.1259022, -0.033175845
860, 401843448, 0.9891251, 0.07182292, 0.12469867, -0.030390764
861, 401860115, 0.9895313, 0.06946068, 0.12354437, -0.027201034
862, 401876782, 0.9899579, 0.06684618, 0.12228886, -0.023676364
863, 401893449, 0.99040943, 0.064057335, 0.1207135, -0.020347096
864, 401910116, 0.99084055, 0.061137974, 0.1191458, -0.01736821
865, 401926783, 0.991259, 0.057993818, 0.117601, -0.014577131
866, 401943450, 0.99164116, 0.055311963, 0.11598143, -0.011697637
867, 401960117, 0.99196064, 0.053286355, 0.11444192, -0.008831339
868, 401976784, 0.99225265, 0.051462453, 0.11290293, -0.006268985
869, 401993451, 0.99251187, 0.04988026, 0.11143653, -0.0037699207
870, 402010118, 0.99272346, 0.049036734, 0.10997304, -0.0012884145
871, 402026785, 0.99292696, 0.048306987, 0.10845049, 9.926985E-4
872, 402043452, 0.9930925, 0.048045967, 0.10700104, 0.0031208037
873, 402060119, 0.9932039, 0.048437715, 0.1056911, 0.005449009
874, 402076786, 0.99331546, 0.04904617, 0.10420179, 0.00780283
875, 402093453, 0.9934783, 0.049301695, 0.10230837, 0.01016766
876, 402110120, 0.9936822, 0.048889175, 0.100205004, 0.012837373
877, 402126787, 0.9938777, 0.04823162, 0.09821092, 0.015351162
878, 402143454, 0.9940531, 0.047796458, 0.096256174, 0.017572327
879, 402160121, 0.9941963, 0.04803487, 0.09415891, 0.020016395
880, 402176788, 0.99430853, 0.04898435, 0.09184777, 0.022699576
881, 402193455, 0.9944162, 0.049631607, 0.08960351, 0.025390098
882, 402210122, 0.9945173, 0.04965404, 0.08775321, 0.027736425
883, 402226789, 0.9946324, 0.049068984, 0.08614573, 0.029620813
884, 402243456, 0.99474037, 0.048251767, 0.08457314, 0.0317944
885, 402260123, 0.9948163, 0.04762383, 0.083020665, 0.034355853
886, 402276790, 0.9948827, 0.046911962, 0.08154149, 0.03685985
887, 402293457, 0.99492055, 0.046814054, 0.08008927, 0.039081715
888, 402310124, 0.9949208, 0.047342952, 0.078676835, 0.041247305
889, 402326791, 0.994851, 0.048648335, 0.07755272, 0.043481383
890, 402343458, 0.9947972, 0.04980714, 0.076521635, 0.045190718
891, 402360125, 0.9947695, 0.05064887, 0.07557103, 0.04645009
892, 402376792, 0.9947321, 0.051455755, 0.07473459, 0.04770104
893, 402393459, 0.99468833, 0.052244563, 0.07406588, 0.048786934
894, 402410126, 0.99467963, 0.052528627, 0.07348152, 0.049534705
895, 402426793, 0.9946787, 0.0525258, 0.07309565, 0.050123375
896, 402443460, 0.99467033, 0.05248607, 0.07289431, 0.050620966
897, 402460127, 0.99468595, 0.05245309, 0.07259344, 0.05078214
898, 402476794, 0.9947046, 0.052555803, 0.07239687, 0.050588626
899, 402493461, 0.9947126, 0.052682858, 0.07229159, 0.05045182
900, 402510128, 0.99471337, 0.05270128, 0.07222435, 0.05051365
901, 402526795, 0.994736, 0.05233686, 0.0720854, 0.050645992
902, 402543462, 0.9947761, 0.051778626, 0.07189779, 0.050698016
903, 402560129, 0.9948078, 0.051731963, 0.07169229, 0.050414864
904, 402576796, 0.99481165, 0.052255612, 0.07150109, 0.050068453
905, 402593463, 0.99480647, 0.05278308, 0.07135232, 0.04982915
906, 402610130, 0.99483544, 0.052695468, 0.07122598, 0.049523495
907, 402626797, 0.99489796, 0.051986948, 0.07112031, 0.049166627
908, 402643464, 0.99497473, 0.05093118, 0.071079925, 0.048773643
909, 402660131, 0.99502546, 0.05025631, 0.07097368, 0.04859349
910, 402676798, 0.9950503, 0.049981337, 0.07089511, 0.04848668
911, 402693465, 0.9950809, 0.04971935, 0.07079887, 0.04826556
912, 402710132, 0.99510115, 0.04947863, 0.07080521, 0.04808537
913, 402726799, 0.99510354, 0.04931388, 0.07086678, 0.04811566
914, 402743466, 0.9951145, 0.049115088, 0.07091427, 0.048022315
915, 402760133, 0.9951285, 0.04898498, 0.07099444, 0.047746934
916, 402776800, 0.99512184, 0.04909486, 0.0711229, 0.04757978
917, 402793467, 0.9951359, 0.04899741, 0.07107525, 0.04745703
918, 402810134, 0.9951722, 0.048558287, 0.070972934, 0.0472991
919, 402826801, 0.99520147, 0.047947288, 0.071106106, 0.047106087
920, 402843468, 0.9952344, 0.047062233, 0.07135938, 0.04692083
921, 402860135, 0.99527735, 0.046177864, 0.071475096, 0.046711344
922, 402876802, 0.99529165, 0.04588933, 0.071559116, 0.046564218
923, 402893469, 0.9952861, 0.045934368, 0.071635686, 0.046518512
924, 402910136, 0.9952804, 0.045790438, 0.07179301, 0.046540987
925, 402926803, 0.9952897, 0.045541823, 0.07188516, 0.046446238
926, 402943470, 0.9952943, 0.045520395, 0.07193016, 0.046295825
927, 402960137, 0.9952894, 0.045667622, 0.071974725, 0.046187162
928, 402976804, 0.995286, 0.045565303, 0.07209329, 0.046176624
929, 402993471, 0.99529004, 0.045354012, 0.07222617, 0.04609162
930, 403010138, 0.99529296, 0.045309804, 0.07236414, 0.045854695
931, 403026805, 0.99528253, 0.045462888, 0.07250435, 0.045707468
932, 403043472, 0.9952671, 0.045592494, 0.072681576, 0.045633994
933, 403060139, 0.99525994, 0.045562357, 0.072868235, 0.04552065
934, 403076806, 0.995254, 0.045639038, 0.07305891, 0.045269467
935, 403093473, 0.99523187, 0.045877017, 0.07329708, 0.045126744
936, 403110140, 0.99520713, 0.046103623, 0.07350952, 0.04509616
937, 403126807, 0.99519604, 0.046121877, 0.07371557, 0.044987414
938, 403143474, 0.9951927, 0.04605325, 0.07394976, 0.044744283
939, 403160141, 0.99517417, 0.046174005, 0.074246004, 0.044542365
940, 403176808, 0.9951462, 0.046301626, 0.074573554, 0.044486426
941, 403193475, 0.995135, 0.04627036, 0.07482339, 0.0443492
942, 403210142, 0.99513197, 0.046205454, 0.07505941, 0.044085238
943, 403226809, 0.9951356, 0.04595169, 0.075324565, 0.043815445
944, 403243476, 0.9951461, 0.04535645, 0.07567475, 0.043593712
945, 403260143, 0.9951502, 0.044949062, 0.075993404, 0.04336771
946, 403276810, 0.99512804, 0.04522846, 0.076248355, 0.043137692
947, 403293477, 0.9950869, 0.045981918, 0.07644028, 0.04295146
948, 403310144, 0.9950512, 0.046496615, 0.076682344, 0.04279252
949, 403326811, 0.9950272, 0.046580717, 0.07697481, 0.042734686
950, 403343478, 0.9949944, 0.046807244, 0.077286094, 0.04268907
951, 403360145, 0.9949406, 0.0474508, 0.0776198, 0.042627387
952, 403376812, 0.994888, 0.047969848, 0.07804072, 0.042501684
953, 403393479, 0.9948576, 0.047992412, 0.07850301, 0.04233677
954, 403410146, 0.99483293, 0.04785022, 0.079004936, 0.042146638
955, 403426813, 0.9947975, 0.047806825, 0.079553336, 0.041998006
956, 403443480, 0.9947391, 0.048089277, 0.08013734, 0.041946713
957, 403460147, 0.99467677, 0.048522994, 0.08073622, 0.04177854
958, 403476814, 0.9946274, 0.048805594, 0.08128601, 0.04155637
959, 403493481, 0.99459, 0.04887509, 0.0817995, 0.041365266
960, 403510148, 0.9945561, 0.048806563, 0.08237826, 0.04110598
961, 403526815, 0.99452287, 0.048721477, 0.08295246, 0.040861227
962, 403543482, 0.99448943, 0.048727915, 0.08349275, 0.04056551
963, 403560149, 0.99446607, 0.04869363, 0.0839731, 0.040185086
964, 403576816, 0.99445134, 0.048556335, 0.08439897, 0.039822496
965, 403593483, 0.99443793, 0.048301645, 0.084854305, 0.039497133
966, 403610150, 0.99442303, 0.048174437, 0.085263096, 0.03914431
967, 403626817, 0.9943997, 0.04836508, 0.08561648, 0.038728345
968, 403643484, 0.994373, 0.048631426, 0.085941754, 0.038358733
969, 403660151, 0.99435383, 0.04864098, 0.086292826, 0.038053967
970, 403676818, 0.99434775, 0.04838476, 0.08668123, 0.037656408
971, 403693485, 0.99434817, 0.04807093, 0.08702688, 0.037248056
972, 403710152, 0.9943492, 0.04783688, 0.08730073, 0.03687947
973, 403726819, 0.99434614, 0.047578283, 0.087629534, 0.036513045
974, 403743486, 0.9943451, 0.04727364, 0.08799008, 0.036067262
975, 403760153, 0.99433607, 0.04718257, 0.08832837, 0.035608552
976, 403776820, 0.99432546, 0.04734417, 0.08852815, 0.035187278
977, 403793487, 0.9943291, 0.04733146, 0.08864365, 0.034809325
978, 403810154, 0.9943383, 0.047005787, 0.08882959, 0.03451487
979, 403826821, 0.9943428, 0.04656735, 0.08913511, 0.03418861
980, 403843488, 0.99434745, 0.046265334, 0.0893952, 0.033781875
981, 403860155, 0.99435145, 0.04617374, 0.08952944, 0.033432435
982, 403876822, 0.99435073, 0.045993347, 0.089694135, 0.033262093
983, 403893489, 0.9943614, 0.04552048, 0.08988845, 0.033068303
984, 403910156, 0.99436957, 0.045228895, 0.090021394, 0.032857988
985, 403926823, 0.9943674, 0.045299612, 0.090076104, 0.032677177
986, 403943490, 0.99436533, 0.045390815, 0.09009927, 0.032547712
987, 403960157, 0.9943781, 0.04513592, 0.090144925, 0.032387555
988, 403976824, 0.99439436, 0.04467401, 0.09023844, 0.032265093
989, 403993491, 0.9944029, 0.044480562, 0.090296224, 0.032112855
990, 404010158, 0.9944031, 0.04454387, 0.090317674, 0.03195382
991, 404026825, 0.9944109, 0.04452888, 0.09027835, 0.031844594
992, 404043492, 0.99443007, 0.04418608, 0.090266876, 0.03175249
993, 404060159, 0.9944492, 0.043652907, 0.090324186, 0.031732097
994, 404076826, 0.9944549, 0.04340043, 0.09039856, 0.03168822
995, 404093493, 0.99445426, 0.04356088, 0.09035093, 0.031621575
996, 404110160, 0.99445975, 0.043680526, 0.09025347, 0.03156264
997, 404126827, 0.994479, 0.043314483, 0.090199895, 0.031612847
998, 404143494, 0.9945009, 0.042673778, 0.0902355, 0.031698056
999, 404160161, 0.9945113, 0.042487387, 0.09022044, 0.031663667
1000, 404176828, 0.99450463, 0.04282409, 0.090161934, 0.031587206
1001, 404193495, 0.9944984, 0.043009143, 0.090136066, 0.031604864
1002, 404210162, 0.99450266, 0.042814735, 0.09017343, 0.031624943
1003, 404226829, 0.99451274, 0.042380102, 0.090265825, 0.03163215
1004, 404243496, 0.994515, 0.042093266, 0.09036384, 0.031667043
1005, 404260163, 0.99450934, 0.0418845, 0.09049418, 0.03174851
1006, 404276830, 0.99450874, 0.04164698, 0.09058249, 0.031824484
1007, 404293497, 0.99450624, 0.04155828, 0.09062985, 0.031882394
1008, 404310164, 0.9945022, 0.041502304, 0.090701394, 0.031878993
1009, 404326831, 0.9944943, 0.041513924, 0.0907826, 0.03187948
1010, 404343498, 0.9944816, 0.041545767, 0.09089221, 0.031922113
1011, 404360165, 0.99448305, 0.041343283, 0.09096242, 0.031937864
1012, 404376832, 0.9944914, 0.041038994, 0.09100391, 0.031951733
1013, 404393499, 0.9944917, 0.040907796, 0.091073975, 0.031913087
1014, 404410166, 0.9944875, 0.040901557, 0.09113232, 0.031887144
1015, 404426833, 0.9944882, 0.040811058, 0.09116875, 0.031874664
1016, 404443500, 0.9944987, 0.040421385, 0.091229185, 0.031869676
1017, 404460167, 0.99450827, 0.03991403, 0.09134929, 0.031868722
1018, 404476834, 0.9945117, 0.039410606, 0.091528915, 0.031871874
1019, 404493501, 0.9945068, 0.039022222, 0.09174196, 0.031895444
1020, 404510168, 0.9945007, 0.038712077, 0.091920406, 0.031944986
1021, 404526835, 0.99449646, 0.03847635, 0.09207023, 0.0319311
1022, 404543502, 0.9944886, 0.03829029, 0.09225673, 0.031862166
1023, 404560169, 0.9944756, 0.03817436, 0.09248155, 0.031752497
1024, 404576836, 0.9944672, 0.038110983, 0.09264585, 0.031613816
1025, 404593503, 0.9944517, 0.038143475, 0.092843644, 0.031482387
1026, 404610170, 0.9944362, 0.03804747, 0.09309175, 0.031355016
1027, 404626837, 0.99442995, 0.03782771, 0.09329392, 0.03121926
1028, 404643504, 0.994425, 0.037540227, 0.0934926, 0.031128574
1029, 404660171, 0.994413, 0.037339818, 0.09371446, 0.031085813
1030, 404676838, 0.9943918, 0.03734182, 0.0939418, 0.031071963
1031, 404693505, 0.994371, 0.037549745, 0.09410479, 0.030997137
1032, 404710172, 0.9943515, 0.03774041, 0.09425971, 0.030920539
1033, 404726839, 0.9943452, 0.037592083, 0.094403036, 0.030864974
1034, 404743506, 0.9943467, 0.0371411, 0.09456875, 0.030854292
1035, 404760173, 0.9943438, 0.036884636, 0.094722226, 0.03078628
1036, 404776840, 0.99433357, 0.03693943, 0.094844714, 0.03067092
1037, 404793507, 0.9943208, 0.037078194, 0.0949354, 0.030637037
1038, 404810174, 0.994314, 0.037041318, 0.095018394, 0.030645194
1039, 404826841, 0.99430686, 0.03701454, 0.09510896, 0.030628541
1040, 404843508, 0.99429303, 0.037305273, 0.09515323, 0.03058911
1041, 404860175, 0.99427646, 0.037812166, 0.09512291, 0.030601257
1042, 404876842, 0.99426484, 0.038035277, 0.095145516, 0.030629585
1043, 404893509, 0.9942628, 0.03782874, 0.095225945, 0.030702215
1044, 404910176, 0.9942673, 0.037466336, 0.0952918, 0.030796742
1045, 404926843, 0.9942704, 0.03729453, 0.09534639, 0.030735798
1046, 404943510, 0.99426717, 0.037318967, 0.09536959, 0.030740034
1047, 404960177, 0.99425334, 0.03736705, 0.09547179, 0.030809386
1048, 404976844, 0.9942512, 0.0370136, 0.09561797, 0.030853558
1049, 404993511, 0.9942461, 0.036779206, 0.09574517, 0.030902464
1050, 405010178, 0.994228, 0.036950365, 0.095856816, 0.030936599
1051, 405026845, 0.9942102, 0.037165947, 0.09593191, 0.031018179
1052, 405043512, 0.9941925, 0.03717837, 0.09605328, 0.031194337
1053, 405060179, 0.99418974, 0.036996868, 0.09616572, 0.031147087
1054, 405076846, 0.9941862, 0.036887266, 0.09623798, 0.031167602
1055, 405093513, 0.99416655, 0.03726505, 0.09629163, 0.031180486
1056, 405110180, 0.9941449, 0.037701763, 0.09633395, 0.03121157
1057, 405126847, 0.99412566, 0.03778254, 0.09642381, 0.031451028
1058, 405143514, 0.99411833, 0.037631217, 0.096546575, 0.03148822
1059, 405160181, 0.994121, 0.037419755, 0.09664783, 0.031344127
1060, 405176848, 0.99411106, 0.03747788, 0.096721604, 0.03136215
1061, 405193515, 0.9941018, 0.03757088, 0.096768595, 0.031398848
1062, 405210182, 0.9940992, 0.037626904, 0.096774265, 0.031397358
1063, 405226849, 0.99409556, 0.037666317, 0.096786045, 0.031432647
1064, 405243516, 0.99408, 0.037873518, 0.09685831, 0.031449594
1065, 405260183, 0.99406856, 0.038164917, 0.0968941, 0.03134783
1066, 405276850, 0.9940695, 0.03828389, 0.096939236, 0.031033695
1067, 405293517, 0.99406916, 0.038073704, 0.09699087, 0.031140259
1068, 405310184, 0.9940741, 0.03777718, 0.09707405, 0.031086355
1069, 405326851, 0.99408114, 0.037488062, 0.0971346, 0.03102551
1070, 405343518, 0.994079, 0.03732294, 0.09720901, 0.031055467
1071, 405360185, 0.9940775, 0.037255768, 0.09729763, 0.030909471
1072, 405376852, 0.994077, 0.037120383, 0.09737811, 0.030830469
1073, 405393519, 0.994069, 0.036977235, 0.09744015, 0.03106562
1074, 405410186, 0.99406874, 0.036947228, 0.09749149, 0.030948296
1075, 405426853, 0.99406296, 0.03684596, 0.09755431, 0.031056397
1076, 405443520, 0.9940689, 0.036662553, 0.09766153, 0.030744357
1077, 405460187, 0.9940752, 0.0363116, 0.09777009, 0.030614773
1078, 405476854, 0.9940821, 0.03589226, 0.09785079, 0.030623946
1079, 405493521, 0.99408406, 0.03563595, 0.09785362, 0.030851137
1080, 405510188, 0.99408823, 0.03553279, 0.0978447, 0.030862894
1081, 405526855, 0.99409086, 0.035421114, 0.09785873, 0.030862516
1082, 405543522, 0.9940986, 0.035269104, 0.09785198, 0.030807674
1083, 405560189, 0.9940995, 0.035027437, 0.09782776, 0.03113187
1084, 405576856, 0.99410146, 0.03476297, 0.097766824, 0.031552125
1085, 405593523, 0.9941104, 0.03449757, 0.09771739, 0.031715564
1086, 405610190, 0.99412197, 0.034270998, 0.09765442, 0.03179406
1087, 405626857, 0.99414086, 0.03427272, 0.09754979, 0.031519428
1088, 405643524, 0.99416006, 0.034522388, 0.09739541, 0.031116119
1089, 405660191, 0.9941739, 0.034582138, 0.097241536, 0.031089367
1090, 405676858, 0.9941896, 0.03434414, 0.09715671, 0.03111623
1091, 405693525, 0.9942022, 0.034192383, 0.097079925, 0.03112076
