DeviceTag:,Xsens DOT 4,,,,,,,,,,,,,,,,,
FirmwareVersion:,1.3.0,,,,,,,,,,,,,,,,,
AppVersion:,2020.1.1,,,,,,,,,,,,,,,,,
Measurement Mode:,Inertial Mode - Delta quantities,,,,,,,,,,,,,,,,,
StartTime:,2020-08-20 10:17:14.354 +0200,,,,,,,,,,,,,,,,,
© Xsens Technologies B. V. 2005-2020,,,,,,,,,,,,,,,,,,,
PacketCounter,SampleTimeFine,dQ_W,dQ_X,dQ_Y,dQ_Z,dV[1],dV[2],dV[3]
1, 242230387, 1.0, 8.749309927225113E-5, -7.634051144123077E-5, -2.5130808353424072E-5, 0.013179183006286621, 0.02451986074447632, 0.16209286451339722
2, 242247054, 0.9999999403953552, -1.8291547894477844E-4, -1.7829425632953644E-4, -6.624311208724976E-5, 0.013997197151184082, 0.022450268268585205, 0.16057246923446655
3, 242263721, 1.0, -1.2033246457576752E-4, -1.9399821758270264E-4, -9.765662252902985E-5, 0.012998342514038086, 0.01897907257080078, 0.15976345539093018
4, 242280388, 0.9999998807907104, 4.0094275027513504E-4, -1.6806460916996002E-4, -8.914060890674591E-5, 0.01429140567779541, 0.015517592430114746, 0.15897101163864136
5, 242297055, 0.9999997615814209, 6.347363814711571E-4, 5.7918019592761993E-5, -2.1237321197986603E-4, 0.015949130058288574, 0.024552524089813232, 0.161950945854187
6, 242313722, 0.9999999403953552, -4.682131111621857E-5, -1.434963196516037E-4, -2.4193525314331055E-4, 0.013014376163482666, 0.028304100036621094, 0.162214457988739
7, 242330389, 0.9999999403953552, -3.2911449670791626E-4, -1.6744807362556458E-4, -1.5107542276382446E-4, 0.0135573148727417, 0.021679162979125977, 0.15917760133743286
8, 242347056, 1.0, -7.511302828788757E-5, 6.127823144197464E-5, -1.1107698082923889E-4, 0.01495140790939331, 0.018323123455047607, 0.15828758478164673
9, 242363723, 1.0, -7.88085162639618E-6, 1.1524837464094162E-4, -1.535862684249878E-4, 0.014996528625488281, 0.024510562419891357, 0.16389483213424683
10, 242380390, 1.0, -4.0415674448013306E-5, -2.16728076338768E-4, -3.722868859767914E-5, 0.012845993041992188, 0.02354741096496582, 0.16340100765228271
11, 242397057, 1.0, 1.9563082605600357E-4, -1.256316900253296E-4, 1.951027661561966E-5, 0.013643622398376465, 0.02191394567489624, 0.15901613235473633
12, 242413724, 0.9999999403953552, 3.264574334025383E-4, 2.1480955183506012E-5, 4.957430064678192E-6, 0.015561521053314209, 0.019856512546539307, 0.15852415561676025
13, 242430391, 0.9999999403953552, 3.208192065358162E-4, 8.679646998643875E-5, -1.3834983110427856E-4, 0.01569545269012451, 0.023637235164642334, 0.16211342811584473
14, 242447058, 1.0, 3.7404708564281464E-5, -7.072649896144867E-5, -1.784190535545349E-4, 0.013682425022125244, 0.025542855262756348, 0.16358482837677002
15, 242463725, 1.0, -7.210858166217804E-5, -1.0053440928459167E-4, -6.536394357681274E-5, 0.014321088790893555, 0.020515382289886475, 0.16162532567977905
16, 242480392, 0.9999999403953552, 2.716602757573128E-4, -7.960572838783264E-5, 2.9085204005241394E-6, 0.014375030994415283, 0.01976323127746582, 0.15903890132904053
17, 242497059, 0.9999998807907104, 5.243653431534767E-4, 3.946293145418167E-5, 1.5477649867534637E-5, 0.015202939510345459, 0.019781291484832764, 0.15737032890319824
18, 242513726, 0.9999999403953552, 2.3173820227384567E-4, 1.344522461295128E-4, -7.000379264354706E-5, 0.015935957431793213, 0.026699364185333252, 0.16090476512908936
19, 242530393, 0.9999999403953552, -3.753695636987686E-4, -2.5548040866851807E-5, -8.333101868629456E-5, 0.013391435146331787, 0.026644229888916016, 0.1613156795501709
20, 242547060, 0.9999998211860657, -5.677603185176849E-4, -3.520213067531586E-5, -1.0883249342441559E-4, 0.013617634773254395, 0.022279739379882812, 0.15925592184066772
21, 242563727, 1.0, -1.3492070138454437E-4, 2.0085833966732025E-5, -7.516331970691681E-5, 0.014850020408630371, 0.018258869647979736, 0.1600174903869629
22, 242580394, 0.9999998211860657, 5.756309255957603E-4, 1.74754299223423E-4, -7.041357457637787E-5, 0.015744328498840332, 0.01984792947769165, 0.16115564107894897
23, 242597061, 0.9999998807907104, 4.149852320551872E-4, 1.3573002070188522E-4, -3.36766242980957E-5, 0.013724744319915771, 0.026923298835754395, 0.16216611862182617
24, 242613728, 1.0, -2.1327286958694458E-5, 4.680361598730087E-5, -5.2306801080703735E-5, 0.01376265287399292, 0.024777710437774658, 0.15990662574768066
25, 242630395, 1.0, 2.4599023163318634E-5, 1.2042839080095291E-4, 1.758430153131485E-5, 0.01416170597076416, 0.02120828628540039, 0.1588345766067505
26, 242647062, 0.9999999403953552, 1.2837257236242294E-4, 2.81001441180706E-4, 7.488671690225601E-5, 0.015739023685455322, 0.02101033926010132, 0.16070997714996338
27, 242663729, 1.0, -4.803016781806946E-5, 1.2959446758031845E-4, -5.396641790866852E-5, 0.014028966426849365, 0.027174532413482666, 0.16514670848846436
28, 242680396, 0.9999999403953552, -3.5865418612957E-4, -1.244284212589264E-4, 4.473421722650528E-5, 0.012851357460021973, 0.02440619468688965, 0.16382253170013428
29, 242697063, 1.0, -3.116019070148468E-5, -1.0591559112071991E-4, 1.2770015746355057E-4, 0.013609349727630615, 0.01917445659637451, 0.1607322096824646
30, 242713730, 0.9999998807907104, 4.0040072053670883E-4, 5.715619772672653E-5, 2.1991226822137833E-4, 0.014743983745574951, 0.018802225589752197, 0.1590861678123474
31, 242730397, 0.9999997615814209, 6.707655265927315E-4, 1.5086587518453598E-4, 1.2737419456243515E-4, 0.014718472957611084, 0.022811412811279297, 0.16274577379226685
32, 242747064, 0.9999999403953552, 2.4294015020132065E-4, 4.923250526189804E-5, 7.302407175302505E-5, 0.013250768184661865, 0.02822589874267578, 0.1652364730834961
33, 242763731, 1.0, -7.979199290275574E-5, -9.369850158691406E-5, 6.964150816202164E-5, 0.01277923583984375, 0.02386420965194702, 0.1627974510192871
34, 242780398, 0.9999999403953552, 2.3405533283948898E-4, -1.2557581067085266E-4, 1.3613980263471603E-4, 0.013373196125030518, 0.018643081188201904, 0.1596028208732605
35, 242797065, 0.999999463558197, 0.0010521644726395607, -2.277456223964691E-5, 1.2688804417848587E-4, 0.014731228351593018, 0.017199277877807617, 0.1583240032196045
36, 242813732, 0.9999991059303284, 0.0013367431238293648, 9.314063936471939E-5, 9.599048644304276E-5, 0.013981640338897705, 0.025074422359466553, 0.16192597150802612
37, 242830399, 0.9999996423721313, 8.719349279999733E-4, -1.1576898396015167E-4, -1.679733395576477E-5, 0.012508630752563477, 0.027140319347381592, 0.16357624530792236
38, 242847066, 0.9999997615814209, 6.95657916367054E-4, -1.293811947107315E-4, 2.1723099052906036E-5, 0.013253211975097656, 0.02368861436843872, 0.1607499122619629
39, 242863733, 0.9999995827674866, 8.943481370806694E-4, -1.5847384929656982E-5, 7.497798651456833E-5, 0.013769268989562988, 0.022501111030578613, 0.15864461660385132
40, 242880400, 0.9999997019767761, 7.616560906171799E-4, 1.4559924602508545E-4, 9.648501873016357E-5, 0.014016866683959961, 0.024978697299957275, 0.16025429964065552
41, 242897067, 0.9999998807907104, 4.6595465391874313E-4, 6.01327046751976E-5, 1.3868790119886398E-4, 0.011790812015533447, 0.02826070785522461, 0.162697434425354
42, 242913734, 1.0, 8.429680019617081E-5, -7.029063999652863E-5, 1.0326225310564041E-4, 0.013386785984039307, 0.026079297065734863, 0.16168707609176636
43, 242930401, 1.0, 5.238968878984451E-5, -6.329454481601715E-5, 1.260647550225258E-4, 0.013557255268096924, 0.024275362491607666, 0.16050821542739868
44, 242947068, 1.0, 2.165539190173149E-4, 7.536355406045914E-5, 9.514670819044113E-5, 0.014329612255096436, 0.021652817726135254, 0.16191399097442627
45, 242963735, 1.0, 2.0161177963018417E-4, 7.717590779066086E-5, 1.1904817074537277E-4, 0.013633430004119873, 0.027927875518798828, 0.16365563869476318
46, 242980402, 0.9999999403953552, -2.4698488414287567E-4, -1.0994262993335724E-4, 9.386148303747177E-5, 0.0119362473487854, 0.026828408241271973, 0.16361993551254272
47, 242997069, 0.9999999403953552, -9.530782699584961E-5, -2.035200595855713E-4, 1.55656598508358E-4, 0.012704193592071533, 0.022139012813568115, 0.1610555648803711
48, 243013736, 0.9999999403953552, 2.1443236619234085E-4, -4.921481013298035E-5, 2.365047112107277E-4, 0.014149725437164307, 0.021498501300811768, 0.1610267162322998
49, 243030403, 0.9999998807907104, 4.0554720908403397E-4, -1.1884607374668121E-4, 2.0311493426561356E-4, 0.012849092483520508, 0.024477481842041016, 0.16199851036071777
50, 243047070, 0.9999999403953552, 1.8555205315351486E-4, -1.3400055468082428E-4, 1.688627526164055E-4, 0.012818455696105957, 0.026344656944274902, 0.16261231899261475
51, 243063737, 0.9999999403953552, -1.1574849486351013E-4, -2.2043287754058838E-4, 1.2276601046323776E-4, 0.012889266014099121, 0.0255812406539917, 0.16156870126724243
52, 243080404, 0.9999999403953552, -2.627875655889511E-4, -1.4578178524971008E-4, 5.8409757912158966E-5, 0.01401442289352417, 0.022588670253753662, 0.1614125370979309
53, 243097071, 1.0, 1.9283033907413483E-5, -9.647384285926819E-5, 4.15043905377388E-5, 0.013681173324584961, 0.021598100662231445, 0.1623551845550537
54, 243113738, 0.9999999403953552, 3.38568352162838E-4, -1.0448694229125977E-4, 9.035971015691757E-5, 0.012436270713806152, 0.023589730262756348, 0.16049140691757202
55, 243130405, 0.9999999403953552, 3.6990735679864883E-4, -8.0890953540802E-5, 5.5140815675258636E-5, 0.012777507305145264, 0.02320575714111328, 0.1592257022857666
56, 243147072, 0.9999999403953552, 2.817148342728615E-4, -8.458271622657776E-5, 1.3216398656368256E-5, 0.012896895408630371, 0.022781431674957275, 0.1605314016342163
57, 243163739, 0.9999998807907104, 4.6747270971536636E-4, -1.2224912643432617E-4, 2.091098576784134E-5, 0.013264179229736328, 0.023585975170135498, 0.15977323055267334
58, 243180406, 0.9999998807907104, 4.6669039875268936E-4, -2.8431415557861328E-5, 8.611474186182022E-5, 0.01369410753250122, 0.024046361446380615, 0.15897387266159058
59, 243197073, 1.0, 2.2940989583730698E-4, 8.735153824090958E-5, -3.8564205169677734E-5, 0.01421511173248291, 0.025470316410064697, 0.16001790761947632
60, 243213740, 1.0, -1.976843923330307E-4, -3.7167221307754517E-5, -1.4058314263820648E-4, 0.013300955295562744, 0.02702254056930542, 0.16198313236236572
61, 243230407, 0.9999999403953552, -2.3214705288410187E-4, -1.1735968291759491E-4, -7.684342563152313E-5, 0.01393139362335205, 0.02296006679534912, 0.16153240203857422
62, 243247074, 1.0, 1.541590318083763E-4, -5.0300732254981995E-5, -5.0105154514312744E-5, 0.012436449527740479, 0.02298516035079956, 0.16044598817825317
63, 243263741, 0.9999999403953552, 3.4591276198625565E-4, 7.656402885913849E-6, -7.467344403266907E-6, 0.014224529266357422, 0.02160954475402832, 0.16119349002838135
64, 243280408, 0.9999999403953552, 3.0479300767183304E-4, -4.013814032077789E-5, -8.752942085266113E-5, 0.013599276542663574, 0.027383804321289062, 0.162936270236969
65, 243297075, 0.9999999403953552, -1.9449740648269653E-4, -1.752357929944992E-4, -6.338395178318024E-5, 0.013480842113494873, 0.027104496955871582, 0.16229063272476196
66, 243313742, 0.9999999403953552, -2.650003880262375E-4, -1.6671232879161835E-4, 1.239590346813202E-6, 0.013051271438598633, 0.02366727590560913, 0.16034448146820068
67, 243330409, 1.0, -6.507337093353271E-5, -7.405132055282593E-5, -2.045370638370514E-5, 0.014044463634490967, 0.02272212505340576, 0.16026264429092407
68, 243347076, 1.0, 6.617512553930283E-5, -1.103375107049942E-4, -2.9552727937698364E-5, 0.01323556900024414, 0.02509230375289917, 0.1621333360671997
69, 243363743, 0.9999999403953552, 3.727087751030922E-4, -1.55007466673851E-4, 3.992579877376556E-6, 0.01308220624923706, 0.022667646408081055, 0.15980470180511475
70, 243380410, 0.9999998807907104, 5.415389314293861E-4, -1.1965632438659668E-5, 3.239791840314865E-5, 0.01361161470413208, 0.023989737033843994, 0.15917199850082397
71, 243397077, 0.9999999403953552, 2.8183404356241226E-4, 9.369570761919022E-5, -5.297362804412842E-5, 0.014473915100097656, 0.02644670009613037, 0.15847313404083252
72, 243413744, 0.9999999403953552, -2.8485991060733795E-4, 5.846936255693436E-5, -1.3393722474575043E-4, 0.013488352298736572, 0.030197739601135254, 0.16168642044067383
73, 243430411, 0.9999998807907104, -5.117431282997131E-4, -1.3002194464206696E-4, -4.5457854866981506E-5, 0.012193083763122559, 0.024619221687316895, 0.15969258546829224
74, 243447078, 1.0, -9.872019290924072E-8, 5.00120222568512E-7, 9.772274643182755E-5, 0.013038814067840576, 0.020315170288085938, 0.1584448218345642
75, 243463745, 0.9999999403953552, 3.248164430260658E-4, 1.779971644282341E-4, 6.550829857587814E-5, 0.016010701656341553, 0.022803306579589844, 0.16160058975219727
76, 243480412, 0.9999999403953552, 3.5669002681970596E-4, 3.045424818992615E-7, 2.5476329028606415E-5, 0.012902796268463135, 0.028358399868011475, 0.16400504112243652
77, 243497079, 1.0, 5.14322891831398E-5, -1.1478550732135773E-4, 3.0829571187496185E-5, 0.013433516025543213, 0.024137496948242188, 0.16129142045974731
78, 243513746, 1.0, 2.023288980126381E-4, -1.1857040226459503E-4, 2.359692007303238E-5, 0.014072537422180176, 0.022432446479797363, 0.15966814756393433
79, 243530413, 0.9999999403953552, 3.6337319761514664E-4, 1.9756145775318146E-5, 4.776753485202789E-6, 0.015249013900756836, 0.02289062738418579, 0.1600196361541748
80, 243547080, 1.0, 7.943343371152878E-5, -1.2798234820365906E-5, -1.7184577882289886E-4, 0.015218198299407959, 0.027103841304779053, 0.16349953413009644
81, 243563747, 0.9999999403953552, -2.1464377641677856E-4, -1.438520848751068E-4, -2.3422017693519592E-4, 0.013598024845123291, 0.02690976858139038, 0.16270267963409424
82, 243580414, 0.9999999403953552, -6.505288183689117E-5, -2.2455863654613495E-4, -1.2069009244441986E-4, 0.012635231018066406, 0.023442387580871582, 0.1612929105758667
83, 243597081, 0.9999998211860657, 6.11904077231884E-4, -1.4850683510303497E-4, 4.481617361307144E-5, 0.013403475284576416, 0.01958489418029785, 0.15854984521865845
84, 243613748, 0.9999997019767761, 7.569128647446632E-4, 4.72264364361763E-5, 5.7241879403591156E-5, 0.015447378158569336, 0.023991167545318604, 0.16020548343658447
85, 243630415, 0.9999999403953552, 2.4721864610910416E-4, -8.083321154117584E-5, -9.336508810520172E-5, 0.013753116130828857, 0.03073209524154663, 0.16381365060806274
86, 243647082, 0.9999999403953552, -1.8954649567604065E-4, -2.035629004240036E-4, -1.6659125685691833E-4, 0.013237059116363525, 0.025201797485351562, 0.16214585304260254
87, 243663749, 0.9999999403953552, 3.3761095255613327E-4, -1.596994698047638E-4, -1.2976862490177155E-4, 0.012809932231903076, 0.019807159900665283, 0.15995532274246216
88, 243680416, 0.9999992251396179, 0.0012608999386429787, -7.294677197933197E-5, -4.6016648411750793E-5, 0.014478981494903564, 0.019369840621948242, 0.16071182489395142
89, 243697083, 0.9999986290931702, 0.0016395328566432, -4.104897379875183E-5, -7.999502122402191E-5, 0.012770593166351318, 0.027583658695220947, 0.16195285320281982
90, 243713750, 0.9999995231628418, 9.329309687018394E-4, -1.2375973165035248E-4, -1.4960207045078278E-4, 0.013095736503601074, 0.03218954801559448, 0.1612950563430786
91, 243730417, 1.0, -3.092736005783081E-5, -1.287125051021576E-4, -1.9143149256706238E-4, 0.012961804866790771, 0.030807554721832275, 0.1603526473045349
92, 243747084, 0.9999998807907104, -4.0336698293685913E-4, -9.85320657491684E-5, -1.6146525740623474E-4, 0.014363408088684082, 0.027054190635681152, 0.1598072648048401
93, 243763751, 0.9999999403953552, -3.075208514928818E-4, -4.449114203453064E-5, -1.3189390301704407E-4, 0.013297975063323975, 0.02661299705505371, 0.1599770188331604
94, 243780418, 1.0, -1.2011639773845673E-4, -6.370432674884796E-5, 3.877375274896622E-5, 0.012393712997436523, 0.026548147201538086, 0.1594504714012146
95, 243797085, 1.0, 3.921333700418472E-5, 3.671180456876755E-5, 1.5991833060979843E-4, 0.013031601905822754, 0.02753615379333496, 0.15878301858901978
96, 243813752, 0.9999999403953552, -2.5502219796180725E-4, 7.803086191415787E-5, 2.5635305792093277E-4, 0.0135117769241333, 0.029714584350585938, 0.15991520881652832
97, 243830419, 0.9999997615814209, -5.734674632549286E-4, 1.674611121416092E-5, 3.5441014915704727E-4, 0.012942910194396973, 0.028959453105926514, 0.1590055227279663
98, 243847086, 0.9999995827674866, -7.695108652114868E-4, 1.273052766919136E-4, 4.336247220635414E-4, 0.01377415657043457, 0.026288211345672607, 0.15861040353775024
99, 243863753, 0.9999995827674866, -7.009059190750122E-4, 1.5436019748449326E-4, 6.142882630228996E-4, 0.012927472591400146, 0.028082191944122314, 0.1604936122894287
100, 243880420, 0.9999995827674866, -4.779081791639328E-4, 7.341895252466202E-5, 7.446864619851112E-4, 0.013202011585235596, 0.02442455291748047, 0.1598932147026062
101, 243897087, 0.9999995827674866, -1.1033937335014343E-4, 1.8493179231882095E-4, 8.892929181456566E-4, 0.013676583766937256, 0.026313960552215576, 0.15916335582733154
102, 243913754, 0.9999996423721313, -2.710781991481781E-4, 2.0536500960588455E-4, 8.057067170739174E-4, 0.013644158840179443, 0.027797579765319824, 0.16191649436950684
103, 243930421, 0.9999996423721313, -5.336925387382507E-4, 1.1606421321630478E-4, 6.424421444535255E-4, 0.013051211833953857, 0.02716892957687378, 0.16337698698043823
104, 243947088, 0.9999997019767761, -5.263630300760269E-4, 3.453996032476425E-5, 5.356734618544579E-4, 0.013384222984313965, 0.02481907606124878, 0.1641443371772766
105, 243963755, 0.9999998807907104, -2.524666488170624E-4, -1.387670636177063E-5, 4.603089764714241E-4, 0.013795554637908936, 0.019223690032958984, 0.163662850856781
106, 243980422, 0.9999999403953552, 3.14527191221714E-4, -1.3982877135276794E-5, 2.5236885994672775E-4, 0.014630317687988281, 0.02219367027282715, 0.16291749477386475
107, 243997089, 0.9999998807907104, 4.713321104645729E-4, -1.650191843509674E-4, 1.0806787759065628E-4, 0.012276530265808105, 0.022215962409973145, 0.163740873336792
108, 244013756, 0.9999998211860657, 5.912957713007927E-4, -1.950729638338089E-4, -2.6572495698928833E-5, 0.014532148838043213, 0.020879089832305908, 0.16358089447021484
109, 244030423, 0.9999998211860657, 5.473056808114052E-4, -2.5866925716400146E-4, -6.613321602344513E-5, 0.014206409454345703, 0.026599586009979248, 0.16430044174194336
110, 244047090, 0.9999998807907104, 2.1666567772626877E-4, -3.432761877775192E-4, -1.4443695545196533E-4, 0.013292133808135986, 0.024002432823181152, 0.16209882497787476
111, 244063757, 0.9999998807907104, 3.0142907053232193E-4, -3.660731017589569E-4, -8.791498839855194E-5, 0.01186978816986084, 0.02252495288848877, 0.1599012017250061
112, 244080424, 0.9999998807907104, 4.5710522681474686E-4, -2.0089000463485718E-4, -1.457706093788147E-5, 0.014396131038665771, 0.02153092622756958, 0.15932899713516235
113, 244097091, 0.9999998807907104, 4.330696538090706E-4, -2.1539628505706787E-4, 7.553305476903915E-5, 0.014312326908111572, 0.026958584785461426, 0.16175532341003418
114, 244113758, 0.9999999403953552, 1.7199385911226273E-4, -2.4208426475524902E-4, 1.4127511531114578E-4, 0.0130043625831604, 0.026368916034698486, 0.15988051891326904
115, 244130425, 0.9999999403953552, 1.947367563843727E-4, -2.4692900478839874E-4, 1.3001542538404465E-4, 0.011997878551483154, 0.02388697862625122, 0.1581992506980896
116, 244147092, 0.9999998807907104, 4.4021662324666977E-4, -1.0139681398868561E-4, 1.3271253556013107E-4, 0.015133678913116455, 0.02273958921432495, 0.1601082682609558
117, 244163759, 0.9999997615814209, 6.445674225687981E-4, -1.2602657079696655E-4, 1.4670100063085556E-4, 0.013781845569610596, 0.027773916721343994, 0.16205841302871704
118, 244180426, 0.9999998807907104, 3.654221072793007E-4, -1.6636960208415985E-4, 2.487720921635628E-4, 0.012848913669586182, 0.028480470180511475, 0.1611487865447998
119, 244197093, 0.9999999403953552, 1.1437293142080307E-4, -1.8240325152873993E-4, 2.50217504799366E-4, 0.012727439403533936, 0.026893258094787598, 0.1590593457221985
120, 244213760, 0.9999999403953552, 1.0489951819181442E-4, -1.6055814921855927E-4, 2.714144065976143E-4, 0.013613522052764893, 0.02521294355392456, 0.15852981805801392
121, 244230427, 0.9999999403953552, 1.4260504394769669E-4, -4.1268765926361084E-5, 2.84380279481411E-4, 0.01480168104171753, 0.02639669179916382, 0.161515474319458
122, 244247094, 0.9999999403953552, -6.611272692680359E-5, -1.0835379362106323E-4, 2.6979390531778336E-4, 0.013396203517913818, 0.031031310558319092, 0.16238939762115479
123, 244263761, 0.9999998807907104, -3.1371787190437317E-4, -1.9028037786483765E-4, 3.1473953276872635E-4, 0.013237595558166504, 0.026168107986450195, 0.1602436900138855
124, 244280428, 0.9999999403953552, -1.8017366528511047E-5, -1.5555880963802338E-4, 2.8909649699926376E-4, 0.013645470142364502, 0.022597968578338623, 0.1580321192741394
125, 244297095, 0.9999999403953552, 3.0756834894418716E-4, -7.579848170280457E-5, 1.86174176633358E-4, 0.014950394630432129, 0.02379518747329712, 0.15930217504501343
126, 244313762, 0.9999999403953552, 3.7427525967359543E-4, -6.0055404901504517E-5, 1.6006175428628922E-4, 0.014278769493103027, 0.025901377201080322, 0.16071557998657227
127, 244330429, 1.0, 3.757607191801071E-5, -6.729736924171448E-5, 1.2221280485391617E-4, 0.01465296745300293, 0.026102542877197266, 0.16028237342834473
128, 244347096, 1.0, -1.135021448135376E-4, -7.018260657787323E-5, 8.2395039498806E-5, 0.014104247093200684, 0.02404695749282837, 0.15881317853927612
129, 244363763, 1.0, 1.1790823191404343E-4, -6.184354424476624E-5, 1.0552816092967987E-5, 0.014590620994567871, 0.022475123405456543, 0.15826374292373657
130, 244380430, 0.9999999403953552, 3.230879083275795E-4, 4.826020449399948E-5, -3.962963819503784E-5, 0.014885365962982178, 0.02415543794631958, 0.1585777997970581
131, 244397097, 1.0, 1.3204384595155716E-4, 5.212705582380295E-5, -6.379559636116028E-6, 0.014952301979064941, 0.027675211429595947, 0.15958988666534424
132, 244413764, 1.0, -1.820884644985199E-4, 5.269143730401993E-5, -2.923235297203064E-5, 0.014527201652526855, 0.025754034519195557, 0.15913647413253784
133, 244430431, 1.0, -1.4234520494937897E-4, 1.2847688049077988E-4, -3.7182122468948364E-5, 0.015141069889068604, 0.026204824447631836, 0.15850681066513062
134, 244447098, 0.9999999403953552, -2.764277160167694E-4, 1.337183639407158E-4, -6.792508065700531E-5, 0.014820992946624756, 0.023488759994506836, 0.16019666194915771
135, 244463765, 0.9999999403953552, -2.1189823746681213E-4, 1.6643572598695755E-4, -3.962032496929169E-5, 0.014630734920501709, 0.02683281898498535, 0.1607852578163147
136, 244480432, 0.9999999403953552, -3.1339190900325775E-4, 1.547178253531456E-4, -1.0153837502002716E-4, 0.01393979787826538, 0.025604307651519775, 0.16103380918502808
137, 244497099, 1.0, -7.672049105167389E-5, 6.422866135835648E-5, -1.2374483048915863E-4, 0.013046622276306152, 0.023563861846923828, 0.16065293550491333
138, 244513766, 0.9999999403953552, 3.2260362058877945E-4, 1.316918060183525E-4, -8.187815546989441E-5, 0.014350533485412598, 0.021914660930633545, 0.1592152714729309
139, 244530433, 0.9999999403953552, 2.9763113707304E-4, 1.9802618771791458E-4, -1.0184384882450104E-4, 0.015684902667999268, 0.027117013931274414, 0.1591385006904602
140, 244547100, 0.9999999403953552, -1.9419565796852112E-4, 2.2118445485830307E-4, -1.9860826432704926E-4, 0.01431429386138916, 0.027222275733947754, 0.16090989112854004
141, 244563767, 0.9999999403953552, -2.12155282497406E-4, 1.267334446310997E-4, -2.4244002997875214E-4, 0.012726902961730957, 0.02439957857131958, 0.16045260429382324
142, 244580434, 0.9999999403953552, 2.570962533354759E-4, 1.7242226749658585E-4, -1.5350617468357086E-4, 0.014104127883911133, 0.0208590030670166, 0.15861916542053223
143, 244597101, 0.9999997019767761, 6.556184962391853E-4, 3.152163699269295E-4, -1.102108508348465E-4, 0.014243364334106445, 0.02416515350341797, 0.15739965438842773
144, 244613768, 0.9999998807907104, 2.1467264741659164E-4, 3.5810191184282303E-4, -1.920759677886963E-4, 0.014544546604156494, 0.03084123134613037, 0.15829819440841675
145, 244630435, 0.9999998807907104, -4.1336938738822937E-4, 2.5496911257505417E-4, -2.068113535642624E-4, 0.01180952787399292, 0.027812540531158447, 0.15814054012298584
146, 244647102, 0.9999999403953552, -1.5128590166568756E-4, 3.212122246623039E-4, -6.108172237873077E-5, 0.01216733455657959, 0.022769570350646973, 0.15715265274047852
147, 244663769, 0.9999998211860657, 2.615666016936302E-4, 5.176691338419914E-4, 1.3469625264406204E-4, 0.01424551010131836, 0.023084402084350586, 0.15632176399230957
148, 244680436, 0.9999997615814209, 7.037725299596786E-5, 6.411569193005562E-4, 1.2881960719823837E-4, 0.013649225234985352, 0.03163176774978638, 0.15729111433029175
149, 244697103, 0.9999996423721313, -6.380677223205566E-4, 5.461284890770912E-4, 1.525217667222023E-4, 0.01191014051437378, 0.02844291925430298, 0.1567009687423706
150, 244713770, 0.9999996423721313, -4.999525845050812E-4, 6.432505324482918E-4, 2.5260355323553085E-4, 0.01213836669921875, 0.024060189723968506, 0.15374380350112915
151, 244730437, 0.9999995827674866, -1.410897821187973E-4, 8.480241522192955E-4, 3.075459972023964E-4, 0.013025641441345215, 0.02174299955368042, 0.15278422832489014
152, 244747104, 0.999999463558197, 1.9393209367990494E-4, 9.605204686522484E-4, 2.827318385243416E-4, 0.012356042861938477, 0.025258302688598633, 0.15446871519088745
153, 244763771, 0.9999993443489075, 4.5061949640512466E-4, 9.693978354334831E-4, 3.6803167313337326E-4, 0.01124030351638794, 0.023221313953399658, 0.15225166082382202
154, 244780438, 0.9999990463256836, 6.018159911036491E-4, 0.0012045158073306084, 3.111744299530983E-4, 0.012371242046356201, 0.023086965084075928, 0.14956235885620117
155, 244797105, 0.9999988079071045, 4.3564941734075546E-4, 0.001485477201640606, 2.026064321398735E-4, 0.012398779392242432, 0.024896979331970215, 0.1498623490333557
156, 244813772, 0.9999985694885254, 2.4726707488298416E-4, 0.0016501089558005333, 1.427261158823967E-4, 0.01158970594406128, 0.026161015033721924, 0.15151727199554443
157, 244830439, 0.9999983310699463, 8.499529212713242E-5, 0.0018233852460980415, 2.528829500079155E-4, 0.011370599269866943, 0.023838698863983154, 0.1503550410270691
158, 244847106, 0.9999978542327881, 8.03070142865181E-5, 0.002061310224235058, 2.4018902331590652E-4, 0.010610520839691162, 0.023830056190490723, 0.1489984393119812
159, 244863773, 0.9999974370002747, -6.940402090549469E-5, 0.0022576553747057915, 1.9550789147615433E-4, 0.010516643524169922, 0.025896430015563965, 0.14987123012542725
160, 244880440, 0.9999971389770508, -3.2673589885234833E-4, 0.0023731132969260216, 1.6228202730417252E-4, 0.009692549705505371, 0.02624797821044922, 0.15329331159591675
161, 244897107, 0.9999969601631165, -2.8679147362709045E-4, 0.0024288417771458626, 2.2695865482091904E-4, 0.007652223110198975, 0.02504020929336548, 0.15131455659866333
162, 244913774, 0.9999964833259583, -1.612287014722824E-4, 0.002647773362696171, 1.8290337175130844E-4, 0.0076888203620910645, 0.023685216903686523, 0.15033215284347534
163, 244930441, 0.999995768070221, -3.063920885324478E-4, 0.002885994501411915, 9.476859122514725E-5, 0.008304774761199951, 0.0257948637008667, 0.15467292070388794
164, 244947108, 0.999995768070221, -5.133766680955887E-4, 0.0028633465990424156, 1.0669510811567307E-4, 0.006175696849822998, 0.029374301433563232, 0.15665996074676514
165, 244963775, 0.9999954700469971, -6.493665277957916E-4, 0.0029288427904248238, 2.6273075491189957E-4, 0.004340052604675293, 0.02433490753173828, 0.15447431802749634
166, 244980442, 0.9999952912330627, -2.8188712894916534E-4, 0.003038463182747364, 2.4018343538045883E-4, 0.0026044845581054688, 0.021984517574310303, 0.1543048620223999
167, 244997109, 0.9999949336051941, 2.496754750609398E-4, 0.003161168657243252, 2.820054069161415E-4, 0.0021529197692871094, 0.02347385883331299, 0.1552743911743164
168, 245013776, 0.9999946355819702, 3.4996215254068375E-4, 0.003248254768550396, 2.5078747421503067E-4, 0.00151139497756958, 0.025973021984100342, 0.15967422723770142
169, 245030443, 0.9999947547912598, 1.9268598407506943E-4, 0.0032088113948702812, 3.5919900983572006E-4, 8.969306945800781E-4, 0.02594214677810669, 0.15810996294021606
170, 245047110, 0.9999945163726807, 1.2390408664941788E-4, 0.003285595215857029, 3.259414806962013E-4, -0.0011687278747558594, 0.026427745819091797, 0.15219062566757202
171, 245063777, 0.9999936819076538, 2.055009827017784E-4, 0.0035277316346764565, 3.392258659005165E-4, -0.002598881721496582, 0.024332702159881592, 0.14842146635055542
172, 245080444, 0.9999924302101135, 1.5800166875123978E-4, 0.0038766125217080116, 3.054691478610039E-4, -0.0029924511909484863, 0.02546870708465576, 0.15380018949508667
173, 245097111, 0.9999924898147583, 2.213669940829277E-4, 0.0038447650149464607, 4.720417782664299E-4, -0.004884123802185059, 0.029038310050964355, 0.15519577264785767
174, 245113778, 0.9999920725822449, -4.3534301221370697E-4, 0.0039016688242554665, 6.240317597985268E-4, -0.006918787956237793, 0.026873290538787842, 0.15236276388168335
175, 245130445, 0.999991238117218, -7.791873067617416E-4, 0.0040630167350173, 6.496617570519447E-4, -0.006142675876617432, 0.02488023042678833, 0.1520826816558838
176, 245147112, 0.9999907612800598, -5.63155859708786E-4, 0.004226197488605976, 5.347141996026039E-4, -0.004889369010925293, 0.022018253803253174, 0.15525323152542114
177, 245163779, 0.9999902248382568, -3.4330226480960846E-4, 0.004390026442706585, 3.424258902668953E-4, -0.0065264105796813965, 0.028071582317352295, 0.16024917364120483
178, 245180446, 0.9999908804893494, -5.922764539718628E-4, 0.00420441385358572, 4.584388807415962E-4, -0.013543426990509033, 0.025407373905181885, 0.16314727067947388
179, 245197113, 0.9999912977218628, -3.148876130580902E-4, 0.0041091712191700935, 6.400728598237038E-4, -0.012419342994689941, 0.022837281227111816, 0.161218523979187
180, 245213780, 0.999990701675415, 1.6858521848917007E-4, 0.004227721132338047, 8.113281801342964E-4, -0.012956440448760986, 0.023253142833709717, 0.1598019003868103
181, 245230447, 0.9999904632568359, 3.1127315014600754E-4, 0.004312676377594471, 6.419578567147255E-4, -0.014420747756958008, 0.0245324969291687, 0.1619550585746765
182, 245247114, 0.9999911785125732, -6.42966479063034E-5, 0.004172676242887974, 5.115019157528877E-4, -0.01735168695449829, 0.02925288677215576, 0.16702276468276978
183, 245263781, 0.9999920129776001, -1.1023133993148804E-4, 0.003947318531572819, 6.052413955330849E-4, -0.01966458559036255, 0.02420485019683838, 0.1661357879638672
184, 245280448, 0.9999918937683105, 3.6477576941251755E-4, 0.003962629474699497, 6.449175998568535E-4, -0.02026808261871338, 0.02175772190093994, 0.1618640422821045
185, 245297115, 0.999991238117218, 4.706522449851036E-4, 0.0041104769334197044, 6.157560274004936E-4, -0.020744740962982178, 0.025852560997009277, 0.16274285316467285
186, 245313782, 0.9999918341636658, -5.931593477725983E-5, 0.00401508342474699, 4.598041996359825E-4, -0.02300286293029785, 0.0282135009765625, 0.1652688980102539
187, 245330449, 0.9999929070472717, -3.797430545091629E-4, 0.0037096114829182625, 5.264738574624062E-4, -0.026594460010528564, 0.026713788509368896, 0.16514742374420166
188, 245347116, 0.9999931454658508, 1.2007448822259903E-4, 0.003627539612352848, 7.04730860888958E-4, -0.026798605918884277, 0.01875913143157959, 0.16261470317840576
189, 245363783, 0.9999922513961792, 6.20880164206028E-4, 0.0038278503343462944, 7.137199863791466E-4, -0.025931715965270996, 0.02556788921356201, 0.16034644842147827
190, 245380450, 0.9999927878379822, 1.8358509987592697E-4, 0.00375381950289011, 5.278708413243294E-4, -0.030108869075775146, 0.03250342607498169, 0.158214271068573
191, 245397117, 0.9999927878379822, -5.940999835729599E-4, 0.003711252473294735, 5.329744890332222E-4, -0.03238499164581299, 0.022747695446014404, 0.16025584936141968
192, 245413784, 0.9999927282333374, -1.540686935186386E-4, 0.003757457248866558, 6.505483761429787E-4, -0.02945655584335327, 0.020574867725372314, 0.15985476970672607
193, 245430451, 0.999992311000824, -1.769624650478363E-4, 0.003880131058394909, 5.905972793698311E-4, -0.028738439083099365, 0.025844812393188477, 0.16172176599502563
194, 245447118, 0.9999929666519165, -6.022825837135315E-4, 0.003672991879284382, 4.116920754313469E-4, -0.03378385305404663, 0.028387069702148438, 0.15897685289382935
195, 245463785, 0.999993085861206, -6.367117166519165E-4, 0.003650571219623089, 3.845030441880226E-4, -0.035886168479919434, 0.021410107612609863, 0.15537595748901367
196, 245480452, 0.9999924898147583, -1.5271082520484924E-4, 0.003846806474030018, 4.64768148958683E-4, -0.0370941162109375, 0.018919169902801514, 0.1581776738166809
197, 245497119, 0.9999925494194031, 3.4900661557912827E-4, 0.003810756839811802, 4.680817946791649E-4, -0.035474181175231934, 0.020916640758514404, 0.16029196977615356
198, 245513786, 0.9999930262565613, 2.0040851086378098E-4, 0.003717794083058834, 3.322744742035866E-4, -0.03675520420074463, 0.030361950397491455, 0.1610879898071289
199, 245530453, 0.9999938607215881, -4.936046898365021E-4, 0.0034371288493275642, 4.076054319739342E-4, -0.04089850187301636, 0.02589207887649536, 0.15525829792022705
200, 245547120, 0.9999930262565613, -3.837738186120987E-4, 0.0036792056635022163, 5.615940317511559E-4, -0.04251503944396973, 0.019326984882354736, 0.1527755856513977
201, 245563787, 0.999992311000824, -4.1468068957328796E-5, 0.003871898166835308, 6.540408357977867E-4, -0.041512370109558105, 0.01883518695831299, 0.15710830688476562
202, 245580454, 0.9999926090240479, 1.3139937072992325E-4, 0.003780827857553959, 6.451504305005074E-4, -0.040014564990997314, 0.02866142988204956, 0.15810859203338623
203, 245597121, 0.999993085861206, -3.6945194005966187E-4, 0.003674129955470562, 4.955297335982323E-4, -0.045305848121643066, 0.02606642246246338, 0.15114259719848633
204, 245613788, 0.9999921917915344, -5.181264132261276E-4, 0.0038884831592440605, 4.375660791993141E-4, -0.047963082790374756, 0.021749436855316162, 0.1467084288597107
205, 245630455, 0.9999920129776001, 9.750016033649445E-6, 0.003958257846534252, 5.887756124138832E-4, -0.04884767532348633, 0.014515578746795654, 0.15029054880142212
206, 245647122, 0.999990701675415, 0.0011144885793328285, 0.004090248607099056, 7.528914138674736E-4, -0.04680585861206055, 0.017370104789733887, 0.15267527103424072
207, 245663789, 0.9999908208847046, 0.001330445520579815, 0.0039971740916371346, 8.092662319540977E-4, -0.049591124057769775, 0.023142635822296143, 0.1502234935760498
208, 245680456, 0.9999905228614807, 0.0010631261393427849, 0.0041649313643574715, 7.035685703158379E-4, -0.050987303256988525, 0.02140188217163086, 0.14295601844787598
209, 245697123, 0.9999895095825195, 9.630126878619194E-4, 0.004450797103345394, 5.479110404849052E-4, -0.05342733860015869, 0.022114992141723633, 0.14507079124450684
210, 245713790, 0.999988853931427, 7.923310622572899E-4, 0.004631188698112965, 4.021571949124336E-4, -0.051026344299316406, 0.016979217529296875, 0.1491861343383789
211, 245730457, 0.9999881386756897, 3.6003999412059784E-5, 0.004866552539169788, 1.0467134416103363E-5, -0.048906564712524414, 0.03218656778335571, 0.15685641765594482
212, 245747124, 0.9999896287918091, -0.0013445019721984863, 0.00435574259608984, -6.225146353244781E-5, -0.0557979941368103, 0.028880655765533447, 0.15292483568191528
213, 245763791, 0.9999892115592957, -0.0013919156044721603, 0.004427743144333363, -2.5961361825466156E-4, -0.05762839317321777, 0.018623650074005127, 0.15007013082504272
214, 245780458, 0.9999895691871643, -6.344243884086609E-4, 0.004523164592683315, -1.324005424976349E-4, -0.05888563394546509, 0.0177040696144104, 0.15327221155166626
215, 245797125, 0.9999889135360718, -1.3002566993236542E-4, 0.0046995943412184715, -1.5374086797237396E-4, -0.057663023471832275, 0.02336651086807251, 0.1535664200782776
216, 245813792, 0.9999898076057434, -8.685160428285599E-4, 0.004418966360390186, -2.450067549943924E-4, -0.060318708419799805, 0.03677248954772949, 0.157162606716156
217, 245830459, 0.9999896287918091, -0.0019065942615270615, 0.004125575534999371, -2.1691061556339264E-4, -0.0654914379119873, 0.026385962963104248, 0.15582317113876343
218, 245847126, 0.9999912977218628, -0.001222139224410057, 0.003986486233770847, -7.152929902076721E-5, -0.06537050008773804, 0.021663546562194824, 0.15239006280899048
219, 245863793, 0.9999920129776001, 4.482455551624298E-6, 0.003989263437688351, 2.164812758564949E-4, -0.06877297163009644, 0.016688823699951172, 0.1495877504348755
220, 245880460, 0.9999911189079285, 7.702885195612907E-4, 0.0041383178904652596, 2.3899506777524948E-4, -0.06732678413391113, 0.023489832878112793, 0.14733445644378662
221, 245897127, 0.9999915957450867, 4.2964983731508255E-4, 0.004069891758263111, 1.8165353685617447E-4, -0.06868642568588257, 0.027904987335205078, 0.14805394411087036
222, 245913794, 0.999992311000824, 1.9458774477243423E-4, 0.003919131122529507, 1.105116680264473E-4, -0.07071852684020996, 0.026884734630584717, 0.14595699310302734
223, 245930461, 0.9999920725822449, 1.5800539404153824E-4, 0.003973952494561672, 2.53467820584774E-4, -0.0722079873085022, 0.018620848655700684, 0.14573609828948975
224, 245947128, 0.9999911189079285, 9.727878496050835E-4, 0.0040878718718886375, 2.7415622025728226E-4, -0.07012325525283813, 0.015733063220977783, 0.14572662115097046
225, 245963795, 0.9999903440475464, 0.0011180965229868889, 0.004242020659148693, 1.1336151510477066E-4, -0.06914925575256348, 0.025954246520996094, 0.1451067328453064
226, 245980462, 0.9999907612800598, -3.732331097126007E-4, 0.004271690733730793, -2.3390352725982666E-4, -0.07195109128952026, 0.034976422786712646, 0.14735984802246094
227, 245997129, 0.9999896287918091, -0.002195941284298897, 0.003977256827056408, -2.1259300410747528E-4, -0.07609671354293823, 0.02699941396713257, 0.14538812637329102
228, 246013796, 0.9999904036521912, -0.001910937950015068, 0.003944375552237034, -1.2091733515262604E-4, -0.07445955276489258, 0.01462477445602417, 0.14504194259643555
229, 246030463, 0.9999911785125732, -5.571991205215454E-4, 0.004165231250226498, -5.74551522731781E-5, -0.07652866840362549, 0.0165022611618042, 0.14535868167877197
230, 246047130, 0.999991774559021, 1.8324609845876694E-4, 0.004051976837217808, -9.660609066486359E-5, -0.07838058471679688, 0.02255338430404663, 0.14599251747131348
231, 246063797, 0.9999924302101135, 2.9214750975370407E-4, 0.003872196190059185, -1.369193196296692E-4, -0.0803101658821106, 0.02564460039138794, 0.14471548795700073
232, 246080464, 0.9999926090240479, 1.9683223217725754E-4, 0.0038416916504502296, -6.0364603996276855E-5, -0.08309292793273926, 0.025341451168060303, 0.14190322160720825
233, 246097131, 0.999992847442627, 6.616441532969475E-4, 0.0037241587415337563, -3.632158041000366E-7, -0.08428221940994263, 0.020452797412872314, 0.14087307453155518
234, 246113798, 0.9999912977218628, 7.546646520495415E-4, 0.004099597223103046, 3.042910248041153E-5, -0.0802118182182312, 0.02642357349395752, 0.14139407873153687
235, 246130465, 0.9999920725822449, -3.368780016899109E-5, 0.003976251929998398, 2.7567148208618164E-7, -0.0831754207611084, 0.035318613052368164, 0.14356917142868042
236, 246147132, 0.9999926090240479, -9.175706654787064E-4, 0.003739424981176853, 4.0718354284763336E-5, -0.0878182053565979, 0.026265501976013184, 0.1413114070892334
237, 246163799, 0.999992847442627, -6.679464131593704E-4, 0.0037216907367110252, 4.8986636102199554E-5, -0.0882841944694519, 0.023659050464630127, 0.14061588048934937
238, 246180466, 0.999992311000824, -5.468893796205521E-4, 0.0038878684863448143, 1.0492000728845596E-4, -0.08631396293640137, 0.024569332599639893, 0.14192861318588257
239, 246197133, 0.9999927878379822, -7.209107279777527E-4, 0.003726501949131489, 2.1441839635372162E-5, -0.08908122777938843, 0.027614116668701172, 0.1444481611251831
240, 246213800, 0.9999932050704956, -0.001056808978319168, 0.003523559309542179, 1.6942154616117477E-4, -0.09023678302764893, 0.023515284061431885, 0.14121758937835693
241, 246230467, 0.9999938011169434, -6.578769534826279E-4, 0.00344072375446558, 3.4588854759931564E-4, -0.09199708700180054, 0.01880699396133423, 0.13871455192565918
242, 246247134, 0.9999939799308777, -2.7013663202524185E-4, 0.0034358762204647064, 3.2589957118034363E-4, -0.09122830629348755, 0.022281944751739502, 0.14010071754455566
243, 246263801, 0.9999945759773254, -3.520529717206955E-4, 0.0032718470320105553, 2.55645252764225E-4, -0.0920182466506958, 0.02594202756881714, 0.1401802897453308
244, 246280468, 0.9999948740005493, -7.173344492912292E-4, 0.0031003830954432487, 2.8701964765787125E-4, -0.09441196918487549, 0.024200916290283203, 0.1369268298149109
245, 246297135, 0.9999952912330627, -7.012579590082169E-4, 0.00297680776566267, 3.089597448706627E-4, -0.09456402063369751, 0.021764099597930908, 0.1347762942314148
246, 246313802, 0.9999954104423523, -2.2386200726032257E-4, 0.002985355444252491, 4.464639350771904E-4, -0.09536653757095337, 0.019212782382965088, 0.13413816690444946
247, 246330469, 0.9999951720237732, 5.624955520033836E-4, 0.003013727255165577, 4.932070150971413E-4, -0.09537553787231445, 0.01833784580230713, 0.1316695213317871
248, 246347136, 0.9999946355819702, 7.739374414086342E-4, 0.003156154416501522, 3.885766491293907E-4, -0.09477502107620239, 0.026776671409606934, 0.13048803806304932
249, 246363803, 0.9999953508377075, 2.79339961707592E-4, 0.0030204923823475838, 3.3517833799123764E-4, -0.09685355424880981, 0.02928948402404785, 0.129713237285614
250, 246380470, 0.9999955296516418, -5.520880222320557E-6, 0.0029607703909277916, 4.294617101550102E-4, -0.09890073537826538, 0.023332417011260986, 0.12550169229507446
251, 246397137, 0.9999950528144836, 4.297485575079918E-4, 0.003070223145186901, 5.66667877137661E-4, -0.0989922285079956, 0.022705435752868652, 0.12337517738342285
252, 246413804, 0.9999939799308777, 6.569214165210724E-4, 0.003351246938109398, 5.852915346622467E-4, -0.0992511510848999, 0.023273944854736328, 0.1258811354637146
253, 246430471, 0.9999942779541016, 3.8973893970251083E-4, 0.003311065025627613, 5.671689286828041E-4, -0.09871423244476318, 0.02736687660217285, 0.12839317321777344
254, 246447138, 0.9999945163726807, -1.4403648674488068E-4, 0.0032427040860056877, 6.614429876208305E-4, -0.09849441051483154, 0.02811211347579956, 0.12749767303466797
255, 246463805, 0.9999942779541016, -3.6031752824783325E-4, 0.003250530920922756, 8.850609883666039E-4, -0.10097122192382812, 0.024574756622314453, 0.12558972835540771
256, 246480472, 0.9999942183494568, 5.539972335100174E-5, 0.0032258229330182076, 0.0010500112548470497, -0.10400092601776123, 0.01967298984527588, 0.12583142518997192
257, 246497139, 0.9999937415122986, 5.995975807309151E-4, 0.003319387324154377, 0.0010474426671862602, -0.1028057336807251, 0.02135932445526123, 0.12482351064682007
258, 246513806, 0.999994158744812, 5.674334242939949E-4, 0.003275756724178791, 8.145878091454506E-4, -0.10358262062072754, 0.026682674884796143, 0.12724745273590088
259, 246530473, 0.9999948740005493, 5.24391420185566E-4, 0.0030730022117495537, 7.452061399817467E-4, -0.1061708927154541, 0.022913753986358643, 0.12526607513427734
260, 246547140, 0.9999943375587463, 7.195984944701195E-4, 0.0032128849998116493, 7.348367944359779E-4, -0.10649329423904419, 0.02020496129989624, 0.12243229150772095
261, 246563807, 0.9999939203262329, 5.746176466345787E-4, 0.003371131606400013, 6.605898961424828E-4, -0.10780489444732666, 0.023255646228790283, 0.12406980991363525
262, 246580474, 0.9999946355819702, 3.94958071410656E-4, 0.0032071424648165703, 5.346527323126793E-4, -0.10644024610519409, 0.02693396806716919, 0.12252140045166016
263, 246597141, 0.9999948143959045, -8.664838969707489E-5, 0.0031918613240122795, 3.8463156670331955E-4, -0.10839885473251343, 0.02395045757293701, 0.11871981620788574
264, 246613808, 0.9999948143959045, -1.533515751361847E-4, 0.003192163072526455, 3.764862194657326E-4, -0.10945439338684082, 0.023498177528381348, 0.11757224798202515
265, 246630475, 0.9999947547912598, 1.7440691590309143E-4, 0.0032000839710235596, 4.589501768350601E-4, -0.10924690961837769, 0.022383689880371094, 0.11824840307235718
266, 246647142, 0.9999942183494568, 4.931557923555374E-4, 0.0033430904150009155, 4.2304210364818573E-4, -0.10941052436828613, 0.026525139808654785, 0.11640191078186035
267, 246663809, 0.9999943375587463, 5.210293456912041E-4, 0.0033047860488295555, 3.9042066782712936E-4, -0.11142128705978394, 0.027635574340820312, 0.11341476440429688
268, 246680476, 0.9999940395355225, 5.517276003956795E-4, 0.0033742403611540794, 4.2529869824647903E-4, -0.11345255374908447, 0.025972306728363037, 0.11221635341644287
269, 246697143, 0.9999932646751404, 7.841465994715691E-4, 0.003542284481227398, 5.393447354435921E-4, -0.11343985795974731, 0.025984644889831543, 0.10841614007949829
270, 246713810, 0.999992847442627, 8.766399696469307E-4, 0.0036361804232001305, 5.406243726611137E-4, -0.11520707607269287, 0.024302423000335693, 0.10830456018447876
271, 246730477, 0.9999919533729553, 9.377645328640938E-4, 0.0038656210526823997, 4.852907732129097E-4, -0.11381012201309204, 0.027396202087402344, 0.10795331001281738
272, 246747144, 0.9999922513961792, 8.376473560929298E-4, 0.0038128020241856575, 4.6469736844301224E-4, -0.1149221658706665, 0.02838432788848877, 0.10707974433898926
273, 246763811, 0.9999918341636658, 4.958929494023323E-4, 0.0039859553799033165, 4.989719018340111E-4, -0.11680382490158081, 0.02903681993484497, 0.10565578937530518
274, 246780478, 0.9999913573265076, 6.025722250342369E-4, 0.0040719760581851006, 6.216643378138542E-4, -0.1175987720489502, 0.029463231563568115, 0.10154473781585693
275, 246797145, 0.9999905228614807, 8.248267695307732E-4, 0.004210988990962505, 7.154392078518867E-4, -0.11966937780380249, 0.028004050254821777, 0.0980459451675415
276, 246813812, 0.9999884366989136, 0.001392231322824955, 0.004531540907919407, 7.975185289978981E-4, -0.1183975338935852, 0.02901226282119751, 0.09801280498504639
277, 246830479, 0.9999866485595703, 0.001669059507548809, 0.0047800252214074135, 0.001047932542860508, -0.12119531631469727, 0.029833614826202393, 0.09739047288894653
278, 246847146, 0.9999849200248718, 0.0015828842297196388, 0.005084424279630184, 0.001331324689090252, -0.12263017892837524, 0.0321117639541626, 0.09883850812911987
279, 246863813, 0.999984860420227, 0.0014302795752882957, 0.005117126740515232, 0.0014223353937268257, -0.12164759635925293, 0.03320443630218506, 0.10206949710845947
280, 246880480, 0.9999847412109375, 0.0015178257599473, 0.005155318416655064, 0.0012798244133591652, -0.12211102247238159, 0.030156850814819336, 0.09920698404312134
281, 246897147, 0.9999840259552002, 0.0014329859986901283, 0.005367339588701725, 0.0010429127141833305, -0.1217384934425354, 0.03625643253326416, 0.09971612691879272
282, 246913814, 0.9999852180480957, 3.1454209238290787E-4, 0.005374855361878872, 7.310910150408745E-4, -0.1246793270111084, 0.03976637125015259, 0.11069744825363159
283, 246930481, 0.9999875426292419, -3.001093864440918E-4, 0.004941794089972973, 6.634658202528954E-4, -0.12645983695983887, 0.040338337421417236, 0.10742992162704468
284, 246947148, 0.9999876022338867, -7.247906178236008E-4, 0.0048682792112231255, 7.190974429249763E-4, -0.12936651706695557, 0.03696155548095703, 0.10479074716567993
285, 246963815, 0.9999868869781494, -9.026452898979187E-4, 0.004974487237632275, 7.989471778273582E-4, -0.12988466024398804, 0.03458833694458008, 0.10471391677856445
286, 246980482, 0.9999881982803345, -0.001038501039147377, 0.004690711386501789, 7.639909163117409E-4, -0.13240450620651245, 0.03535163402557373, 0.11026448011398315
287, 246997149, 0.999989926815033, -6.058048456907272E-4, 0.004343082197010517, 9.409422054886818E-4, -0.13217884302139282, 0.03275638818740845, 0.10994952917098999
288, 247013816, 0.9999905228614807, 1.444285735487938E-4, 0.004205315373837948, 0.001113283447921276, -0.13374543190002441, 0.032532334327697754, 0.10455328226089478
289, 247030483, 0.999990701675415, 5.86378388106823E-4, 0.0041173240169882774, 0.0011144457384943962, -0.1361101269721985, 0.03789609670639038, 0.09953129291534424
290, 247047150, 0.9999914169311523, 8.400436490774155E-5, 0.004013526253402233, 0.0010044267401099205, -0.13864374160766602, 0.035743653774261475, 0.09999847412109375
291, 247063817, 0.9999921321868896, 1.026717945933342E-4, 0.003828694112598896, 0.001055634580552578, -0.13762104511260986, 0.03225445747375488, 0.10000056028366089
292, 247080484, 0.9999925494194031, 2.6428792625665665E-4, 0.003674064762890339, 0.0011402731761336327, -0.13661235570907593, 0.029212594032287598, 0.09923738241195679
293, 247097151, 0.9999927282333374, 2.800142392516136E-4, 0.003637314774096012, 0.0011187614873051643, -0.1336572766304016, 0.030354976654052734, 0.09613901376724243
294, 247113818, 0.9999932050704956, 3.004837781190872E-4, 0.0035238098353147507, 0.0010217297822237015, -0.13495707511901855, 0.033793866634368896, 0.09343641996383667
295, 247130485, 0.9999939203262329, 3.298679366707802E-4, 0.003371165134012699, 8.447887375950813E-4, -0.1370784044265747, 0.031078457832336426, 0.09142667055130005
296, 247147152, 0.9999943375587463, 3.6392640322446823E-4, 0.0032854443415999413, 6.588557735085487E-4, -0.138097882270813, 0.031027376651763916, 0.09186381101608276
297, 247163819, 0.9999946355819702, 6.671091541647911E-4, 0.0031421510502696037, 6.020599976181984E-4, -0.1372143030166626, 0.03155374526977539, 0.08963286876678467
298, 247180486, 0.9999946355819702, 0.0011077029630541801, 0.0030345534905791283, 5.94709999859333E-4, -0.13734513521194458, 0.03133499622344971, 0.0869709849357605
299, 247197153, 0.9999935626983643, 0.0019708210602402687, 0.002969096414744854, 4.717046394944191E-4, -0.13754123449325562, 0.03148984909057617, 0.08331507444381714
300, 247213820, 0.9999909996986389, 0.0029481323435902596, 0.003035043366253376, 3.6797020584344864E-4, -0.13783371448516846, 0.03498995304107666, 0.07942849397659302
301, 247230487, 0.9999902248382568, 0.0030405865982174873, 0.0031904978677630424, 3.4336838871240616E-4, -0.13844114542007446, 0.03702741861343384, 0.08212506771087646
302, 247247154, 0.9999922513961792, 0.002277878113090992, 0.0031983284279704094, 3.4119095653295517E-4, -0.13805347681045532, 0.04266917705535889, 0.08588188886642456
303, 247263821, 0.9999944567680359, 0.0011043800041079521, 0.0031074853613972664, 5.121221765875816E-4, -0.13728564977645874, 0.046792447566986084, 0.08296704292297363
304, 247280488, 0.9999951124191284, -3.267209976911545E-4, 0.0030646780505776405, 5.378527566790581E-4, -0.1385149359703064, 0.04356217384338379, 0.08069479465484619
305, 247297155, 0.9999948143959045, -7.571093738079071E-4, 0.003075764514505863, 6.196433678269386E-4, -0.13979601860046387, 0.04301643371582031, 0.0802149772644043
306, 247313822, 0.9999945163726807, -0.0010905452072620392, 0.0030445894226431847, 6.759008392691612E-4, -0.14188528060913086, 0.03749293088912964, 0.08788466453552246
307, 247330489, 0.9999960064888, -4.3440982699394226E-4, 0.0027060983702540398, 6.817551329731941E-4, -0.1421453356742859, 0.03787869215011597, 0.0874396562576294
308, 247347156, 0.9999963045120239, -1.8796324729919434E-4, 0.002585233189165592, 7.998840883374214E-4, -0.14199256896972656, 0.04009324312210083, 0.08527523279190063
309, 247363823, 0.9999967813491821, -2.6289187371730804E-4, 0.0023993952199816704, 7.644584402441978E-4, -0.14359891414642334, 0.04066711664199829, 0.08135718107223511
310, 247380490, 0.9999973177909851, -1.3059191405773163E-4, 0.002254846505820751, 5.605919286608696E-4, -0.14534908533096313, 0.040324628353118896, 0.07747697830200195
311, 247397157, 0.9999976754188538, 2.8041470795869827E-4, 0.0020920922979712486, 4.499172791838646E-4, -0.14355742931365967, 0.037310004234313965, 0.07566726207733154
312, 247413824, 0.9999973773956299, 8.628740906715393E-4, 0.002060975879430771, 5.046278238296509E-4, -0.14443254470825195, 0.0353701114654541, 0.0767974853515625
313, 247430491, 0.999997079372406, 0.0011461563408374786, 0.0020094551146030426, 6.65418803691864E-4, -0.1431114673614502, 0.03688812255859375, 0.07383352518081665
314, 247447158, 0.9999973773956299, 7.569612935185432E-4, 0.002078772522509098, 6.236815825104713E-4, -0.14083272218704224, 0.0404810905456543, 0.07512003183364868
315, 247463825, 0.999998152256012, 2.0104553550481796E-4, 0.0018127365037798882, 5.866354331374168E-4, -0.14223814010620117, 0.04093831777572632, 0.07308006286621094
316, 247480492, 0.9999982714653015, 2.6086997240781784E-4, 0.0017510997131466866, 5.663027986884117E-4, -0.14332371950149536, 0.038278162479400635, 0.07185196876525879
317, 247497159, 0.9999980330467224, 4.409579560160637E-4, 0.001837003044784069, 5.890997126698494E-4, -0.1439942717552185, 0.03487151861190796, 0.0722840428352356
318, 247513826, 0.9999979734420776, 7.476406171917915E-4, 0.0017832042649388313, 5.090897902846336E-4, -0.14371347427368164, 0.03841787576675415, 0.07323205471038818
319, 247530493, 0.9999980330467224, 6.598075851798058E-4, 0.0018330449238419533, 3.9704423397779465E-4, -0.14252114295959473, 0.03775429725646973, 0.06974983215332031
320, 247547160, 0.9999982118606567, 4.953062161803246E-4, 0.0018035462126135826, 3.4773070365190506E-4, -0.14429062604904175, 0.040003180503845215, 0.0677955150604248
321, 247563827, 0.9999984502792358, 2.422211691737175E-4, 0.0017008287832140923, 3.212587907910347E-4, -0.14336425065994263, 0.03575223684310913, 0.0680660605430603
322, 247580494, 0.999998152256012, 7.759034633636475E-5, 0.001898113638162613, 2.578999847173691E-4, -0.14359700679779053, 0.03874373435974121, 0.06968921422958374
323, 247597161, 0.999998152256012, -6.225388497114182E-4, 0.001801936887204647, 9.382609277963638E-5, -0.1444886326789856, 0.045004308223724365, 0.07010400295257568
324, 247613828, 0.999997615814209, -0.001488763839006424, 0.0016102725639939308, -8.681975305080414E-5, -0.1461033821105957, 0.044298410415649414, 0.06910878419876099
325, 247630495, 0.9999974370002747, -0.001653643324971199, 0.0015637082979083061, -4.374794661998749E-5, -0.14545917510986328, 0.04141932725906372, 0.06658411026000977
326, 247647162, 0.9999977946281433, -0.0014222823083400726, 0.0015507927164435387, -2.6864930987358093E-5, -0.14605921506881714, 0.037285029888153076, 0.06537455320358276
327, 247663829, 0.9999982118606567, -8.813291788101196E-4, 0.0016511017456650734, -1.477748155593872E-4, -0.1460077166557312, 0.03657400608062744, 0.06285297870635986
328, 247680496, 0.9999983906745911, -3.577768802642822E-4, 0.0017530377954244614, -1.878347247838974E-4, -0.14793312549591064, 0.04432469606399536, 0.061309218406677246
329, 247697163, 0.9999986886978149, -1.7588771879673004E-4, 0.0015858383849263191, -2.4203024804592133E-4, -0.14823317527770996, 0.04498845338821411, 0.060298264026641846
330, 247713830, 0.9999988675117493, -3.534182906150818E-5, 0.0014921976253390312, -2.2386759519577026E-4, -0.14523380994796753, 0.03750503063201904, 0.062355101108551025
331, 247730497, 0.9999983906745911, 6.422204896807671E-4, 0.001682744361460209, 2.098269760608673E-6, -0.14280080795288086, 0.03945392370223999, 0.05969643592834473
332, 247747164, 0.9999979734420776, 7.46450386941433E-4, 0.0018645161762833595, 2.72371806204319E-4, -0.14450550079345703, 0.04508155584335327, 0.05845826864242554
333, 247763831, 0.9999982118606567, 3.918074071407318E-5, 0.001843651756644249, 4.708431661128998E-4, -0.14540761709213257, 0.04617661237716675, 0.05865168571472168
334, 247780498, 0.9999979138374329, -7.039904594421387E-4, 0.0018475158140063286, 4.954738542437553E-4, -0.14532655477523804, 0.04082697629928589, 0.06077760457992554
335, 247797165, 0.9999979734420776, -6.976444274187088E-4, 0.00178545992821455, 5.691768601536751E-4, -0.14459574222564697, 0.039058029651641846, 0.06294727325439453
336, 247813832, 0.9999982118606567, -1.8798187375068665E-4, 0.0017479956150054932, 6.630066782236099E-4, -0.14517605304718018, 0.03985583782196045, 0.06323367357254028
337, 247830499, 0.9999983310699463, -1.6823410987854004E-4, 0.0017052171751856804, 6.164116784930229E-4, -0.14732319116592407, 0.0408097505569458, 0.06163680553436279
338, 247847166, 0.9999949336051941, -0.002758132293820381, 0.001563400961458683, 2.73178331553936E-4, -0.14883792400360107, 0.04737138748168945, 0.06097841262817383
339, 247863833, 0.999992847442627, -0.0035723745822906494, 0.0012107696384191513, 3.4713931381702423E-4, -0.14561712741851807, 0.04355055093765259, 0.06258755922317505
340, 247880500, 0.9999900460243225, -0.004322969354689121, 0.0010056309401988983, 4.730280488729477E-4, -0.14831483364105225, 0.04017549753189087, 0.0637902021408081
341, 247897167, 0.9999733567237854, -0.0056853992864489555, 5.029086023569107E-4, 0.004556991159915924, -0.13840311765670776, 0.046458661556243896, 0.06561499834060669
342, 247913834, 0.9999457597732544, -0.006386561319231987, 2.1961424499750137E-4, 0.008223586715757847, -0.1409708857536316, 0.04969233274459839, 0.07020670175552368
343, 247930501, 0.9999624490737915, -0.0021855123341083527, 2.23514623939991E-4, 0.008382302708923817, -0.14350247383117676, 0.03678476810455322, 0.07052862644195557
344, 247947168, 0.9999797344207764, -0.002607705071568489, 2.1584238857030869E-4, 0.005803258158266544, -0.15512830018997192, 0.04489248991012573, 0.06654912233352661
345, 247963835, 0.9999960660934448, 0.0012847045436501503, 4.94551844894886E-4, 0.00244020763784647, -0.15977025032043457, 0.03858184814453125, 0.06279820203781128
346, 247980502, 0.9999995231628418, 7.756864652037621E-4, 5.846628919243813E-4, -2.3369863629341125E-4, -0.15672451257705688, 0.04175466299057007, 0.06275951862335205
347, 247997169, 0.9999995231628418, 4.8059504479169846E-4, 7.987460121512413E-4, 2.1409336477518082E-4, -0.14363247156143188, 0.046767592430114746, 0.061034560203552246
348, 248013836, 0.9999996423721313, 9.45013016462326E-6, 7.89799727499485E-4, 3.2067205756902695E-4, -0.14719784259796143, 0.04328197240829468, 0.06274902820587158
349, 248030503, 0.9999996423721313, -3.3086352050304413E-4, 7.148226723074913E-4, 3.413436934351921E-4, -0.14402151107788086, 0.048809051513671875, 0.0655524730682373
350, 248047170, 0.9999997615814209, 5.590794607996941E-4, 3.884183242917061E-4, 2.4508778005838394E-4, -0.1452738642692566, 0.04349255561828613, 0.0647134780883789
351, 248063837, 0.9999982118606567, 0.0018168101087212563, 3.662640228867531E-4, 3.294544294476509E-4, -0.1444770097732544, 0.04074859619140625, 0.06363600492477417
352, 248080504, 0.9999945163726807, 0.0032343612983822823, 4.894668236374855E-4, 4.595508798956871E-4, -0.14421498775482178, 0.04105955362319946, 0.061686575412750244
353, 248097171, 0.9999979138374329, 0.001934153027832508, 4.903720691800117E-4, 4.6497490257024765E-4, -0.14475184679031372, 0.05137515068054199, 0.06051915884017944
354, 248113838, 0.9999992847442627, 0.0011358680203557014, 2.8175022453069687E-4, 3.4262891858816147E-4, -0.14440429210662842, 0.05033951997756958, 0.05880790948867798
355, 248130505, 0.9999997019767761, 7.267771288752556E-4, 1.7490331083536148E-4, 2.758679911494255E-4, -0.14498388767242432, 0.04617106914520264, 0.060167789459228516
356, 248147172, 0.9999995231628418, 9.023593738675117E-4, 8.434522897005081E-5, 3.778589889407158E-4, -0.14597219228744507, 0.044678568840026855, 0.06131148338317871
357, 248163839, 0.9999988079071045, 0.0014894669875502586, 1.0221358388662338E-4, 4.4698361307382584E-4, -0.14523494243621826, 0.041516005992889404, 0.06063520908355713
358, 248180506, 0.9999989867210388, 0.0013937996700406075, 1.464085653424263E-4, 2.6510562747716904E-4, -0.14535021781921387, 0.04598122835159302, 0.05892634391784668
359, 248197173, 0.9999989867210388, 0.0014319559559226036, 4.089530557394028E-5, 1.8620584160089493E-4, -0.1456296443939209, 0.04995912313461304, 0.057049572467803955
360, 248213840, 0.9999991059303284, 0.0013431990519165993, -4.890374839305878E-5, 1.0985974222421646E-4, -0.1453368067741394, 0.048296451568603516, 0.05672645568847656
361, 248230507, 0.9999990463256836, 0.0013926448300480843, -4.4092535972595215E-5, -9.938143193721771E-5, -0.1450338363647461, 0.045072972774505615, 0.05688375234603882
362, 248247174, 0.9999991059303284, 0.0013260701671242714, -4.960410296916962E-5, -1.8567591905593872E-4, -0.14640378952026367, 0.047222793102264404, 0.05654186010360718
363, 248263841, 0.9999991655349731, 0.001280791126191616, -1.4261342585086823E-4, -5.910545587539673E-5, -0.14640730619430542, 0.04947406053543091, 0.05679839849472046
364, 248280508, 0.999999463558197, 0.0010235337540507317, -1.361984759569168E-4, -1.012217253446579E-4, -0.1456088423728943, 0.04831415414810181, 0.05524015426635742
365, 248297175, 0.9999993443489075, 0.0011409511789679527, -1.0789372026920319E-4, -2.116858959197998E-4, -0.14557582139968872, 0.049887001514434814, 0.05677485466003418
366, 248313842, 0.999998927116394, 0.0014398135244846344, -1.977570354938507E-4, -2.5116652250289917E-4, -0.14627182483673096, 0.05002802610397339, 0.05650871992111206
367, 248330509, 0.9999989867210388, 0.001396183855831623, -2.663731575012207E-4, -2.542417496442795E-4, -0.14571887254714966, 0.05183666944503784, 0.055392682552337646
368, 248347176, 0.999998927116394, 0.0014047259464859962, -3.437139093875885E-4, -1.5821866691112518E-4, -0.14483648538589478, 0.052970945835113525, 0.05434727668762207
369, 248363843, 0.999999463558197, 9.754756465554237E-4, -3.028307110071182E-4, -2.1092034876346588E-4, -0.14439111948013306, 0.05118680000305176, 0.05421549081802368
370, 248380510, 0.9999993443489075, 0.0010840678587555885, -2.93804332613945E-4, -2.9622018337249756E-4, -0.14484286308288574, 0.053075194358825684, 0.055191993713378906
371, 248397177, 0.999999463558197, 9.808959439396858E-4, -3.6101602017879486E-4, -1.6103312373161316E-4, -0.1463300585746765, 0.052876174449920654, 0.05548393726348877
372, 248413844, 0.9999997019767761, 6.849514320492744E-4, -3.256741911172867E-4, -5.957484245300293E-5, -0.1456124186515808, 0.05233585834503174, 0.05343085527420044
373, 248430511, 0.9999998807907104, 4.8589613288640976E-4, -1.981295645236969E-4, 5.615409463644028E-5, -0.1448683738708496, 0.05277204513549805, 0.05281907320022583
374, 248447178, 0.9999998807907104, 4.1863229125738144E-4, -1.5608780086040497E-4, 1.6347505152225494E-5, -0.14463025331497192, 0.051465630531311035, 0.053923070430755615
375, 248463845, 0.9999998807907104, 4.954896867275238E-4, -2.0273402333259583E-4, -7.187016308307648E-5, -0.14464819431304932, 0.05255389213562012, 0.05486178398132324
376, 248480512, 0.9999999403953552, 3.563361242413521E-4, -2.2759102284908295E-4, 1.9985251128673553E-5, -0.14441144466400146, 0.05103367567062378, 0.054100096225738525
377, 248497179, 0.9999999403953552, 3.7534721195697784E-4, -1.3070926070213318E-4, 6.688572466373444E-5, -0.14441579580307007, 0.05085879564285278, 0.053014278411865234
378, 248513846, 1.0, 1.768721267580986E-4, -1.94646418094635E-5, 5.9886835515499115E-5, -0.144084632396698, 0.05278134346008301, 0.053272545337677
379, 248530513, 1.0, 1.8769968301057816E-4, -2.5723129510879517E-5, -7.677823305130005E-5, -0.14523553848266602, 0.05161106586456299, 0.05477726459503174
380, 248547180, 1.0, 1.4678668230772018E-4, -6.677582859992981E-5, -3.781355917453766E-5, -0.14472192525863647, 0.05229371786117554, 0.054245710372924805
381, 248563847, 1.0, 1.0742899030447006E-4, -3.176741302013397E-5, -9.104609489440918E-6, -0.14418178796768188, 0.05181324481964111, 0.054278790950775146
382, 248580514, 1.0, 1.3240519911050797E-4, -1.5234574675559998E-5, -1.0887160897254944E-5, -0.14490991830825806, 0.05333667993545532, 0.05524963140487671
383, 248597181, 1.0, -7.849186658859253E-6, -7.628835737705231E-5, -7.865764200687408E-5, -0.1454852819442749, 0.053012073040008545, 0.05504125356674194
384, 248613848, 1.0, -1.0459870100021362E-4, -8.735246956348419E-5, -1.3193115592002869E-5, -0.14474481344223022, 0.05281883478164673, 0.05477792024612427
385, 248630515, 0.9999999403953552, -2.5124847888946533E-4, -6.823986768722534E-5, 4.012603312730789E-5, -0.14457887411117554, 0.05196499824523926, 0.05477041006088257
386, 248647182, 0.9999999403953552, -2.877861261367798E-4, -1.809746026992798E-5, 8.754897862672806E-5, -0.14421719312667847, 0.052440643310546875, 0.055730998516082764
387, 248663849, 0.9999999403953552, -2.5149621069431305E-4, -6.450153887271881E-5, 1.7226766794919968E-4, -0.14527130126953125, 0.052401959896087646, 0.055951476097106934
388, 248680516, 0.9999999403953552, -1.5840120613574982E-4, -9.300000965595245E-5, 1.7493311315774918E-4, -0.14473873376846313, 0.051047444343566895, 0.05570399761199951
389, 248697183, 0.9999999403953552, -2.186056226491928E-4, -1.1633895337581635E-4, 1.667821779847145E-4, -0.14515358209609985, 0.051197052001953125, 0.05561363697052002
390, 248713850, 0.9999999403953552, -2.17461958527565E-4, -8.253566920757294E-5, 9.653065353631973E-5, -0.1452798843383789, 0.0522838830947876, 0.0549737811088562
391, 248730517, 1.0, -2.0740553736686707E-5, -8.868798613548279E-5, 1.2988317757844925E-4, -0.14652585983276367, 0.05043184757232666, 0.055130183696746826
392, 248747184, 1.0, 5.5466778576374054E-5, -6.422027945518494E-5, 6.228964775800705E-5, -0.14612388610839844, 0.05075901746749878, 0.054668545722961426
393, 248763851, 1.0, 1.4339573681354523E-5, 4.124827682971954E-6, 5.2920542657375336E-5, -0.1459803581237793, 0.05117541551589966, 0.05600827932357788
394, 248780518, 1.0, 1.223413273692131E-4, -7.223710417747498E-5, -2.4400651454925537E-6, -0.14643049240112305, 0.051740288734436035, 0.056833505630493164
395, 248797185, 0.9999999403953552, 2.429550513625145E-4, -8.473917841911316E-5, 4.592817276716232E-5, -0.14541321992874146, 0.0509030818939209, 0.05592954158782959
396, 248813852, 0.9999999403953552, 2.878541126847267E-4, -5.062855780124664E-5, 7.953401654958725E-5, -0.14454025030136108, 0.05120283365249634, 0.05472517013549805
397, 248830519, 0.9999999403953552, 2.41975300014019E-4, -4.797987639904022E-5, 4.7939829528331757E-5, -0.14396607875823975, 0.051017820835113525, 0.055013835430145264
398, 248847186, 0.9999999403953552, 2.2722501307725906E-4, -1.0251067578792572E-4, -2.6319175958633423E-6, -0.14469873905181885, 0.052384018898010254, 0.05603039264678955
399, 248863853, 0.9999998807907104, 4.317155107855797E-4, -1.184418797492981E-4, 8.50306823849678E-5, -0.14525377750396729, 0.05056107044219971, 0.05486375093460083
400, 248880520, 0.9999998807907104, 4.283459857106209E-4, -3.966502845287323E-5, 1.4506746083498E-4, -0.1451270580291748, 0.05068862438201904, 0.05428719520568848
401, 248897187, 0.9999999403953552, 2.4343561381101608E-4, -3.176741302013397E-5, 1.2231338769197464E-4, -0.1452474594116211, 0.05349862575531006, 0.05502277612686157
402, 248913854, 1.0, 1.5380140393972397E-4, -8.133426308631897E-5, 1.6502197831869125E-4, -0.14547520875930786, 0.05178213119506836, 0.05583155155181885
403, 248930521, 0.9999999403953552, 2.4078693240880966E-4, -6.125308573246002E-5, 1.813238486647606E-4, -0.14574378728866577, 0.05090773105621338, 0.055042564868927
404, 248947188, 0.9999998807907104, 3.8286950439214706E-4, -4.7674402594566345E-5, 2.0610261708498E-4, -0.1449979543685913, 0.05202281475067139, 0.05515706539154053
405, 248963855, 0.9999998211860657, 5.755489692091942E-4, -7.301196455955505E-5, 8.17934051156044E-5, -0.14487707614898682, 0.050371527671813965, 0.054796457290649414
406, 248980522, 0.9999998211860657, 5.380110815167427E-4, -5.416199564933777E-5, 9.521562606096268E-5, -0.14391672611236572, 0.052399396896362305, 0.054593563079833984
407, 248997189, 0.9999999403953552, 2.7494970709085464E-4, -6.702542304992676E-5, 1.2368988245725632E-4, -0.14448213577270508, 0.051961660385131836, 0.054612696170806885
408, 249013856, 1.0, 2.722814679145813E-5, -6.821192800998688E-5, 1.2881681323051453E-4, -0.14412975311279297, 0.05228656530380249, 0.05506080389022827
409, 249030523, 1.0, -6.559677422046661E-5, -1.1518411338329315E-4, 1.2064632028341293E-4, -0.14385491609573364, 0.051495492458343506, 0.05475175380706787
410, 249047190, 1.0, 7.099565118551254E-5, -4.576332867145538E-5, 1.1959578841924667E-4, -0.14404445886611938, 0.049919962882995605, 0.05335789918899536
411, 249063857, 1.0, 1.1101830750703812E-4, 4.5116059482097626E-5, 4.578102380037308E-5, -0.14660006761550903, 0.052168071269989014, 0.05354982614517212
412, 249080524, 1.0, -7.107667624950409E-5, -6.0657039284706116E-5, -5.117245018482208E-5, -0.14605581760406494, 0.05301356315612793, 0.054291486740112305
413, 249097191, 0.9999999403953552, -3.0336901545524597E-4, -6.60829246044159E-5, -1.802407205104828E-4, -0.14305144548416138, 0.0516362190246582, 0.05315786600112915
414, 249113858, 0.9999998807907104, -4.815123975276947E-4, 1.3364478945732117E-6, -1.9241124391555786E-4, -0.1469213366508484, 0.05410051345825195, 0.05389589071273804
415, 249130525, 0.9999997019767761, -7.417891174554825E-4, -1.3602152466773987E-4, -1.4511682093143463E-4, -0.15257573127746582, 0.05421626567840576, 0.053720712661743164
416, 249147192, 0.9999997615814209, -7.005874067544937E-4, -9.843148291110992E-5, -1.8608197569847107E-4, -0.15293824672698975, 0.05378788709640503, 0.05302160978317261
417, 249163859, 0.9999997615814209, -6.556902080774307E-4, -4.312768578529358E-5, -2.708248794078827E-4, -0.15055060386657715, 0.054960429668426514, 0.055439114570617676
418, 249180526, 0.9999998211860657, -4.91039827466011E-4, -1.726355403661728E-4, -2.705957740545273E-4, -0.14871180057525635, 0.0542149543762207, 0.0576632022857666
419, 249197193, 0.9999999403953552, 9.114202111959457E-5, -2.133343368768692E-4, -2.4540163576602936E-4, -0.1464862823486328, 0.05057710409164429, 0.058427274227142334
420, 249213860, 0.9999998807907104, 4.813084378838539E-4, -2.127029001712799E-4, -1.2915581464767456E-4, -0.14346766471862793, 0.05354773998260498, 0.05853074789047241
421, 249230527, 0.9999999403953552, -1.151692122220993E-4, -2.368483692407608E-4, -1.0052695870399475E-5, -0.14142948389053345, 0.05592906475067139, 0.059366464614868164
422, 249247194, 0.9999998807907104, -3.170296549797058E-4, -3.995615988969803E-4, 1.822570338845253E-4, -0.1416555643081665, 0.05337923765182495, 0.059800148010253906
423, 249263861, 0.9999997615814209, -3.498736768960953E-4, -4.5705772936344147E-4, 3.290800377726555E-4, -0.14131498336791992, 0.050439298152923584, 0.059987008571624756
424, 249280528, 0.9999997615814209, 6.494112312793732E-6, -5.61937689781189E-4, 4.704641178250313E-4, -0.14274531602859497, 0.05056107044219971, 0.060614824295043945
425, 249297195, 0.9999995827674866, 4.375847056508064E-4, -6.258171051740646E-4, 5.212565883994102E-4, -0.14361786842346191, 0.048680007457733154, 0.06071603298187256
426, 249313862, 0.9999994039535522, 6.7120511084795E-4, -6.606616079807281E-4, 5.310485139489174E-4, -0.14435738325119019, 0.049351513385772705, 0.06069457530975342
427, 249330529, 0.9999995231628418, 5.132229998707771E-4, -6.84959813952446E-4, 4.5804958790540695E-4, -0.14394807815551758, 0.0514218807220459, 0.059603333473205566
428, 249347196, 0.9999996423721313, 2.642301842570305E-4, -7.080081850290298E-4, 3.5349931567907333E-4, -0.1462932825088501, 0.05004769563674927, 0.0593913197517395
429, 249363863, 0.9999997019767761, 3.173481673002243E-5, -7.748398929834366E-4, 2.3137126117944717E-4, -0.14539510011672974, 0.04822397232055664, 0.06039249897003174
430, 249380530, 0.9999996423721313, 7.232744246721268E-5, -8.043758571147919E-4, 1.3068784028291702E-4, -0.1441475749015808, 0.04767113924026489, 0.06125140190124512
431, 249397197, 0.9999996423721313, 1.6718078404664993E-4, -8.483026176691055E-4, 9.731389582157135E-6, -0.1444549560546875, 0.04805314540863037, 0.06150555610656738
432, 249413864, 0.999999463558197, 2.3527909070253372E-4, -9.686797857284546E-4, -2.3748166859149933E-4, -0.1445508599281311, 0.0496562123298645, 0.0616377592086792
433, 249430531, 0.9999992847442627, 2.2285431623458862E-4, -0.0011084098368883133, -3.9085187017917633E-4, -0.14477062225341797, 0.04903179407119751, 0.06099045276641846
434, 249447198, 0.9999992251396179, 2.681659534573555E-4, -0.001109786331653595, -4.413668066263199E-4, -0.146131694316864, 0.04800373315811157, 0.06165575981140137
435, 249463865, 0.9999991655349731, 3.1052809208631516E-4, -0.0011473391205072403, -5.248468369245529E-4, -0.14661681652069092, 0.048404157161712646, 0.06138288974761963
436, 249480532, 0.9999991059303284, 1.3502221554517746E-4, -0.0011828187853097916, -6.374064832925797E-4, -0.1484127640724182, 0.051742494106292725, 0.061414480209350586
437, 249497199, 0.999998927116394, -1.279842108488083E-4, -0.001243583858013153, -7.303208112716675E-4, -0.14939063787460327, 0.05054420232772827, 0.06028854846954346
438, 249513866, 0.9999987483024597, -2.9052235186100006E-4, -0.0012871641665697098, -8.440203964710236E-4, -0.14671438932418823, 0.050147414207458496, 0.06274259090423584
439, 249530533, 0.9999986886978149, -1.367572695016861E-4, -0.0013656113296747208, -8.409023284912109E-4, -0.14471107721328735, 0.04947865009307861, 0.06383419036865234
440, 249547200, 0.9999985098838806, 3.1099654734134674E-5, -0.0014600660651922226, -9.242873638868332E-4, -0.14360129833221436, 0.04748725891113281, 0.06542587280273438
441, 249563867, 0.9999983310699463, 2.937605604529381E-4, -0.0015395469963550568, -9.5345638692379E-4, -0.14255136251449585, 0.051307737827301025, 0.065731942653656
442, 249580534, 0.9999980926513672, 5.0006434321403503E-5, -0.00166988093405962, -9.857481345534325E-4, -0.14264017343521118, 0.05169415473937988, 0.06804841756820679
443, 249597201, 0.9999975562095642, -1.7543882131576538E-4, -0.0019435323774814606, -0.001017516478896141, -0.14327865839004517, 0.04908949136734009, 0.06883960962295532
444, 249613868, 0.9999973177909851, -1.7830915749073029E-4, -0.0021205227822065353, -9.215101599693298E-4, -0.14332419633865356, 0.04817467927932739, 0.07009434700012207
445, 249630535, 0.9999969005584717, 1.5011895447969437E-4, -0.0023456867784261703, -8.405502885580063E-4, -0.14390528202056885, 0.04545950889587402, 0.07308781147003174
446, 249647202, 0.9999962449073792, 6.16186298429966E-4, -0.002522241324186325, -8.44266265630722E-4, -0.1438642144203186, 0.04605674743652344, 0.0738680362701416
447, 249663869, 0.9999953508377075, 9.792493656277657E-4, -0.0027679968625307083, -8.304379880428314E-4, -0.14439046382904053, 0.047430336475372314, 0.0754581093788147
448, 249680536, 0.9999945163726807, 0.0011518867686390877, -0.002986641600728035, -8.723903447389603E-4, -0.14483600854873657, 0.046206116676330566, 0.0751226544380188
449, 249697203, 0.9999936819076538, 0.001196310855448246, -0.0032245591282844543, -8.948706090450287E-4, -0.14583933353424072, 0.048876404762268066, 0.07466727495193481
450, 249713870, 0.9999926090240479, 0.0012282812967896461, -0.003515593707561493, -9.456221014261246E-4, -0.1460171937942505, 0.04437941312789917, 0.0759013295173645
451, 249730537, 0.9999914765357971, 0.0016177771613001823, -0.003662126138806343, -0.0010045003145933151, -0.14577579498291016, 0.04409855604171753, 0.07650130987167358
452, 249747204, 0.9999907612800598, 0.0016780449077486992, -0.0038106031715869904, -0.0010653641074895859, -0.1445140242576599, 0.0475313663482666, 0.07618480920791626
453, 249763871, 0.9999904632568359, 0.0014772480353713036, -0.003934675827622414, -0.0011980682611465454, -0.14438199996948242, 0.04856520891189575, 0.07655346393585205
454, 249780538, 0.9999890923500061, 0.0014840131625533104, -0.004228271543979645, -0.001320844516158104, -0.14487743377685547, 0.046237289905548096, 0.07919955253601074
455, 249797205, 0.9999879598617554, 0.0017607798799872398, -0.00438481941819191, -0.00134357251226902, -0.1439610719680786, 0.04295319318771362, 0.0784296989440918
456, 249813872, 0.9999872446060181, 0.0020557930693030357, -0.004394488409161568, -0.001405179500579834, -0.14396142959594727, 0.04619431495666504, 0.07939261198043823
457, 249830539, 0.9999868273735046, 0.0016474341973662376, -0.0046113114804029465, -0.0015576761215925217, -0.14482301473617554, 0.04784500598907471, 0.08138060569763184
458, 249847206, 0.9999867677688599, 0.001110217534005642, -0.004788713529706001, -0.0015204064548015594, -0.1431402564048767, 0.044940292835235596, 0.08297121524810791
459, 249863873, 0.9999868869781494, 9.595779702067375E-4, -0.004855940118432045, -0.0013006441295146942, -0.14240509271621704, 0.04206728935241699, 0.0840410590171814
460, 249880540, 0.9999861717224121, 8.424101397395134E-4, -0.00498797744512558, -0.00142708420753479, -0.14150923490524292, 0.04180502891540527, 0.08596771955490112
461, 249897207, 0.9999848008155823, 9.473590180277824E-4, -0.005203736945986748, -0.001575283706188202, -0.14230459928512573, 0.04345512390136719, 0.08721250295639038
462, 249913874, 0.9999832510948181, 9.585535153746605E-4, -0.005475524812936783, -0.0016186069697141647, -0.14323455095291138, 0.037483274936676025, 0.08806675672531128
463, 249930541, 0.9999825954437256, 0.0011773565784096718, -0.005519932135939598, -0.0017303265631198883, -0.14057987928390503, 0.03834652900695801, 0.08791691064834595
464, 249947208, 0.9999822378158569, 8.590361103415489E-4, -0.005568072199821472, -0.0019346866756677628, -0.13855606317520142, 0.04231274127960205, 0.09106451272964478
465, 249963875, 0.9999811053276062, 2.6141759008169174E-4, -0.005703376606106758, -0.002291560173034668, -0.13781166076660156, 0.041250407695770264, 0.09327298402786255
466, 249980542, 0.9999788999557495, -4.7887302935123444E-4, -0.005925267934799194, -0.0026091262698173523, -0.13799011707305908, 0.04231905937194824, 0.09597504138946533
467, 249997209, 0.9999771118164062, -8.714888244867325E-4, -0.006138088181614876, -0.0026991013437509537, -0.13571947813034058, 0.042170941829681396, 0.0976952314376831
468, 250013876, 0.9999759793281555, -9.482670575380325E-4, -0.006326047703623772, -0.0026623904705047607, -0.13593542575836182, 0.039095163345336914, 0.10112631320953369
469, 250030543, 0.9999754428863525, -7.545221596956253E-4, -0.0064607057720422745, -0.0025973692536354065, -0.13540178537368774, 0.04021012783050537, 0.10285818576812744
470, 250047210, 0.9999741911888123, -9.751375764608383E-4, -0.006620902568101883, -0.0026223324239253998, -0.13561415672302246, 0.047821998596191406, 0.10535436868667603
471, 250063877, 0.9999711513519287, -0.001994974911212921, -0.006838137283921242, -0.0026276037096977234, -0.1351628303527832, 0.04966139793395996, 0.10807186365127563
472, 250080544, 0.9999683499336243, -0.0027223341166973114, -0.007023531943559647, -0.0025672540068626404, -0.13530009984970093, 0.05009281635284424, 0.11081016063690186
473, 250097211, 0.9999654293060303, -0.0027845799922943115, -0.007479388266801834, -0.0023440420627593994, -0.13646894693374634, 0.04389774799346924, 0.1115494966506958
474, 250113878, 0.9999659061431885, -0.0016081035137176514, -0.007814353331923485, -0.00214281864464283, -0.1371120810508728, 0.03548341989517212, 0.11341500282287598
475, 250130545, 0.9999657273292542, -9.46149230003357E-5, -0.0080408975481987, -0.001975409686565399, -0.135939359664917, 0.0372348427772522, 0.11201208829879761
476, 250147212, 0.9999656677246094, 1.4655198901891708E-4, -0.008075200021266937, -0.0018410403281450272, -0.13213610649108887, 0.04823786020278931, 0.1120569109916687
477, 250163879, 0.9999634027481079, -8.873064070940018E-4, -0.008332628756761551, -0.001740243285894394, -0.13024115562438965, 0.051038503646850586, 0.11219805479049683
478, 250180546, 0.9999605417251587, -0.0014844629913568497, -0.008617108687758446, -0.0015730392187833786, -0.1280401349067688, 0.043058156967163086, 0.10997164249420166
479, 250197213, 0.9999610781669617, -6.217975169420242E-4, -0.00871976651251316, -0.0011995639652013779, -0.12524092197418213, 0.03514665365219116, 0.11081701517105103
480, 250213880, 0.9999611973762512, 8.824719116091728E-4, -0.008728617802262306, -7.816236466169357E-4, -0.12333863973617554, 0.03191947937011719, 0.11194378137588501
481, 250230547, 0.9999615550041199, 0.0017714714631438255, -0.008566398173570633, -5.672499537467957E-4, -0.12140846252441406, 0.03857147693634033, 0.11100345849990845
482, 250247214, 0.9999614953994751, 0.0014457693323493004, -0.00863942876458168, -5.599316209554672E-4, -0.11817348003387451, 0.04548192024230957, 0.11069577932357788
483, 250263881, 0.9999616146087646, 9.687496349215508E-4, -0.00869305245578289, -4.983283579349518E-4, -0.11656224727630615, 0.04126572608947754, 0.10969728231430054
484, 250280548, 0.9999626278877258, 9.568510577082634E-4, -0.008575893938541412, -4.763677716255188E-4, -0.11484664678573608, 0.03622615337371826, 0.11033731698989868
485, 250297215, 0.9999639987945557, 0.0011463919654488564, -0.008387643843889236, -5.680564790964127E-4, -0.11060714721679688, 0.033051133155822754, 0.11154615879058838
486, 250313882, 0.9999666810035706, 0.0011571301147341728, -0.008056527003645897, -6.220564246177673E-4, -0.1065819263458252, 0.03797262907028198, 0.11316698789596558
487, 250330549, 0.9999676942825317, 0.0010257316753268242, -0.007942888885736465, -6.491541862487793E-4, -0.10483920574188232, 0.03632628917694092, 0.11454284191131592
488, 250347216, 0.9999659061431885, 0.0018603755161166191, -0.007996082305908203, -8.662715554237366E-4, -0.10412925481796265, 0.03107386827468872, 0.1146773099899292
489, 250363883, 0.9999634027481079, 0.0030988426879048347, -0.007935993373394012, -8.14804807305336E-4, -0.10516911745071411, 0.03043532371520996, 0.114765465259552
490, 250380550, 0.9999639987945557, 0.003594272769987583, -0.007644716650247574, -8.116606622934341E-4, -0.0998649001121521, 0.04056602716445923, 0.11460757255554199
491, 250397217, 0.9999688267707825, 0.0023845089599490166, -0.007484259083867073, -7.811523973941803E-4, -0.09665226936340332, 0.04867345094680786, 0.11845701932907104
492, 250413884, 0.9999701976776123, 0.0015161102637648582, -0.007548175752162933, -5.998369306325912E-4, -0.09555745124816895, 0.041500866413116455, 0.11989128589630127
493, 250430551, 0.9999707341194153, 0.0020110560581088066, -0.0073748379945755005, -2.218484878540039E-4, -0.0939856767654419, 0.03241002559661865, 0.12335509061813354
494, 250447218, 0.999972403049469, 0.0024734744802117348, -0.007001213729381561, -4.727207124233246E-5, -0.09054380655288696, 0.04064255952835083, 0.12490648031234741
495, 250463885, 0.9999744892120361, 0.001537802629172802, -0.006973549723625183, 7.860083132982254E-5, -0.08965015411376953, 0.049340903759002686, 0.12578487396240234
496, 250480552, 0.9999762177467346, 5.568815395236015E-4, -0.006870690733194351, 3.28906811773777E-4, -0.08800077438354492, 0.04567122459411621, 0.1256062388420105
497, 250497219, 0.9999766945838928, 3.233170136809349E-4, -0.0068061575293540955, 4.549464210867882E-4, -0.08541655540466309, 0.03763490915298462, 0.12923914194107056
498, 250513886, 0.9999760985374451, 0.001262814737856388, -0.006771931424736977, 5.553672090172768E-4, -0.08436733484268188, 0.03762918710708618, 0.1315029263496399
499, 250530553, 0.9999764561653137, 0.0017153574153780937, -0.006624743342399597, 5.272394046187401E-4, -0.08261281251907349, 0.04176318645477295, 0.13334685564041138
500, 250547220, 0.9999777674674988, 0.0012515829876065254, -0.006525197997689247, 5.522081628441811E-4, -0.07976782321929932, 0.0481380820274353, 0.13520097732543945
501, 250563887, 0.9999774694442749, 4.352116957306862E-4, -0.006657097488641739, 7.513528689742088E-4, -0.07892006635665894, 0.04309380054473877, 0.13707506656646729
502, 250580554, 0.9999779462814331, 6.557786837220192E-4, -0.00653158500790596, 0.0010259086266160011, -0.07499635219573975, 0.03938406705856323, 0.13526326417922974
503, 250597221, 0.9999797344207764, 6.295265629887581E-4, -0.006268961355090141, 9.468486532568932E-4, -0.07334840297698975, 0.04541701078414917, 0.13844656944274902
504, 250613888, 0.9999796152114868, -1.0944157838821411E-4, -0.006333880126476288, 7.638661190867424E-4, -0.0726546049118042, 0.048799216747283936, 0.14066016674041748
505, 250630555, 0.9999780654907227, -6.127543747425079E-4, -0.006539423018693924, 8.776364848017693E-4, -0.07118856906890869, 0.03983032703399658, 0.14121747016906738
506, 250647222, 0.9999791979789734, 1.619746908545494E-4, -0.006361082196235657, 0.0010768594220280647, -0.06761574745178223, 0.03741657733917236, 0.1405775547027588
507, 250663889, 0.9999797344207764, 5.573490634560585E-4, -0.006256395950913429, 0.0010257503017783165, -0.06693953275680542, 0.042010605335235596, 0.14396512508392334
508, 250680556, 0.9999792575836182, 8.164150640368462E-4, -0.0063050780445337296, 0.0010101357474923134, -0.06632024049758911, 0.045788347721099854, 0.14539819955825806
509, 250697223, 0.9999791979789734, 8.212244138121605E-4, -0.006299380213022232, 0.0011360449716448784, -0.06453889608383179, 0.04141688346862793, 0.1449792981147766
510, 250713890, 0.9999790787696838, 7.369285449385643E-4, -0.00630694255232811, 0.0012555969879031181, -0.0601963996887207, 0.043055176734924316, 0.14391040802001953
511, 250730557, 0.9999794363975525, 4.422636702656746E-4, -0.00624600425362587, 0.0013654166832566261, -0.05901491641998291, 0.04631030559539795, 0.1450955867767334
512, 250747224, 0.9999797344207764, 3.687804564833641E-4, -0.006179412826895714, 0.0014703264459967613, -0.057202160358428955, 0.04387253522872925, 0.14579707384109497
513, 250763891, 0.9999809861183167, 1.0737869888544083E-4, -0.005938271060585976, 0.0016481177881360054, -0.05415165424346924, 0.04667794704437256, 0.14629977941513062
514, 250780558, 0.9999822974205017, -0.0010441988706588745, -0.00565185584127903, 0.001529182307422161, -0.05086195468902588, 0.05089074373245239, 0.14754927158355713
515, 250797225, 0.9999797344207764, -0.0024763885885477066, -0.005682440474629402, 0.0014433851465582848, -0.04861348867416382, 0.05175924301147461, 0.15044087171554565
516, 250813892, 0.9999777674674988, -0.0027233585715293884, -0.005834547802805901, 0.0017325272783637047, -0.05036371946334839, 0.040147364139556885, 0.14979493618011475
517, 250830559, 0.9999809861183167, -0.001136569306254387, -0.005841672420501709, 0.0016063274815678596, -0.04797917604446411, 0.03488391637802124, 0.15063101053237915
518, 250847226, 0.9999816417694092, 3.8270745426416397E-4, -0.00588202103972435, 0.0013909758999943733, -0.04574787616729736, 0.03944796323776245, 0.15127378702163696
519, 250863893, 0.9999810457229614, 0.0010830005630850792, -0.005936162546277046, 0.001214231364428997, -0.04266059398651123, 0.041920244693756104, 0.15404832363128662
520, 250880560, 0.9999809861183167, 0.0010388446971774101, -0.005960676819086075, 0.0011869510635733604, -0.04105192422866821, 0.04732930660247803, 0.15254080295562744
521, 250897227, 0.9999813437461853, 2.992367371916771E-4, -0.00596347451210022, 0.0013091927394270897, -0.04083859920501709, 0.04428064823150635, 0.15066087245941162
522, 250913894, 0.9999823570251465, 4.169996827840805E-5, -0.00578954815864563, 0.0013117333874106407, -0.037362754344940186, 0.0428730845451355, 0.15056312084197998
523, 250930561, 0.999983012676239, -4.717148840427399E-5, -0.005688143894076347, 0.0012778779491782188, -0.03492593765258789, 0.04549628496170044, 0.1532275676727295
524, 250947228, 0.9999830722808838, -2.596043050289154E-4, -0.005680877715349197, 0.0012099901214241982, -0.03371167182922363, 0.04527765512466431, 0.1534426212310791
525, 250963895, 0.9999827742576599, -7.588975131511688E-5, -0.005723763257265091, 0.0013044448569417, -0.0336490273475647, 0.04141908884048462, 0.14980226755142212
526, 250980562, 0.9999825358390808, 4.445202648639679E-4, -0.0057146549224853516, 0.0014533866196870804, -0.03276783227920532, 0.03826111555099487, 0.15086859464645386
527, 250997229, 0.9999834895133972, 8.962703868746758E-4, -0.005515247583389282, 0.0013419808819890022, -0.02605527639389038, 0.04203242063522339, 0.15319108963012695
528, 251013896, 0.9999837875366211, 7.513603195548058E-4, -0.005510309711098671, 0.0012424951419234276, -0.02446913719177246, 0.04835993051528931, 0.1550728678703308
529, 251030563, 0.9999833106994629, 4.6650227159261703E-4, -0.005656575784087181, 0.001081055961549282, -0.02677619457244873, 0.043903470039367676, 0.1534888744354248
530, 251047230, 0.9999842047691345, 6.166836246848106E-4, -0.005493488162755966, 0.0010410388931632042, -0.02304387092590332, 0.04027509689331055, 0.15114843845367432
531, 251063897, 0.9999858140945435, 5.280310288071632E-4, -0.005212422460317612, 9.82404686510563E-4, -0.017489910125732422, 0.043726980686187744, 0.15331429243087769
532, 251080564, 0.999986469745636, -1.66403129696846E-4, -0.005114555358886719, 9.083272889256477E-4, -0.016930758953094482, 0.04945629835128784, 0.15488481521606445
533, 251097231, 0.9999861717224121, -0.0012284554541110992, -0.0050454046577215195, 8.102143183350563E-4, -0.016605138778686523, 0.048475563526153564, 0.15385717153549194
534, 251113898, 0.9999856352806091, -0.0016200020909309387, -0.005024861544370651, 9.042052552103996E-4, -0.016094624996185303, 0.042493343353271484, 0.1528138518333435
535, 251130565, 0.9999860525131226, -0.0010990630835294724, -0.005059529095888138, 0.0010551949962973595, -0.012443304061889648, 0.03927654027938843, 0.1528635025024414
536, 251147232, 0.9999867677688599, -3.320425748825073E-4, -0.0049650296568870544, 0.0012982925400137901, -0.010642528533935547, 0.0411565899848938, 0.1520746946334839
537, 251163899, 0.9999877214431763, -3.6694295704364777E-4, -0.004779702052474022, 0.001241522841155529, -0.009718894958496094, 0.04455399513244629, 0.1514856219291687
538, 251180566, 0.9999876618385315, -7.994864135980606E-4, -0.004753539338707924, 0.0012077977880835533, -0.00786447525024414, 0.045995473861694336, 0.15009653568267822
539, 251197233, 0.999987781047821, -0.0010631643235683441, -0.004670523107051849, 0.0012408168986439705, -0.006201386451721191, 0.04179036617279053, 0.1482917070388794
540, 251213900, 0.9999892115592957, -8.593592792749405E-4, -0.004389127716422081, 0.0012660389766097069, -0.005845367908477783, 0.038939058780670166, 0.1442021131515503
541, 251230567, 0.9999912977218628, -0.0010867230594158173, -0.0038227252662181854, 0.0012490050867199898, -0.0025200247764587402, 0.04024612903594971, 0.14411407709121704
542, 251247234, 0.9999921321868896, -0.001587841659784317, -0.0035155806690454483, 9.287344291806221E-4, 0.0015447735786437988, 0.04540657997131348, 0.1446555256843567
543, 251263901, 0.9999912977218628, -0.002352353185415268, -0.0033192671835422516, 9.249737486243248E-4, -0.0010659098625183105, 0.04155552387237549, 0.1481972336769104
544, 251280568, 0.9999920725822449, -0.0016586780548095703, -0.0034643802791833878, 0.001072789542376995, -0.0019505620002746582, 0.029176652431488037, 0.15099602937698364
545, 251297235, 0.9999932646751404, 1.7227884382009506E-4, -0.003400808200240135, 0.0013721315190196037, 0.00425487756729126, 0.02867370843887329, 0.14846301078796387
546, 251313902, 0.9999932646751404, 0.001231321133673191, -0.0031976066529750824, 0.0013243379071354866, 0.006385385990142822, 0.03591662645339966, 0.14830350875854492
547, 251330569, 0.9999944567680359, 7.908353582024574E-4, -0.00307394377887249, 0.001024899072945118, 0.006525397300720215, 0.04069042205810547, 0.15041494369506836
548, 251347236, 0.9999949336051941, 2.83791683614254E-4, -0.0030123423784971237, 9.612878784537315E-4, 0.006820321083068848, 0.03922146558761597, 0.1516055464744568
549, 251363903, 0.9999954104423523, -1.572389155626297E-4, -0.0028916560113430023, 9.010089561343193E-4, 0.00883173942565918, 0.035951972007751465, 0.1538345217704773
550, 251380570, 0.9999955892562866, -8.760206401348114E-5, -0.0028884969651699066, 7.287608459591866E-4, 0.011305689811706543, 0.036232709884643555, 0.15373510122299194
551, 251397237, 0.9999960064888, 8.67089256644249E-5, -0.002752382308244705, 5.985116586089134E-4, 0.011529207229614258, 0.03655123710632324, 0.15376043319702148
552, 251413904, 0.9999964237213135, 4.4568441808223724E-5, -0.0026353951543569565, 4.964051768183708E-4, 0.010202646255493164, 0.03756308555603027, 0.15302139520645142
553, 251430571, 0.9999964833259583, -3.5862065851688385E-4, -0.0025933440774679184, 4.413491114974022E-4, 0.0103377103805542, 0.03830230236053467, 0.1529201865196228
554, 251447238, 0.9999967217445374, -8.493177592754364E-4, -0.002392597496509552, 3.287801519036293E-4, 0.014270603656768799, 0.0394931435585022, 0.15374475717544556
555, 251463905, 0.9999963045120239, -0.0011549480259418488, -0.0024215206503868103, 3.948817029595375E-4, 0.012921929359436035, 0.03959769010543823, 0.15450578927993774
556, 251480572, 0.9999964833259583, -0.0011106319725513458, -0.002362506464123726, 4.806043580174446E-4, 0.012457311153411865, 0.03254365921020508, 0.15284526348114014
557, 251497239, 0.9999972581863403, -2.9615312814712524E-4, -0.0022652968764305115, 4.814146086573601E-4, 0.014293134212493896, 0.032942235469818115, 0.1514652967453003
558, 251513906, 0.9999976754188538, 2.0053889602422714E-4, -0.0020967088639736176, 5.028722807765007E-4, 0.016682028770446777, 0.0338437557220459, 0.15053576231002808
559, 251530573, 0.9999978542327881, 3.987634554505348E-4, -0.002010716125369072, 3.7208665162324905E-4, 0.01640373468399048, 0.03739786148071289, 0.15018635988235474
560, 251547240, 0.9999980330467224, 4.209047183394432E-4, -0.0019078832119703293, 3.906330093741417E-4, 0.016821622848510742, 0.037319302558898926, 0.14740025997161865
561, 251563907, 0.9999983310699463, 3.716088831424713E-4, -0.0017547216266393661, 2.922285348176956E-4, 0.017423272132873535, 0.03503388166427612, 0.14854806661605835
562, 251580574, 0.9999983310699463, 7.121404632925987E-4, -0.001622287556529045, 4.0379632264375687E-4, 0.019033610820770264, 0.03450179100036621, 0.145835280418396
563, 251597241, 0.9999990463256836, 4.7957804054021835E-4, -0.001261390745639801, 2.1081697195768356E-4, 0.021559476852416992, 0.036570966243743896, 0.14508700370788574
564, 251613908, 0.9999992847442627, 1.262454316020012E-4, -0.0011719632893800735, 1.637013629078865E-4, 0.018820881843566895, 0.03860127925872803, 0.14377987384796143
565, 251630575, 0.9999995827674866, -2.0990148186683655E-5, -9.161811321973801E-4, 2.019265666604042E-4, 0.019888997077941895, 0.032583534717559814, 0.14009946584701538
566, 251647242, 0.9999998211860657, 1.1026207357645035E-4, -5.358178168535233E-4, 1.440616324543953E-4, 0.023151516914367676, 0.03414565324783325, 0.1412469744682312
567, 251663909, 0.9999999403953552, 4.107039421796799E-5, -3.203321248292923E-4, 1.415284350514412E-4, 0.021289408206939697, 0.03454715013504028, 0.1430826187133789
568, 251680576, 1.0, 8.7798573076725E-5, -1.3903900980949402E-4, 3.7060119211673737E-5, 0.021677911281585693, 0.03671985864639282, 0.14585351943969727
569, 251697243, 1.0, 1.607285812497139E-4, 1.8450431525707245E-5, 3.700610250234604E-5, 0.021598756313323975, 0.034319519996643066, 0.1431105136871338
570, 251713910, 0.9999998807907104, 2.297060564160347E-4, 4.3889787048101425E-4, -1.1594779789447784E-4, 0.02157270908355713, 0.035102665424346924, 0.14030122756958008
571, 251730577, 0.9999997019767761, -2.671442925930023E-4, 6.4826849848032E-4, -2.2575445473194122E-4, 0.02232992649078369, 0.037895143032073975, 0.14939165115356445
572, 251747244, 0.9999997615814209, -2.2916123270988464E-4, 6.080707535147667E-4, -2.1350383758544922E-4, 0.020298480987548828, 0.0364646315574646, 0.15337437391281128
573, 251763911, 0.9999997615814209, 1.3235118240118027E-4, 6.676586344838142E-4, -6.569176912307739E-5, 0.019760847091674805, 0.03557288646697998, 0.15179157257080078
574, 251780578, 0.9999995231628418, 3.585685044527054E-4, 9.233038872480392E-4, -8.34297388792038E-5, 0.01904881000518799, 0.036303043365478516, 0.15163463354110718
575, 251797245, 0.9999994039535522, 2.8997752815485E-4, 0.0010380735620856285, -2.8242357075214386E-4, 0.020753860473632812, 0.03864586353302002, 0.1552489995956421
576, 251813912, 0.9999995231628418, 5.4127536714076996E-5, 9.432518854737282E-4, -3.1403452157974243E-4, 0.01899343729019165, 0.04045093059539795, 0.16017520427703857
577, 251830579, 0.9999995827674866, 1.0269414633512497E-4, 8.36406834423542E-4, -2.8606876730918884E-4, 0.01759856939315796, 0.037796199321746826, 0.16036802530288696
578, 251847246, 0.9999995827674866, 2.442421391606331E-4, 8.820099756121635E-4, -1.860111951828003E-4, 0.018346071243286133, 0.0379185676574707, 0.16009247303009033
579, 251863913, 0.9999995827674866, 4.363870248198509E-4, 7.735257968306541E-4, -2.265777438879013E-4, 0.01801234483718872, 0.04208499193191528, 0.1606408953666687
580, 251880580, 0.9999997615814209, 1.3615097850561142E-4, 6.66382722556591E-4, -2.502426505088806E-4, 0.01687711477279663, 0.04194223880767822, 0.16280335187911987
581, 251897247, 0.9999998211860657, 1.5004072338342667E-4, 4.978151991963387E-4, -2.0396895706653595E-4, 0.015612900257110596, 0.041089534759521484, 0.16172683238983154
582, 251913914, 0.9999998807907104, 4.5287422835826874E-5, 4.874924197793007E-4, -1.5497207641601562E-4, 0.017050504684448242, 0.04047513008117676, 0.16114717721939087
583, 251930581, 0.9999998807907104, 2.552289515733719E-5, 4.6712998300790787E-4, -3.1830742955207825E-5, 0.016079187393188477, 0.041087448596954346, 0.15834885835647583
584, 251947248, 0.9999998807907104, -1.8985942006111145E-4, 4.973458126187325E-4, -5.646422505378723E-5, 0.015953898429870605, 0.04001682996749878, 0.1607460379600525
585, 251963915, 0.9999999403953552, -4.675425589084625E-5, 3.4555327147245407E-4, 7.569696754217148E-5, 0.015195906162261963, 0.04098498821258545, 0.16194778680801392
586, 251980582, 0.9999999403953552, 2.713659778237343E-4, 2.6487838476896286E-4, 1.6387272626161575E-4, 0.014367163181304932, 0.037690043449401855, 0.15802639722824097
587, 251997249, 0.9999998211860657, 3.237789496779442E-4, 4.627564921975136E-4, 2.38797627389431E-4, 0.015002429485321045, 0.03926646709442139, 0.15501868724822998
588, 252013916, 0.9999998211860657, -4.108436405658722E-5, 5.172165110707283E-4, 1.8799211829900742E-4, 0.016642332077026367, 0.04166144132614136, 0.15872222185134888
589, 252030583, 0.9999998211860657, -3.472324460744858E-4, 4.6913977712392807E-4, 1.7389189451932907E-4, 0.01593470573425293, 0.041084349155426025, 0.159462571144104
590, 252047250, 0.9999997019767761, -6.163287907838821E-4, 4.904484376311302E-4, 1.7991196364164352E-4, 0.01355898380279541, 0.037606775760650635, 0.1585182547569275
591, 252063917, 0.9999997615814209, -4.713870584964752E-4, 4.6799611300230026E-4, 1.8761586397886276E-4, 0.014696776866912842, 0.03676331043243408, 0.15769636631011963
592, 252080584, 0.9999998211860657, -2.9285065829753876E-4, 4.718983545899391E-4, 1.5105027705430984E-4, 0.015032768249511719, 0.03484147787094116, 0.15584367513656616
593, 252097251, 0.9999998807907104, -4.1835010051727295E-5, 5.054036155343056E-4, 1.2493226677179337E-4, 0.015357613563537598, 0.037748873233795166, 0.15822738409042358
594, 252113918, 0.9999998807907104, 9.828712791204453E-5, 4.1406694799661636E-4, 7.229391485452652E-5, 0.013163447380065918, 0.0365757942199707, 0.15844261646270752
595, 252130585, 0.9999998807907104, 2.0435545593500137E-4, 4.1182804852724075E-4, -5.0304457545280457E-5, 0.014384150505065918, 0.036838531494140625, 0.16064739227294922
596, 252147252, 0.9999998807907104, 3.5490188747644424E-4, 3.013135865330696E-4, -5.445815622806549E-5, 0.01484006643295288, 0.03788769245147705, 0.1599944829940796
597, 252163919, 0.9999999403953552, 2.484852448105812E-4, 2.8370413929224014E-4, -4.199892282485962E-5, 0.013760387897491455, 0.03872346878051758, 0.15936607122421265
598, 252180586, 0.9999999403953552, -2.2687017917633057E-5, 2.9505882412195206E-4, -1.3003125786781311E-5, 0.013348221778869629, 0.03806591033935547, 0.1609259843826294
599, 252197253, 1.0, -2.2353604435920715E-5, 1.7314497381448746E-4, -1.559033989906311E-6, 0.01350390911102295, 0.03929853439331055, 0.162663996219635
600, 252213920, 1.0, 1.032194122672081E-4, 9.676162153482437E-5, 3.527197986841202E-5, 0.013149499893188477, 0.03778409957885742, 0.16068655252456665
601, 252230587, 0.9999999403953552, 1.782504841685295E-4, 1.7340201884508133E-4, 1.0059867054224014E-4, 0.011861443519592285, 0.037105023860931396, 0.15932834148406982
602, 252247254, 0.9999999403953552, -1.8590502440929413E-4, 2.4066027253866196E-4, 6.05536624789238E-5, 0.013217329978942871, 0.03910648822784424, 0.1599365472793579
603, 252263921, 0.9999996423721313, -7.94408842921257E-4, 2.1290220320224762E-4, -2.5194138288497925E-5, 0.014134824275970459, 0.04185205698013306, 0.16039729118347168
604, 252280588, 0.9999990463256836, -0.0013564713299274445, 1.9452814012765884E-4, -1.5173479914665222E-4, 0.012258052825927734, 0.03691685199737549, 0.15840190649032593
605, 252297255, 0.9999989867210388, -0.0013522058725357056, 2.845199778676033E-4, -2.706870436668396E-4, 0.01227569580078125, 0.033684492111206055, 0.15605562925338745
606, 252313922, 0.9999994039535522, -9.834282100200653E-4, 3.2764021307229996E-4, -3.263745456933975E-4, 0.012523293495178223, 0.030108749866485596, 0.15830683708190918
607, 252330589, 0.9999997615814209, -4.943422973155975E-4, 2.875467762351036E-4, -3.6687031388282776E-4, 0.012910604476928711, 0.03276699781417847, 0.15955227613449097
608, 252347256, 0.9999997615814209, -4.6916306018829346E-4, 2.7014780789613724E-4, -4.4422782957553864E-4, 0.012294530868530273, 0.034265100955963135, 0.1583995819091797
609, 252363923, 0.9999997019767761, -4.840083420276642E-4, 2.822382375597954E-4, -5.476213991641998E-4, 0.012351453304290771, 0.03447306156158447, 0.15766596794128418
610, 252380590, 0.9999997615814209, -2.7052126824855804E-4, 2.1860096603631973E-4, -5.740784108638763E-4, 0.011983752250671387, 0.03239661455154419, 0.1591227650642395
611, 252397257, 0.9999998211860657, 2.1097715944051743E-4, 1.2292806059122086E-4, -5.393605679273605E-4, 0.01195758581161499, 0.033815979957580566, 0.15822315216064453
612, 252413924, 0.9999998211860657, 3.521731123328209E-4, 1.4665443450212479E-4, -4.285816103219986E-4, 0.011103034019470215, 0.036075592041015625, 0.15888959169387817
613, 252430591, 0.9999997615814209, 5.471045151352882E-4, 1.5206541866064072E-4, -3.293100744485855E-4, 0.011374473571777344, 0.036013007164001465, 0.157748281955719
614, 252447258, 0.9999998211860657, 4.5816320925951004E-4, 2.931049093604088E-4, -2.7655623853206635E-4, 0.01321786642074585, 0.037490129470825195, 0.15959346294403076
615, 252463925, 0.9999998807907104, 3.156578168272972E-4, 1.6702432185411453E-4, -2.987384796142578E-4, 0.011691629886627197, 0.040469467639923096, 0.16049712896347046
616, 252480592, 0.9999999403953552, 7.266458123922348E-5, 1.2109335511922836E-4, -3.0203163623809814E-4, 0.011733770370483398, 0.03788447380065918, 0.15893566608428955
617, 252497259, 0.9999999403953552, 3.657769411802292E-5, 1.095375046133995E-4, -2.2985972464084625E-4, 0.011716187000274658, 0.0378117561340332, 0.15772020816802979
618, 252513926, 0.9999999403953552, -1.0754354298114777E-4, 2.155965194106102E-4, -1.680031418800354E-4, 0.012773275375366211, 0.037639319896698, 0.15844368934631348
619, 252530593, 1.0, -1.1437013745307922E-4, 1.1155102401971817E-4, -1.48652121424675E-4, 0.010569095611572266, 0.03894352912902832, 0.16040176153182983
620, 252547260, 1.0, -9.518861770629883E-5, 1.136651262640953E-4, -7.639452815055847E-5, 0.010660886764526367, 0.034935176372528076, 0.1589609980583191
621, 252563927, 1.0, 2.8974376618862152E-5, 1.6304757446050644E-4, -1.4798715710639954E-5, 0.010982871055603027, 0.0361141562461853, 0.15801864862442017
622, 252580594, 0.9999999403953552, -5.0513073801994324E-5, 2.3752357810735703E-4, -8.393637835979462E-5, 0.012441098690032959, 0.03696322441101074, 0.15828746557235718
623, 252597261, 0.9999999403953552, -1.1553987860679626E-5, 2.3303460329771042E-4, -1.3292953372001648E-4, 0.011355996131896973, 0.03538870811462402, 0.1613193154335022
624, 252613928, 1.0, 2.0521972328424454E-4, 8.781906217336655E-5, -7.379800081253052E-5, 0.011078953742980957, 0.0333060622215271, 0.1611156463623047
625, 252630595, 0.9999998807907104, 4.4522713869810104E-4, 1.2940820306539536E-4, -1.0217726230621338E-4, 0.011632800102233887, 0.03577733039855957, 0.15785425901412964
626, 252647262, 0.9999999403953552, 1.484779641032219E-4, 1.3247039169073105E-4, -2.4342164397239685E-4, 0.010821640491485596, 0.03807520866394043, 0.1586759090423584
627, 252663929, 0.9999999403953552, 3.749039024114609E-5, 5.044136196374893E-5, -3.4240446984767914E-4, 0.010569930076599121, 0.03344690799713135, 0.16046255826950073
628, 252680596, 0.9999998807907104, 2.904282882809639E-4, 8.546095341444016E-5, -3.0259788036346436E-4, 0.01211559772491455, 0.0341486930847168, 0.15955328941345215
629, 252697263, 0.9999998807907104, 2.468368038535118E-4, 1.1256057769060135E-4, -3.6359578371047974E-4, 0.012301385402679443, 0.037738680839538574, 0.1590442657470703
630, 252713930, 0.9999999403953552, 1.0247249156236649E-4, 9.862612932920456E-5, -3.788638859987259E-4, 0.01007932424545288, 0.035040974617004395, 0.15767168998718262
631, 252730597, 0.9999998807907104, 3.51867638528347E-4, 8.933525532484055E-5, -3.346595913171768E-4, 0.011263430118560791, 0.03539830446243286, 0.15709388256072998
632, 252747264, 0.9999998211860657, 5.975449457764626E-4, 1.0392535477876663E-4, -2.1346844732761383E-4, 0.010541439056396484, 0.03433835506439209, 0.15640348196029663
633, 252763931, 0.9999998211860657, 4.4651608914136887E-4, 2.4176295846700668E-4, -2.540852874517441E-4, 0.012011170387268066, 0.037398338317871094, 0.15609508752822876
634, 252780598, 0.9999999403953552, 1.688208431005478E-5, 2.2166874259710312E-4, -3.336705267429352E-4, 0.010756969451904297, 0.03886246681213379, 0.15839338302612305
635, 252797265, 0.9999999403953552, 7.051881402730942E-5, 2.60951928794384E-4, -3.2490119338035583E-4, 0.011256814002990723, 0.03370368480682373, 0.1563103199005127
636, 252813932, 0.9999998211860657, 3.15849669277668E-4, 3.457842394709587E-4, -2.8694793581962585E-4, 0.010642051696777344, 0.03482067584991455, 0.15537512302398682
637, 252830599, 0.9999998211860657, 2.9561296105384827E-4, 3.7553906440734863E-4, -3.138389438390732E-4, 0.010612249374389648, 0.03691411018371582, 0.15412461757659912
638, 252847266, 0.9999998211860657, -1.3552606105804443E-5, 4.1689444333314896E-4, -3.934185951948166E-4, 0.010678291320800781, 0.038003504276275635, 0.15577954053878784
639, 252863933, 0.9999998211860657, -7.171556353569031E-5, 4.2637530714273453E-4, -4.2913109064102173E-4, 0.009949564933776855, 0.03577721118927002, 0.15585678815841675
640, 252880600, 0.9999997615814209, 1.6535911709070206E-4, 5.111536011099815E-4, -4.6061351895332336E-4, 0.009680092334747314, 0.03623378276824951, 0.1559705138206482
641, 252897267, 0.9999997019767761, 2.5220494717359543E-4, 5.473578348755836E-4, -4.7707557678222656E-4, 0.010428547859191895, 0.035524070262908936, 0.1563696265220642
642, 252913934, 0.9999995827674866, 5.408851429820061E-4, 5.559707060456276E-4, -4.983972758054733E-4, 0.00918269157409668, 0.037928223609924316, 0.15619635581970215
643, 252930601, 0.9999995231628418, 6.00830651819706E-4, 5.987966433167458E-4, -4.618838429450989E-4, 0.009401261806488037, 0.037251174449920654, 0.15717840194702148
644, 252947268, 0.999999463558197, 6.569651886820793E-4, 6.585260853171349E-4, -4.6439655125141144E-4, 0.009008169174194336, 0.036779701709747314, 0.15802514553070068
645, 252963935, 0.9999995231628418, 5.292957648634911E-4, 6.834203377366066E-4, -4.148874431848526E-4, 0.009320735931396484, 0.04080110788345337, 0.15997803211212158
646, 252980602, 0.9999997615814209, 1.8390920013189316E-4, 5.967961624264717E-4, -3.2768771052360535E-4, 0.008598625659942627, 0.038092851638793945, 0.1609451174736023
647, 252997269, 0.9999997615814209, 1.227622851729393E-4, 6.236797198653221E-4, -3.0060112476348877E-4, 0.008166313171386719, 0.03805476427078247, 0.1604500412940979
648, 253013936, 0.9999997615814209, 1.6836542636156082E-4, 5.589472129940987E-4, -2.800840884447098E-4, 0.008555710315704346, 0.035614848136901855, 0.1613178253173828
649, 253030603, 0.9999997615814209, 3.1958986073732376E-4, 5.583735182881355E-4, -3.0451081693172455E-4, 0.0084913969039917, 0.03714454174041748, 0.16298574209213257
650, 253047270, 0.9999998211860657, 1.3938453048467636E-4, 4.336247220635414E-4, -3.676079213619232E-4, 0.008573412895202637, 0.03838849067687988, 0.1629752516746521
651, 253063937, 0.9999998807907104, 8.152518421411514E-5, 2.5550927966833115E-4, -4.545804113149643E-4, 0.00700223445892334, 0.037249088287353516, 0.1617913842201233
652, 253080604, 0.9999998211860657, 2.315947785973549E-4, 3.091460093855858E-4, -4.974734038114548E-4, 0.007226288318634033, 0.036341965198516846, 0.15962344408035278
653, 253097271, 0.9999997019767761, 3.7277955561876297E-4, 2.6220735162496567E-4, -5.834028124809265E-4, 0.006692111492156982, 0.037818849086761475, 0.1614081859588623
654, 253113938, 0.9999997019767761, 4.4748280197381973E-4, 1.5959423035383224E-4, -5.836561322212219E-4, 0.007141232490539551, 0.03807377815246582, 0.1602303385734558
655, 253130605, 0.9999997019767761, 3.0133407562971115E-4, 2.286648377776146E-4, -6.367769092321396E-4, 0.008631885051727295, 0.041312992572784424, 0.16033494472503662
656, 253147272, 0.9999998211860657, -1.0569021105766296E-4, 1.5373807400465012E-4, -5.993768572807312E-4, 0.006349444389343262, 0.04186248779296875, 0.15986108779907227
657, 253163939, 0.9999998211860657, -1.4373846352100372E-4, 1.7302948981523514E-4, -5.71107491850853E-4, 0.006285965442657471, 0.03873676061630249, 0.15702909231185913
658, 253180606, 0.9999998807907104, 4.5468099415302277E-5, 2.1712016314268112E-4, -3.856942057609558E-4, 0.006048679351806641, 0.03793388605117798, 0.156582772731781
659, 253197273, 0.9999998807907104, 1.8645543605089188E-4, 3.1449925154447556E-4, -3.116019070148468E-4, 0.007548332214355469, 0.03887176513671875, 0.15784430503845215
660, 253213940, 0.9999998807907104, 1.0972097516059875E-4, 3.22612002491951E-4, -3.1379610300064087E-4, 0.006805419921875, 0.04237782955169678, 0.15752345323562622
661, 253230607, 0.9999998211860657, -2.20591202378273E-4, 3.6267098039388657E-4, -4.216339439153671E-4, 0.005475163459777832, 0.03940927982330322, 0.1571374535560608
662, 253247274, 0.9999998211860657, -6.002746522426605E-5, 3.19906510412693E-4, -4.6738237142562866E-4, 0.00602412223815918, 0.038205742835998535, 0.15776199102401733
663, 253263941, 0.9999998211860657, 2.233097329735756E-4, 3.1874608248472214E-4, -4.173554480075836E-4, 0.004717826843261719, 0.036784231662750244, 0.15809786319732666
664, 253280608, 0.9999997615814209, 3.267945721745491E-4, 3.09172086417675E-4, -4.804115742444992E-4, 0.006068050861358643, 0.038841307163238525, 0.1587451696395874
665, 253297275, 0.9999998211860657, 1.8746592104434967E-5, 3.0074361711740494E-4, -5.260072648525238E-4, 0.006108880043029785, 0.0415990948677063, 0.1598222851753235
666, 253313942, 0.9999996423721313, -3.581363707780838E-4, 3.359531983733177E-4, -6.755106151103973E-4, 0.006189405918121338, 0.04006248712539673, 0.1612733006477356
667, 253330609, 0.9999997615814209, -2.6762858033180237E-4, 2.749664708971977E-4, -5.961544811725616E-4, 0.0042168498039245605, 0.040124356746673584, 0.1610838770866394
668, 253347276, 0.9999998807907104, 7.258914411067963E-5, 2.1436437964439392E-4, -4.4357962906360626E-4, 0.0031296610832214355, 0.03657257556915283, 0.159895658493042
669, 253363943, 0.9999998807907104, 3.807051107287407E-4, 1.9026268273591995E-4, -3.174189478158951E-4, 0.004509687423706055, 0.03920024633407593, 0.15993934869766235
670, 253380610, 0.9999998807907104, 2.107834443449974E-4, 1.7784442752599716E-4, -3.5648420453071594E-4, 0.005298495292663574, 0.0416797399520874, 0.16164672374725342
671, 253397277, 0.9999999403953552, -6.73104077577591E-5, 2.3939646780490875E-5, -3.591999411582947E-4, 0.00414961576461792, 0.0404742956161499, 0.1618720293045044
672, 253413944, 0.9999999403953552, -5.181320011615753E-5, 9.0782530605793E-5, -3.274697810411453E-4, 0.0045021772384643555, 0.04037076234817505, 0.16063642501831055
673, 253430611, 1.0, -5.813688039779663E-5, 9.35560092329979E-5, -2.1759234368801117E-4, 0.0031616687774658203, 0.03899538516998291, 0.159715473651886
674, 253447278, 1.0, 9.111594408750534E-5, 1.3853143900632858E-4, -1.484248787164688E-4, 0.0048923492431640625, 0.03853541612625122, 0.15886014699935913
675, 253463945, 1.0, 1.4469493180513382E-4, 1.2000370770692825E-4, -1.1246651411056519E-4, 0.004262089729309082, 0.040675997734069824, 0.158622145652771
676, 253480612, 1.0, -1.3794749975204468E-4, 4.593748599290848E-5, -1.1796504259109497E-4, 0.004733741283416748, 0.03979945182800293, 0.15885227918624878
677, 253497279, 0.9999999403953552, -2.3901276290416718E-4, 7.703062146902084E-5, -9.764730930328369E-5, 0.004203617572784424, 0.03958612680435181, 0.15827524662017822
678, 253513946, 0.9999999403953552, -2.61940062046051E-4, 1.490144059062004E-4, -7.226131856441498E-5, 0.004596114158630371, 0.03880089521408081, 0.1580861210823059
679, 253530613, 1.0, -1.0700337588787079E-4, 1.4478061348199844E-4, -9.688921272754669E-5, 0.003600478172302246, 0.037938058376312256, 0.16041558980941772
680, 253547280, 0.9999999403953552, 2.2764038294553757E-4, 8.807238191366196E-5, -7.531046867370605E-5, 0.0026932954788208008, 0.03614085912704468, 0.15963250398635864
681, 253563947, 0.9999999403953552, 3.0612479895353317E-4, 1.2377556413412094E-4, -7.67875462770462E-5, 0.0046797990798950195, 0.038409292697906494, 0.1592944860458374
682, 253580614, 1.0, 7.418263703584671E-5, 1.367749646306038E-4, -1.0655447840690613E-4, 0.003868997097015381, 0.04059666395187378, 0.15988874435424805
683, 253597281, 0.9999999403953552, -2.103801816701889E-4, 1.2852158397436142E-4, -1.2862123548984528E-4, 0.0030015110969543457, 0.037980079650878906, 0.16050058603286743
684, 253613948, 1.0, 3.4784898161888123E-6, 5.170423537492752E-5, -9.985081851482391E-5, 0.00329667329788208, 0.036462604999542236, 0.16085606813430786
685, 253630615, 0.9999999403953552, 2.2477377206087112E-4, 6.0391612350940704E-5, -1.1580809950828552E-4, 0.004299283027648926, 0.03642237186431885, 0.159798264503479
686, 253647282, 1.0, 7.32792541384697E-5, -1.7603859305381775E-5, -1.888871192932129E-4, 0.0028122663497924805, 0.0398595929145813, 0.16001182794570923
687, 253663949, 0.9999999403953552, -2.3813731968402863E-4, -6.700679659843445E-5, -2.292431890964508E-4, 0.0037358999252319336, 0.03900802135467529, 0.15952104330062866
688, 253680616, 1.0, -1.33538618683815E-4, -3.31830233335495E-5, -1.9782781600952148E-4, 0.0041817426681518555, 0.03698074817657471, 0.15896737575531006
689, 253697283, 1.0, 1.1061038821935654E-4, 3.6405399441719055E-6, -1.8502585589885712E-4, 0.004250764846801758, 0.036368370056152344, 0.1588679552078247
690, 253713950, 0.9999999403953552, 2.5259796530008316E-4, 5.281530320644379E-6, -1.2378767132759094E-4, 0.0032597780227661133, 0.03880596160888672, 0.15921229124069214
691, 253730617, 1.0, 9.594205766916275E-5, -4.000961780548096E-5, -7.83335417509079E-5, 0.002825021743774414, 0.03870046138763428, 0.1581992506980896
692, 253747284, 1.0, 1.0379869490861893E-4, -3.7398189306259155E-5, -3.676675260066986E-5, 0.003258645534515381, 0.038851797580718994, 0.1570712924003601
693, 253763951, 1.0, 5.10169193148613E-5, 2.3317523300647736E-5, -1.5772879123687744E-5, 0.003280937671661377, 0.03706514835357666, 0.15615522861480713
694, 253780618, 1.0, 1.5309732407331467E-4, 8.44290480017662E-5, 7.134024053812027E-5, 0.0026616454124450684, 0.037090003490448, 0.15640920400619507
695, 253797285, 1.0, 1.4634709805250168E-4, 1.5627872198820114E-4, 8.518341928720474E-5, 0.0037133097648620605, 0.036811649799346924, 0.15766185522079468
696, 253813952, 1.0, 1.9462313503026962E-4, 1.4554616063833237E-4, -1.5635043382644653E-5, 0.0030434131622314453, 0.03908407688140869, 0.157995343208313
697, 253830619, 0.9999999403953552, 2.1904613822698593E-4, 8.243601769208908E-5, -1.1462904512882233E-4, 0.0025919079780578613, 0.03575712442398071, 0.15872377157211304
698, 253847286, 0.9999997615814209, 6.523178890347481E-4, 1.1097732931375504E-4, -1.6671419143676758E-4, 0.0035469532012939453, 0.03376507759094238, 0.15827667713165283
699, 253863953, 0.999999463558197, 9.838836267590523E-4, 1.0490510612726212E-4, -2.4019740521907806E-4, 0.004304766654968262, 0.03819108009338379, 0.1599879264831543
700, 253880620, 0.9999997615814209, 5.890456959605217E-4, 4.934798926115036E-5, -3.595687448978424E-4, 0.0032622218132019043, 0.04004347324371338, 0.16085797548294067
701, 253897287, 0.9999999403953552, 1.0498147457838058E-4, 2.325046807527542E-5, -3.890674561262131E-4, 0.0036416053771972656, 0.040871262550354004, 0.16030418872833252
702, 253913954, 0.9999998807907104, -1.5957467257976532E-4, 1.2119300663471222E-5, -4.0150247514247894E-4, 0.003863513469696045, 0.03850054740905762, 0.15963107347488403
703, 253930621, 0.9999999403953552, -2.183392643928528E-5, 5.514640361070633E-5, -3.667399287223816E-4, 0.0032916665077209473, 0.03840982913970947, 0.15974974632263184
704, 253947288, 0.9999999403953552, 9.909365326166153E-5, 5.2014365792274475E-6, -3.695990890264511E-4, 0.0026749372482299805, 0.03882431983947754, 0.1595848798751831
705, 253963955, 0.9999999403953552, 1.3199914246797562E-4, 3.511924296617508E-5, -3.777500241994858E-4, 0.003287017345428467, 0.04003185033798218, 0.15912973880767822
706, 253980622, 0.9999999403953552, 6.575789302587509E-5, -5.5283308029174805E-6, -3.654714673757553E-4, 0.0021713972091674805, 0.040087878704071045, 0.15994179248809814
707, 253997289, 0.9999998807907104, 2.62347050011158E-4, -4.717335104942322E-5, -3.3469870686531067E-4, 0.002988576889038086, 0.03787285089492798, 0.15878796577453613
708, 254013956, 0.9999998807907104, 3.767414018511772E-4, -1.6208738088607788E-5, -2.974066883325577E-4, 0.003228425979614258, 0.03896373510360718, 0.15836381912231445
709, 254030623, 0.9999998807907104, 3.443649038672447E-4, -5.764327943325043E-5, -2.7420371770858765E-4, 0.0027202963829040527, 0.04070550203323364, 0.15852516889572144
710, 254047290, 0.9999999403953552, 2.606762573122978E-4, -3.246776759624481E-5, -2.1469593048095703E-4, 0.0033884644508361816, 0.040754735469818115, 0.15782415866851807
711, 254063957, 1.0, 1.2183468788862228E-4, 7.438007742166519E-5, -1.1697597801685333E-4, 0.0028728246688842773, 0.04038560390472412, 0.1576825976371765
712, 254080624, 1.0, 6.314646452665329E-5, 9.897071868181229E-5, -7.197074592113495E-5, 0.0036131739616394043, 0.0414508581161499, 0.15855693817138672
713, 254097291, 1.0, 9.484868496656418E-5, 2.1056272089481354E-5, -1.0495632886886597E-4, 0.002500593662261963, 0.039280593395233154, 0.15783613920211792
714, 254113958, 0.9999999403953552, 3.34334559738636E-4, 4.2215920984745026E-5, -5.338154733181E-5, 0.0021677613258361816, 0.03824096918106079, 0.1575927734375
715, 254130625, 0.9999998807907104, 4.859091714024544E-4, 7.985439151525497E-5, -6.663613021373749E-5, 0.0028107762336730957, 0.03802931308746338, 0.1575835943222046
716, 254147292, 0.9999998807907104, 4.590572789311409E-4, 4.105176776647568E-5, -8.782371878623962E-5, 0.00404810905456543, 0.03995239734649658, 0.15789812803268433
717, 254163959, 0.9999999403953552, 3.024740144610405E-4, 3.482308238744736E-5, -1.504998654127121E-4, 0.0029916763305664062, 0.040246546268463135, 0.15753912925720215
718, 254180626, 0.9999999403953552, 2.816496416926384E-4, 1.8552877008914948E-5, -2.046581357717514E-4, 0.0031919479370117188, 0.03998875617980957, 0.15725016593933105
719, 254197293, 0.9999999403953552, 3.2641831785440445E-4, 1.0361801832914352E-4, -1.620519906282425E-4, 0.002768576145172119, 0.0385013222694397, 0.15709024667739868
720, 254213960, 0.9999998807907104, 4.044193774461746E-4, 1.379363238811493E-4, -1.3058818876743317E-4, 0.0018326044082641602, 0.04013335704803467, 0.15725260972976685
721, 254230627, 0.9999999403953552, 2.82960943877697E-4, 1.6380194574594498E-4, -1.0837428271770477E-4, 0.003392815589904785, 0.040179431438446045, 0.1574452519416809
722, 254247294, 0.9999999403953552, 9.772647172212601E-5, 2.0387489348649979E-4, -1.451577991247177E-4, 0.0030092597007751465, 0.042305946350097656, 0.15770810842514038
723, 254263961, 0.9999999403953552, -9.514577686786652E-5, 2.0972546190023422E-4, -1.5205144882202148E-4, 0.001456618309020996, 0.03973203897476196, 0.15793377161026
