DeviceTag:,Xsens DOT 5,,,,,,,,,,,,,,,,,
FirmwareVersion:,1.3.0,,,,,,,,,,,,,,,,,
AppVersion:,2020.1.1,,,,,,,,,,,,,,,,,
Measurement Mode:,Sensor fusion Mode - Orientation (Quaternion),,,,,,,,,,,,,,,,,
StartTime:,2020-08-10 12:07:23.719 +0200,,,,,,,,,,,,,,,,,
© Xsens Technologies B. V. 2005-2020,,,,,,,,,,,,,,,,,,,
PacketCounter,SampleTimeFine,Quat_W,Quat_X,Quat_Y,Quat_Z
1, 1417288637, 0.75836086, 0.4532923, 0.36514017, 0.2934071
2, 1417305304, 0.75850666, 0.45314175, 0.36482558, 0.29365388
3, 1417321971, 0.75864035, 0.4530764, 0.36462972, 0.29365277
4, 1417338638, 0.7586112, 0.45323423, 0.3643076, 0.2938843
5, 1417355305, 0.7585672, 0.4533695, 0.3639892, 0.2941834
6, 1417371972, 0.75852793, 0.45352277, 0.36375982, 0.29433218
7, 1417388639, 0.7585369, 0.4536453, 0.36364865, 0.29425782
8, 1417405306, 0.7586018, 0.45367247, 0.36347893, 0.2942579
9, 1417421973, 0.7587056, 0.45360038, 0.36327508, 0.2943531
10, 1417438640, 0.7587841, 0.4535345, 0.36315158, 0.2944049
11, 1417455307, 0.75879073, 0.45357603, 0.36307326, 0.2944205
12, 1417471974, 0.75878054, 0.45356193, 0.36295554, 0.29461354
13, 1417488641, 0.7588868, 0.45326442, 0.362803, 0.29498532
14, 1417505308, 0.75895673, 0.45298716, 0.36280894, 0.29522398
15, 1417521975, 0.7589194, 0.45296425, 0.3629653, 0.2951629
16, 1417538642, 0.75872093, 0.45295542, 0.3632988, 0.29527602
17, 1417555309, 0.75863653, 0.45286542, 0.36349005, 0.29539564
18, 1417571976, 0.7583162, 0.4523287, 0.3641084, 0.2962776
19, 1417588643, 0.7581948, 0.4522702, 0.36431658, 0.29642192
20, 1417605310, 0.75798535, 0.4522357, 0.36453122, 0.29674572
21, 1417621977, 0.7578541, 0.45213574, 0.36467293, 0.2970594
22, 1417638644, 0.7578694, 0.45230645, 0.3646136, 0.29683325
23, 1417655311, 0.75769377, 0.45242673, 0.36481452, 0.29685104
24, 1417671978, 0.7575934, 0.45263162, 0.36482343, 0.2967837
25, 1417688645, 0.7575369, 0.4525322, 0.36485356, 0.29704267
26, 1417705312, 0.7576175, 0.45248508, 0.36472446, 0.29706752
27, 1417721979, 0.75738865, 0.45247072, 0.3649681, 0.29737365
28, 1417738646, 0.75693244, 0.4526549, 0.3653966, 0.29772863
29, 1417755313, 0.7565883, 0.4531407, 0.36557135, 0.29764998
30, 1417771980, 0.75605357, 0.45337126, 0.3660758, 0.2980375
31, 1417788647, 0.7558409, 0.45396894, 0.36613783, 0.29759026
32, 1417805314, 0.7554839, 0.45416635, 0.36650786, 0.2977402
33, 1417821981, 0.7553295, 0.45410797, 0.36671895, 0.29796073
34, 1417838648, 0.755294, 0.45367667, 0.3668916, 0.29849517
35, 1417855315, 0.7554438, 0.4534828, 0.36677077, 0.2985591
36, 1417871982, 0.75521326, 0.45326233, 0.36707392, 0.29910406
37, 1417888649, 0.75492805, 0.45323208, 0.36741352, 0.2994521
38, 1417905316, 0.7547873, 0.453252, 0.36757803, 0.29957467
39, 1417921983, 0.75472623, 0.4530506, 0.3676862, 0.29990056
40, 1417938650, 0.7547644, 0.452809, 0.36764437, 0.3002206
41, 1417955317, 0.7548007, 0.452379, 0.36770716, 0.30070046
42, 1417971984, 0.75468653, 0.45195246, 0.36797053, 0.30130547
43, 1417988651, 0.75464374, 0.4516943, 0.36817154, 0.30155426
44, 1418005318, 0.7545622, 0.45143512, 0.36841562, 0.30184814
45, 1418021985, 0.75468194, 0.4512548, 0.3684362, 0.30179337
46, 1418038652, 0.75481534, 0.4509271, 0.3684995, 0.30187213
47, 1418055319, 0.7550613, 0.4507808, 0.3684076, 0.30158764
48, 1418071986, 0.7551636, 0.450515, 0.36854357, 0.30156276
49, 1418088653, 0.75539327, 0.45039797, 0.36850286, 0.30121177
50, 1418105320, 0.7555377, 0.45017388, 0.36854035, 0.30113837
51, 1418121987, 0.7555661, 0.4497552, 0.36878103, 0.30139807
52, 1418138654, 0.7556189, 0.44965172, 0.36893544, 0.30123135
53, 1418155321, 0.75553817, 0.44963294, 0.36916763, 0.3011773
54, 1418171988, 0.75565696, 0.44970348, 0.36913803, 0.30081004
55, 1418188655, 0.7557109, 0.4494649, 0.36930463, 0.30082655
56, 1418205322, 0.7558842, 0.44936833, 0.36933488, 0.30049813
57, 1418221989, 0.755834, 0.44915226, 0.36968216, 0.3005201
58, 1418238656, 0.755674, 0.4491085, 0.37006596, 0.30051574
59, 1418255323, 0.75532883, 0.44918597, 0.37059197, 0.3006199
60, 1418271990, 0.7548966, 0.44964376, 0.3710073, 0.30050847
61, 1418288657, 0.7546223, 0.4498075, 0.37133214, 0.30055138
62, 1418305324, 0.7544122, 0.44982576, 0.3715734, 0.30075336
63, 1418321991, 0.7543429, 0.44967443, 0.37167162, 0.3010317
64, 1418338658, 0.75443584, 0.44945708, 0.3715997, 0.30121228
65, 1418355325, 0.754499, 0.4492482, 0.371553, 0.30142286
66, 1418371992, 0.75454974, 0.44900155, 0.3715448, 0.3016734
67, 1418388659, 0.75456953, 0.44897258, 0.37142345, 0.30181643
68, 1418405326, 0.7545499, 0.44888663, 0.37131783, 0.30212286
69, 1418421993, 0.7546629, 0.44888538, 0.3710002, 0.30223313
70, 1418438660, 0.7547796, 0.44892138, 0.37066653, 0.30229753
71, 1418455327, 0.7547477, 0.4487495, 0.3705679, 0.3027531
72, 1418471994, 0.7545256, 0.44831005, 0.3707557, 0.3037262
73, 1418488661, 0.7540998, 0.4475855, 0.37126586, 0.3052251
74, 1418505328, 0.75363225, 0.4469651, 0.3717663, 0.3066767
75, 1418521995, 0.7535723, 0.44705835, 0.3715671, 0.30692944
76, 1418538662, 0.7526293, 0.446052, 0.37265736, 0.3093759
77, 1418555329, 0.7523281, 0.44565228, 0.3728988, 0.3103918
78, 1418571996, 0.7527027, 0.44601312, 0.3722371, 0.30975866
79, 1418588663, 0.75219655, 0.4455062, 0.3727615, 0.31108424
80, 1418605330, 0.7524922, 0.4462765, 0.37194622, 0.31024027
81, 1418621997, 0.7520543, 0.44601318, 0.3722546, 0.31130916
82, 1418638664, 0.7523872, 0.4466375, 0.3716282, 0.3103566
83, 1418655331, 0.75360113, 0.44822058, 0.3698308, 0.30726027
84, 1418671998, 0.75376785, 0.4484885, 0.36953804, 0.30681235
85, 1418688665, 0.754042, 0.44887447, 0.36910635, 0.30609304
86, 1418705332, 0.7537619, 0.44839305, 0.3696031, 0.30688828
87, 1418721999, 0.753311, 0.44790968, 0.37029862, 0.307861
88, 1418738666, 0.75342584, 0.4483502, 0.37006664, 0.3072169
89, 1418755333, 0.75347626, 0.44848707, 0.3700236, 0.30694512
90, 1418772000, 0.753567, 0.44849506, 0.37001747, 0.30671817
91, 1418788667, 0.75334436, 0.44841596, 0.37037188, 0.3069528
92, 1418805334, 0.75320596, 0.448648, 0.3704526, 0.306856
93, 1418822001, 0.7531442, 0.44877303, 0.37042692, 0.30685583
94, 1418838668, 0.75310636, 0.44883245, 0.37043756, 0.3068487
95, 1418855335, 0.75299585, 0.4489993, 0.37054557, 0.30674598
96, 1418872002, 0.7527616, 0.44936657, 0.37074283, 0.30654466
97, 1418888669, 0.7525774, 0.4497292, 0.37079066, 0.30640736
98, 1418905336, 0.75263405, 0.4497425, 0.37068596, 0.3063749
99, 1418922003, 0.75266176, 0.44953892, 0.3707548, 0.30652255
100, 1418938670, 0.75263745, 0.44949856, 0.37089038, 0.30647743
101, 1418955337, 0.7526352, 0.44969127, 0.370885, 0.3062067
102, 1418972004, 0.75250787, 0.44953424, 0.3710034, 0.3066064
103, 1418988671, 0.75248516, 0.44933882, 0.37106085, 0.30687907
104, 1419005338, 0.75241554, 0.44938347, 0.37115937, 0.30686498
105, 1419022005, 0.7522777, 0.4495897, 0.37129277, 0.30673957
106, 1419038672, 0.7521056, 0.44959307, 0.3715005, 0.30690512
107, 1419055339, 0.7520741, 0.44962597, 0.37156138, 0.30686036
108, 1419072006, 0.7519546, 0.44972908, 0.371721, 0.30680892
109, 1419088673, 0.7517503, 0.44995573, 0.37195078, 0.30669868
110, 1419105340, 0.7517065, 0.45014626, 0.3719905, 0.30647784
111, 1419122007, 0.75136656, 0.44968247, 0.3725814, 0.3072737
112, 1419138674, 0.7513687, 0.449726, 0.3726881, 0.30707538
113, 1419155341, 0.7512025, 0.44966868, 0.3729966, 0.30719167
114, 1419172008, 0.75123376, 0.449687, 0.37308952, 0.30697507
115, 1419188675, 0.7512394, 0.44953164, 0.3732792, 0.30695835
116, 1419205342, 0.7512164, 0.44947723, 0.37346286, 0.30687094
117, 1419222009, 0.75127566, 0.44940573, 0.3735094, 0.3067742
118, 1419238676, 0.7513566, 0.44906217, 0.37362987, 0.30693194
119, 1419255343, 0.75135833, 0.44851896, 0.37399292, 0.30727962
120, 1419272010, 0.75163734, 0.44852886, 0.37389988, 0.30669543
121, 1419288677, 0.75172, 0.44810766, 0.37401327, 0.3069703
122, 1419305344, 0.7520687, 0.4475282, 0.37385106, 0.30715922
123, 1419322011, 0.7524889, 0.44677356, 0.37379673, 0.30729425
124, 1419338678, 0.7526475, 0.44612503, 0.3741348, 0.3074368
125, 1419355345, 0.7528, 0.445839, 0.3743405, 0.30722797
126, 1419372012, 0.75316685, 0.445344, 0.37434408, 0.30704236
127, 1419388679, 0.75364345, 0.44479546, 0.3743477, 0.30666354
128, 1419405346, 0.7538965, 0.44438818, 0.37467852, 0.30622798
129, 1419422013, 0.75382596, 0.44430774, 0.37526965, 0.305794
130, 1419438680, 0.7537593, 0.44430602, 0.37573582, 0.3053877
131, 1419455347, 0.7538284, 0.44398353, 0.37618223, 0.30513647
132, 1419472014, 0.75395644, 0.4435244, 0.3767105, 0.30483612
133, 1419488681, 0.7541156, 0.44311586, 0.37723237, 0.30439094
134, 1419505348, 0.7543246, 0.4427549, 0.3776278, 0.3039074
135, 1419522015, 0.75440776, 0.44220918, 0.37825382, 0.30371726
136, 1419538682, 0.7545396, 0.44197828, 0.378734, 0.30312732
137, 1419555349, 0.75457346, 0.44202814, 0.3790733, 0.3025453
138, 1419572016, 0.7547953, 0.44219947, 0.3790671, 0.30174795
139, 1419588683, 0.754666, 0.4416733, 0.37968755, 0.30206224
140, 1419605350, 0.7541118, 0.4406236, 0.38102338, 0.30329403
141, 1419622017, 0.7536422, 0.43978244, 0.38220656, 0.3041927
142, 1419638684, 0.7532458, 0.43881378, 0.3833223, 0.30516815
143, 1419655351, 0.7533629, 0.43821925, 0.38381305, 0.30511642
144, 1419672018, 0.75354207, 0.43776575, 0.38425338, 0.30477026
145, 1419688685, 0.75328356, 0.43699044, 0.38530487, 0.30519456
146, 1419705352, 0.7533389, 0.4367222, 0.38593426, 0.30464616
147, 1419722019, 0.75327224, 0.43637824, 0.38673025, 0.3042939
148, 1419738686, 0.7535122, 0.4361208, 0.38715497, 0.30352768
149, 1419755353, 0.7535904, 0.43529353, 0.3879219, 0.30354205
150, 1419772020, 0.7538368, 0.4346109, 0.38854393, 0.30311266
151, 1419788687, 0.75386775, 0.43387717, 0.38948005, 0.30288523
152, 1419805354, 0.75387233, 0.43330288, 0.39037648, 0.30254167
153, 1419822021, 0.7539574, 0.4328568, 0.39120588, 0.30189624
154, 1419838688, 0.75404733, 0.4323489, 0.3921577, 0.30116394
155, 1419855355, 0.7540675, 0.4319468, 0.3932266, 0.30029497
156, 1419872022, 0.7541373, 0.431471, 0.39420438, 0.29952076
157, 1419888689, 0.754369, 0.4307164, 0.3951006, 0.29884216
158, 1419905356, 0.75465953, 0.4298145, 0.39607432, 0.2981173
159, 1419922023, 0.75483394, 0.429086, 0.39719257, 0.29723614
160, 1419938690, 0.7550191, 0.42836407, 0.3982754, 0.2963566
161, 1419955357, 0.7553359, 0.42743894, 0.39930904, 0.29549265
162, 1419972024, 0.75568753, 0.4263961, 0.4003869, 0.2946405
163, 1419988691, 0.755958, 0.42546913, 0.4015261, 0.29373512
164, 1420005358, 0.7561954, 0.4246549, 0.40265337, 0.29275775
165, 1420022025, 0.7565121, 0.42368492, 0.40376356, 0.29181436
166, 1420038692, 0.75683767, 0.42265025, 0.40495703, 0.29081517
167, 1420055359, 0.75714475, 0.42152876, 0.40625733, 0.28982836
168, 1420072026, 0.7574249, 0.42041734, 0.40761614, 0.28880095
169, 1420088693, 0.7577613, 0.41918492, 0.40897003, 0.28779444
170, 1420105360, 0.7581776, 0.41772848, 0.41035283, 0.28684545
171, 1420122027, 0.75855625, 0.41622275, 0.4118517, 0.2858836
172, 1420138694, 0.75893366, 0.41462547, 0.4133812, 0.284994
173, 1420155361, 0.7594701, 0.41255987, 0.41503564, 0.28415692
174, 1420172028, 0.7598981, 0.41058725, 0.41694897, 0.2830671
175, 1420188695, 0.7600878, 0.40914205, 0.41893393, 0.28171575
176, 1420205362, 0.7602872, 0.4075899, 0.4207472, 0.28072387
177, 1420222029, 0.76056, 0.40585145, 0.42254224, 0.27980584
178, 1420238696, 0.7608001, 0.40402427, 0.42455608, 0.2787472
179, 1420255363, 0.76107836, 0.4020973, 0.426757, 0.2774092
180, 1420272030, 0.7614515, 0.40015277, 0.42898726, 0.27575213
181, 1420288697, 0.7618297, 0.39816853, 0.43117127, 0.2741696
182, 1420305364, 0.7622617, 0.396033, 0.43321508, 0.2728365
183, 1420322031, 0.7627991, 0.3935783, 0.43523547, 0.27166897
184, 1420338698, 0.7633231, 0.39104253, 0.4374452, 0.27030623
185, 1420355365, 0.763729, 0.38876587, 0.43983868, 0.26855415
186, 1420372032, 0.7639913, 0.38672608, 0.4422726, 0.26674962
187, 1420388699, 0.7643159, 0.38450515, 0.44457844, 0.26519293
188, 1420405366, 0.76464295, 0.3822097, 0.44694588, 0.26358426
189, 1420422033, 0.76463044, 0.3805259, 0.4495654, 0.26159346
190, 1420438700, 0.7643117, 0.3793361, 0.45232096, 0.25949448
191, 1420455367, 0.76407814, 0.3780027, 0.45496222, 0.2575031
192, 1420472034, 0.76406187, 0.37615836, 0.45757776, 0.25561097
193, 1420488701, 0.764285, 0.3737952, 0.4602212, 0.25365758
194, 1420505368, 0.7647132, 0.37122425, 0.4627228, 0.25158352
195, 1420522035, 0.76526487, 0.3684025, 0.46507478, 0.24970914
196, 1420538702, 0.7657376, 0.36564723, 0.4673706, 0.24801773
197, 1420555369, 0.76604867, 0.36294693, 0.46986428, 0.24630597
198, 1420572036, 0.7662953, 0.36038145, 0.47244018, 0.24437067
199, 1420588703, 0.7665346, 0.35792816, 0.47489575, 0.2424587
200, 1420605370, 0.7668754, 0.3553032, 0.47709078, 0.240928
201, 1420622037, 0.76726687, 0.35246822, 0.47926956, 0.23951723
202, 1420638704, 0.76746184, 0.3496388, 0.48175204, 0.23805511
203, 1420655371, 0.76740354, 0.34706938, 0.48463714, 0.23613912
204, 1420672038, 0.767218, 0.34484228, 0.48770273, 0.23368055
205, 1420688705, 0.7670229, 0.34258544, 0.4908037, 0.23113425
206, 1420705372, 0.7670391, 0.33983505, 0.4937256, 0.22890727
207, 1420722039, 0.76715404, 0.33654803, 0.4967712, 0.22677897
208, 1420738706, 0.7671515, 0.3331227, 0.5001109, 0.22449291
209, 1420755373, 0.76700723, 0.32993564, 0.5036084, 0.22185785
210, 1420772040, 0.7668021, 0.32697952, 0.50697494, 0.21926056
211, 1420788707, 0.7666254, 0.32380176, 0.51024175, 0.21700507
212, 1420805374, 0.7664945, 0.32042333, 0.51348007, 0.21483281
213, 1420822041, 0.76614463, 0.31734943, 0.51685876, 0.21252951
214, 1420838708, 0.765608, 0.3145616, 0.520287, 0.21023043
215, 1420855375, 0.7652467, 0.31150007, 0.5235279, 0.20804706
216, 1420872042, 0.76518965, 0.30781224, 0.5265335, 0.20615278
217, 1420888709, 0.7653039, 0.30362898, 0.5294129, 0.20455186
218, 1420905376, 0.7654215, 0.29936427, 0.53224206, 0.20305032
219, 1420922043, 0.7654388, 0.29524007, 0.53511834, 0.2014583
220, 1420938710, 0.7653261, 0.2914157, 0.53803974, 0.1996656
221, 1420955377, 0.7651105, 0.2877552, 0.5409983, 0.19779739
222, 1420972044, 0.76482105, 0.28417572, 0.54395604, 0.1959714
223, 1420988711, 0.7645214, 0.28040296, 0.5469877, 0.1941281
224, 1421005378, 0.76434326, 0.27617764, 0.5500386, 0.19225763
225, 1421022045, 0.7643616, 0.2716146, 0.5529044, 0.19045682
226, 1421038712, 0.7644833, 0.26668364, 0.5556475, 0.18894759
227, 1421055379, 0.7644099, 0.2617457, 0.5585696, 0.18752818
228, 1421072046, 0.76402986, 0.257399, 0.5616585, 0.18586081
229, 1421088713, 0.76338476, 0.25384992, 0.56475747, 0.18399197
230, 1421105380, 0.7625261, 0.25051874, 0.5679836, 0.18217936
231, 1421122047, 0.7616469, 0.24692713, 0.5713025, 0.18037376
232, 1421138714, 0.76079315, 0.24298434, 0.5746673, 0.17863391
233, 1421155381, 0.75989246, 0.23891154, 0.57806814, 0.17698017
234, 1421172048, 0.7591133, 0.23476623, 0.5812427, 0.17546773
235, 1421188715, 0.75839406, 0.23026302, 0.5843232, 0.17430975
236, 1421205382, 0.7576232, 0.22578534, 0.58736163, 0.17330447
237, 1421222049, 0.75669885, 0.22151533, 0.5905281, 0.17208831
238, 1421238716, 0.75553143, 0.21763347, 0.59395444, 0.17037103
239, 1421255383, 0.75421494, 0.21395211, 0.597594, 0.16812494
240, 1421272050, 0.7528267, 0.21071975, 0.6011768, 0.16563715
241, 1421288717, 0.75156575, 0.20742796, 0.6045317, 0.16329202
242, 1421305384, 0.75042814, 0.20362334, 0.60776573, 0.1612953
243, 1421322051, 0.74917674, 0.19965655, 0.6111174, 0.15939616
244, 1421338718, 0.74788344, 0.19536613, 0.6146285, 0.15727213
245, 1421355385, 0.7468151, 0.19082214, 0.6179935, 0.15471996
246, 1421372052, 0.7458855, 0.18634489, 0.6211079, 0.15216899
247, 1421388719, 0.74490833, 0.182014, 0.62417936, 0.14960825
248, 1421405386, 0.7438714, 0.17777474, 0.6272453, 0.14702064
249, 1421422053, 0.74276626, 0.17372824, 0.6303, 0.1443558
250, 1421438720, 0.74155545, 0.16953452, 0.633486, 0.14159496
251, 1421455387, 0.7402149, 0.16534764, 0.6367835, 0.13874021
252, 1421472054, 0.73883134, 0.16106977, 0.64006156, 0.13603605
253, 1421488721, 0.7375362, 0.15629655, 0.6432234, 0.13369948
254, 1421505388, 0.73641926, 0.15075436, 0.6462241, 0.13173622
255, 1421522055, 0.7351903, 0.14472826, 0.64936817, 0.12988444
256, 1421538722, 0.73373985, 0.13872616, 0.6526902, 0.12797056
257, 1421555389, 0.7320662, 0.13309325, 0.65612257, 0.12597024
258, 1421572056, 0.7303098, 0.12793097, 0.65951765, 0.12376514
259, 1421588723, 0.7284932, 0.1232398, 0.6628613, 0.12134569
260, 1421605390, 0.7265331, 0.119019434, 0.6662492, 0.11872776
261, 1421622057, 0.7244145, 0.115108155, 0.66972834, 0.11592237
262, 1421638724, 0.72227347, 0.111169316, 0.6732136, 0.11289831
263, 1421655391, 0.7202645, 0.10712572, 0.67651093, 0.109892316
264, 1421672058, 0.71838075, 0.10279296, 0.67962384, 0.1071181
265, 1421688725, 0.7165563, 0.09798441, 0.6826471, 0.104591236
266, 1421705392, 0.71473294, 0.09293174, 0.6856388, 0.10208011
267, 1421722059, 0.71283704, 0.08796091, 0.6886421, 0.0994912
268, 1421738726, 0.71095276, 0.08307373, 0.6915551, 0.09693721
269, 1421755393, 0.7090478, 0.07816064, 0.69440395, 0.09458097
270, 1421772060, 0.7072107, 0.07254661, 0.6971525, 0.09256594
271, 1421788727, 0.7055116, 0.06550048, 0.6997235, 0.09138036
272, 1421805394, 0.7038429, 0.057886556, 0.7021251, 0.09096745
273, 1421822061, 0.7019245, 0.051776484, 0.70462555, 0.09013407
274, 1421838728, 0.69961244, 0.047705714, 0.7074573, 0.088153325
275, 1421855395, 0.6971072, 0.045600414, 0.7104337, 0.08512598
276, 1421872062, 0.6947392, 0.044342604, 0.71320635, 0.0819019
277, 1421888729, 0.69254595, 0.04255705, 0.7157256, 0.07941029
278, 1421905396, 0.6906152, 0.03991728, 0.71793157, 0.07766313
279, 1421922063, 0.6888964, 0.03667071, 0.71986985, 0.07658101
280, 1421938730, 0.6873166, 0.03328139, 0.72162545, 0.07579689
281, 1421955397, 0.6857768, 0.030177921, 0.7233373, 0.07471749
282, 1421972064, 0.6841418, 0.027169097, 0.7251314, 0.07346086
283, 1421988731, 0.6825459, 0.024090158, 0.7268647, 0.07223975
284, 1422005398, 0.6810526, 0.021100406, 0.7284642, 0.07115017
285, 1422022065, 0.67982537, 0.018679272, 0.72978485, 0.07002003
286, 1422038732, 0.67866313, 0.016621342, 0.73102564, 0.06886096
287, 1422055399, 0.67741877, 0.0146149015, 0.7322986, 0.068038285
288, 1422072066, 0.6765029, 0.012451635, 0.7332293, 0.06755682
289, 1422088733, 0.67580324, 0.01034564, 0.73395205, 0.067061864
290, 1422105400, 0.67511964, 0.008570068, 0.73468167, 0.066204146
291, 1422122067, 0.6743401, 0.007402672, 0.7355221, 0.06494663
292, 1422138734, 0.6734007, 0.0072179567, 0.73653644, 0.06319353
293, 1422155401, 0.67245287, 0.007138043, 0.73753786, 0.061597466
294, 1422172068, 0.671589, 0.006610916, 0.7384387, 0.060273025
295, 1422188735, 0.6708196, 0.0056926394, 0.7392421, 0.059076454
296, 1422205402, 0.6701726, 0.0048276023, 0.73993236, 0.05784342
297, 1422222069, 0.66948175, 0.0043595536, 0.74064296, 0.056772724
298, 1422238736, 0.6687981, 0.003788076, 0.7413124, 0.05613138
299, 1422255403, 0.6681775, 0.0030476283, 0.74190146, 0.055783633
300, 1422272070, 0.6676737, 0.0024975515, 0.7424084, 0.055095695
301, 1422288737, 0.6671586, 0.0021323017, 0.74294645, 0.054087482
302, 1422305404, 0.6666851, 0.002042803, 0.7434465, 0.053049132
303, 1422322071, 0.6662085, 0.0020872643, 0.74393976, 0.052112747
304, 1422338738, 0.6658188, 0.001972865, 0.7443506, 0.05122083
305, 1422355405, 0.6654243, 0.0012864845, 0.7447427, 0.05066959
306, 1422372072, 0.6651654, 3.6189577E-4, 0.7449939, 0.050385952
307, 1422388739, 0.6649459, 2.735143E-5, 0.7452488, 0.049510453
308, 1422405406, 0.6646816, 2.1085067E-4, 0.7455644, 0.04829419
309, 1422422073, 0.664486, 2.9653744E-4, 0.7458071, 0.047226872
310, 1422438740, 0.66447693, 1.1309743E-4, 0.745869, 0.046367325
311, 1422455407, 0.66448575, -8.525222E-5, 0.74590987, 0.045576297
312, 1422472074, 0.66452575, -2.7106688E-4, 0.74591583, 0.044894923
313, 1422488741, 0.6646593, -4.434543E-4, 0.74583066, 0.0443226
314, 1422505408, 0.6649024, -4.4758836E-4, 0.7456499, 0.043715525
315, 1422522075, 0.6652083, -5.113237E-4, 0.74540573, 0.043223217
316, 1422538742, 0.66559464, -4.7208203E-4, 0.7450873, 0.042762283
317, 1422555409, 0.66579443, -3.180027E-4, 0.74493754, 0.042257514
318, 1422572076, 0.66600597, 7.257495E-6, 0.74477386, 0.041809257
319, 1422588743, 0.6661605, 8.4941887E-4, 0.7446847, 0.04091665
320, 1422605410, 0.6662997, 0.0017784638, 0.744621, 0.03976276
321, 1422622077, 0.66651076, 0.00219846, 0.74447054, 0.039016776
322, 1422638744, 0.66681176, 0.00239625, 0.7442253, 0.038538005
323, 1422655411, 0.66715324, 0.0022376461, 0.74392897, 0.038360614
324, 1422672078, 0.66759866, 0.0015739371, 0.7435201, 0.038567536
325, 1422688745, 0.66812277, 0.0011300707, 0.74304324, 0.03869791
326, 1422705412, 0.6685735, 0.0011110811, 0.7426471, 0.038517497
327, 1422722079, 0.6689795, 0.0011345474, 0.7422962, 0.038229153
328, 1422738746, 0.6693146, 0.0010820198, 0.74200284, 0.038063433
329, 1422755413, 0.66959065, 0.0010454505, 0.7417569, 0.037998587
330, 1422772080, 0.6698251, 0.0012943523, 0.74155575, 0.037785724
331, 1422788747, 0.6700101, 0.0021571554, 0.74143696, 0.036783382
332, 1422805414, 0.6701201, 0.0028400575, 0.7413897, 0.03567112
333, 1422822081, 0.67025656, 0.002579515, 0.7412971, 0.03504694
334, 1422838748, 0.6704742, 0.0016910639, 0.7411198, 0.034684945
335, 1422855415, 0.6706522, 0.0010249729, 0.7409768, 0.034322254
336, 1422872082, 0.67078817, 2.6329467E-4, 0.74086624, 0.03406788
337, 1422888749, 0.6709438, -5.59048E-4, 0.7407341, 0.03387055
338, 1422905416, 0.671038, -9.502135E-4, 0.7406672, 0.03345779
339, 1422922083, 0.6710161, -9.0884627E-4, 0.740712, 0.032902453
340, 1422938750, 0.6709553, -9.0733287E-4, 0.74078393, 0.032516044
341, 1422955417, 0.67081, -0.0012236001, 0.7409178, 0.03245349
342, 1422972084, 0.6706006, -0.0019314493, 0.7410966, 0.032664753
343, 1422988751, 0.67043275, -0.0025054615, 0.7412365, 0.03289773
344, 1423005418, 0.67027766, -0.0029617553, 0.7413692, 0.033031482
345, 1423022085, 0.6702047, -0.003713615, 0.74142325, 0.033221427
346, 1423038752, 0.6701216, -0.0042983303, 0.7414918, 0.033298854
347, 1423055419, 0.6699918, -0.0042794514, 0.7416157, 0.03315196
348, 1423072086, 0.66986126, -0.0038889505, 0.741752, 0.03278307
349, 1423088753, 0.66978997, -0.0034750272, 0.741839, 0.032320466
350, 1423105420, 0.669702, -0.0033401505, 0.74192667, 0.032142513
351, 1423122087, 0.6696414, -0.0034678483, 0.7419752, 0.032268226
352, 1423138754, 0.6695986, -0.003563552, 0.74200666, 0.032423925
353, 1423155421, 0.6695644, -0.0035748116, 0.7420399, 0.032365147
354, 1423172088, 0.66953254, -0.0034740127, 0.7420767, 0.03219341
355, 1423188755, 0.6694565, -0.0031530536, 0.74215335, 0.032038663
356, 1423205422, 0.66941243, -0.0029453672, 0.74219143, 0.03209716
357, 1423222089, 0.66945434, -0.0028059878, 0.7421544, 0.03209326
358, 1423238756, 0.6695145, -0.0026198043, 0.74210596, 0.0319743
359, 1423255423, 0.6695838, -0.0026531748, 0.74203813, 0.032092195
360, 1423272090, 0.6696525, -0.0027889865, 0.7419632, 0.032376703
361, 1423288757, 0.6697184, -0.002786814, 0.7418901, 0.032691676
362, 1423305424, 0.669762, -0.0026388203, 0.7418378, 0.032992613
363, 1423322091, 0.66980886, -0.0024092433, 0.74177915, 0.033381432
364, 1423338758, 0.6698695, -0.0020531523, 0.74169785, 0.033988174
365, 1423355425, 0.669883, -0.0010745844, 0.74166363, 0.034510884
366, 1423372092, 0.66982275, 4.4250325E-4, 0.7417162, 0.0345619
367, 1423388759, 0.6697486, 0.0018708254, 0.74178475, 0.034480035
368, 1423405426, 0.66992515, 0.0028352, 0.74159753, 0.035007626
369, 1423422093, 0.67023575, 0.003669057, 0.74126345, 0.036042448
370, 1423438760, 0.6706208, 0.004760052, 0.740868, 0.036878563
371, 1423455427, 0.671024, 0.006439639, 0.7404649, 0.03737849
372, 1423472094, 0.67137396, 0.008475402, 0.74010426, 0.037828095
373, 1423488761, 0.6718207, 0.010880424, 0.7396413, 0.038334996
374, 1423505428, 0.6722877, 0.013721643, 0.73915076, 0.038697056
375, 1423522095, 0.672704, 0.016612586, 0.73869056, 0.039112274
376, 1423538762, 0.67310596, 0.019261034, 0.7382188, 0.039882176
377, 1423555429, 0.6737845, 0.021534095, 0.73746955, 0.04110453
378, 1423572096, 0.6747664, 0.024261737, 0.7364092, 0.042462114
379, 1423588763, 0.6758022, 0.027669838, 0.7352832, 0.04341187
380, 1423605430, 0.6769997, 0.031240005, 0.7339734, 0.044482104
381, 1423622097, 0.67848825, 0.034786902, 0.73233426, 0.04615377
382, 1423638764, 0.6802694, 0.03869132, 0.73036, 0.048071478
383, 1423655431, 0.68204796, 0.043424424, 0.72832227, 0.04971782
384, 1423672098, 0.6838266, 0.04901026, 0.7261994, 0.051124666
385, 1423688765, 0.68586093, 0.05475647, 0.7237562, 0.052663695
386, 1423705432, 0.6881354, 0.060544863, 0.7209853, 0.05463113
387, 1423722099, 0.69044566, 0.06622845, 0.71805555, 0.057402387
388, 1423738766, 0.69281495, 0.071580864, 0.71498364, 0.060681038
389, 1423755433, 0.69544125, 0.07703722, 0.7115511, 0.064201586
390, 1423772100, 0.698054, 0.083053865, 0.7079738, 0.06779386
391, 1423788767, 0.7006651, 0.088932015, 0.7042887, 0.07167226
392, 1423805434, 0.70325655, 0.09479604, 0.7005101, 0.075694665
393, 1423822101, 0.70584834, 0.10118387, 0.6965529, 0.07971368
394, 1423838768, 0.7083741, 0.10784031, 0.6924205, 0.0844441
395, 1423855435, 0.7107569, 0.114953585, 0.68820035, 0.08938949
396, 1423872102, 0.7129248, 0.122398384, 0.68403244, 0.09410906
397, 1423888769, 0.71491396, 0.13015653, 0.6798817, 0.09858279
398, 1423905436, 0.71676224, 0.13800332, 0.6756649, 0.10336325
399, 1423922103, 0.7186085, 0.14570495, 0.67124254, 0.10865277
400, 1423938770, 0.72048014, 0.15336175, 0.6666177, 0.114059664
401, 1423955437, 0.7222634, 0.16063312, 0.6619651, 0.11972897
402, 1423972104, 0.7238702, 0.1674409, 0.65739083, 0.12574944
403, 1423988771, 0.7254742, 0.17357922, 0.65276796, 0.1321048
404, 1424005438, 0.72716856, 0.17974426, 0.64789814, 0.13836905
405, 1424022105, 0.72884905, 0.18579057, 0.6428991, 0.14471307
406, 1424038772, 0.7303804, 0.19191027, 0.6378916, 0.15102741
407, 1424055439, 0.7315411, 0.19850412, 0.63308465, 0.15699656
408, 1424072106, 0.7325394, 0.20531224, 0.6283475, 0.16251932
409, 1424088773, 0.7335293, 0.21187475, 0.6235455, 0.16803253
410, 1424105440, 0.73435247, 0.21837595, 0.6187607, 0.17370562
411, 1424122107, 0.7350277, 0.22482754, 0.61402994, 0.17931631
412, 1424138774, 0.73580205, 0.23086748, 0.60917103, 0.18494962
413, 1424155441, 0.73656994, 0.23659328, 0.60423195, 0.19076784
414, 1424172108, 0.7371951, 0.24225056, 0.5992822, 0.19677152
415, 1424188775, 0.73776513, 0.24767521, 0.59428525, 0.20294014
416, 1424205442, 0.7383047, 0.25298595, 0.5892561, 0.20900166
417, 1424222109, 0.73861337, 0.2584832, 0.5843256, 0.214943
418, 1424238776, 0.73879015, 0.26401982, 0.5794203, 0.22080521
419, 1424255443, 0.73893625, 0.2692627, 0.5745457, 0.22664544
420, 1424272110, 0.7390666, 0.27438733, 0.5696089, 0.2324611
421, 1424288777, 0.7390263, 0.27962786, 0.5646436, 0.23838256
422, 1424305444, 0.7389436, 0.28506258, 0.5594943, 0.24427028
423, 1424322111, 0.7388687, 0.29015014, 0.5542627, 0.25035727
424, 1424338778, 0.7387607, 0.2951573, 0.54895216, 0.25644982
425, 1424355445, 0.7384884, 0.30049846, 0.54369557, 0.26216593
426, 1424372112, 0.7380569, 0.3058899, 0.53849816, 0.26781172
427, 1424388779, 0.73768604, 0.31082824, 0.5332312, 0.27362347
428, 1424405446, 0.7373567, 0.31548056, 0.52797806, 0.27931437
429, 1424422113, 0.7368077, 0.32040286, 0.5228222, 0.28480408
430, 1424438780, 0.7359502, 0.3256846, 0.517818, 0.29012325
431, 1424455447, 0.7349813, 0.3309816, 0.5128865, 0.2952984
432, 1424472114, 0.7338916, 0.33616683, 0.5080944, 0.30039155
433, 1424488781, 0.73267186, 0.34160438, 0.5034189, 0.30507007
434, 1424505448, 0.7313483, 0.34697342, 0.49881053, 0.3097213
435, 1424522115, 0.7300816, 0.3519793, 0.4941213, 0.31454062
436, 1424538782, 0.7290199, 0.35642278, 0.489314, 0.31947604
437, 1424555449, 0.7280738, 0.36050677, 0.4844578, 0.32441396
438, 1424572116, 0.72703296, 0.3645409, 0.47963786, 0.32936397
439, 1424588783, 0.72604424, 0.36835027, 0.47476402, 0.33433124
440, 1424605450, 0.7250918, 0.37193042, 0.4700239, 0.33909765
441, 1424622117, 0.72390753, 0.37573078, 0.46558833, 0.34352848
442, 1424638784, 0.7224356, 0.37991893, 0.46147242, 0.3475512
443, 1424655451, 0.7207943, 0.38417834, 0.45749575, 0.35151163
444, 1424672118, 0.71915215, 0.38833132, 0.45349014, 0.35547954
445, 1424688785, 0.7175864, 0.39214227, 0.4493764, 0.35965982
446, 1424705452, 0.7161956, 0.395531, 0.44515565, 0.36394453
447, 1424722119, 0.7147782, 0.39882886, 0.4410059, 0.36815983
448, 1424738786, 0.71314734, 0.40231705, 0.43697786, 0.3723067
449, 1424755453, 0.7116088, 0.4055108, 0.43290687, 0.37651783
450, 1424772120, 0.71021926, 0.40842256, 0.4288361, 0.38063014
451, 1424788787, 0.70880866, 0.4112963, 0.42486215, 0.3846011
452, 1424805454, 0.7072263, 0.41421553, 0.420916, 0.38869825
453, 1424822121, 0.70560247, 0.4170612, 0.41697472, 0.39283234
454, 1424838788, 0.7039703, 0.41985384, 0.41325116, 0.39670184
455, 1424855455, 0.7022426, 0.42272636, 0.40979952, 0.40027755
456, 1424872122, 0.7003849, 0.42563194, 0.4064052, 0.40389755
457, 1424888789, 0.6986526, 0.4281591, 0.40286607, 0.407754
458, 1424905456, 0.697285, 0.43017235, 0.39934164, 0.4114266
459, 1424922123, 0.6958495, 0.43218985, 0.39617226, 0.4147926
460, 1424938790, 0.69415146, 0.43445152, 0.3933555, 0.41794428
461, 1424955457, 0.6924985, 0.43660915, 0.39067587, 0.4209402
462, 1424972124, 0.69099474, 0.43856394, 0.38814738, 0.42370945
463, 1424988791, 0.68949604, 0.44039777, 0.38576522, 0.42641565
464, 1425005458, 0.6882204, 0.44188002, 0.38348886, 0.42898878
465, 1425022125, 0.68718135, 0.44302174, 0.3814208, 0.43131402
466, 1425038792, 0.68624693, 0.44400337, 0.3795882, 0.43340412
467, 1425055459, 0.6853956, 0.44489715, 0.3779244, 0.4352847
468, 1425072126, 0.68461215, 0.44572133, 0.3763906, 0.437
469, 1425088793, 0.68403566, 0.4462543, 0.37499022, 0.43855974
470, 1425105460, 0.6836827, 0.44655272, 0.37388605, 0.43974754
471, 1425122127, 0.68315446, 0.44719476, 0.37320688, 0.4404925
472, 1425138794, 0.6824385, 0.44799846, 0.37268698, 0.44122538
473, 1425155461, 0.68184394, 0.4487042, 0.37213132, 0.4418958
474, 1425172128, 0.68146807, 0.44902197, 0.3715814, 0.44261473
475, 1425188795, 0.6809632, 0.44952628, 0.37126744, 0.4431432
476, 1425205462, 0.6804007, 0.45014876, 0.37121472, 0.4434195
477, 1425222129, 0.67994165, 0.45062378, 0.37115094, 0.44369444
478, 1425238796, 0.67972666, 0.4506458, 0.3710099, 0.4441193
479, 1425255463, 0.6795601, 0.45061865, 0.37089956, 0.4444937
480, 1425272130, 0.67935294, 0.45074815, 0.37090528, 0.44467425
481, 1425288797, 0.6791696, 0.45084864, 0.37090608, 0.44485167
482, 1425305464, 0.6790802, 0.45078152, 0.37084982, 0.44510293
483, 1425322131, 0.6791437, 0.4504606, 0.37081778, 0.44535765
484, 1425338798, 0.67920655, 0.45021603, 0.37094286, 0.44540495
485, 1425355465, 0.6792108, 0.45004863, 0.37106737, 0.44546404
486, 1425372132, 0.67934304, 0.449646, 0.37103486, 0.44569582
487, 1425388799, 0.6796403, 0.44906327, 0.37092403, 0.4459223
488, 1425405466, 0.679903, 0.44858152, 0.37097362, 0.44596553
489, 1425422133, 0.6799806, 0.44837055, 0.37122566, 0.44584957
490, 1425438800, 0.6799119, 0.44833177, 0.37161124, 0.4456724
491, 1425455467, 0.6798394, 0.44826606, 0.37198824, 0.44553423
492, 1425472134, 0.67988724, 0.44806436, 0.37228748, 0.44541425
493, 1425488801, 0.6800358, 0.44779694, 0.37250018, 0.4452784
494, 1425505468, 0.6801566, 0.44753662, 0.37267625, 0.44520834
495, 1425522135, 0.68034494, 0.44720176, 0.37275964, 0.44518724
496, 1425538802, 0.6805673, 0.44680738, 0.3728925, 0.44513214
497, 1425555469, 0.6806154, 0.44668525, 0.3732039, 0.44492015
498, 1425572136, 0.68059564, 0.4466645, 0.3735727, 0.44466195
499, 1425588803, 0.68067956, 0.446455, 0.37382832, 0.44452873
500, 1425605470, 0.680881, 0.44611296, 0.37405843, 0.44437033
501, 1425622137, 0.6810301, 0.44593343, 0.3743544, 0.44407228
502, 1425638804, 0.6810261, 0.4459185, 0.3745926, 0.44389266
503, 1425655471, 0.6812856, 0.4455092, 0.37454173, 0.44394818
504, 1425672138, 0.68175375, 0.4448762, 0.3745494, 0.443858
505, 1425688805, 0.682084, 0.4445305, 0.3748473, 0.4434453
506, 1425705472, 0.6822121, 0.44451556, 0.37524903, 0.4429232
507, 1425722139, 0.68242437, 0.44433618, 0.37548268, 0.44257766
508, 1425738806, 0.68301064, 0.44376644, 0.37553746, 0.44219857
509, 1425755473, 0.6838114, 0.4430567, 0.37569365, 0.44153944
510, 1425772140, 0.6845029, 0.44242445, 0.375942, 0.4408901
511, 1425788807, 0.685067, 0.44197708, 0.37623626, 0.44021115
512, 1425805474, 0.68584263, 0.4414871, 0.37672216, 0.43907794
513, 1425822141, 0.6868916, 0.44075236, 0.37748146, 0.4375215
514, 1425838808, 0.6881197, 0.43987095, 0.37827343, 0.43579146
515, 1425855475, 0.6893821, 0.43891528, 0.37898543, 0.43413806
516, 1425872142, 0.6905362, 0.4380222, 0.37986857, 0.43243068
517, 1425888809, 0.6911382, 0.43765396, 0.38143155, 0.43046144
518, 1425905476, 0.6907613, 0.4385632, 0.38361275, 0.42819673
519, 1425922143, 0.69008976, 0.43977875, 0.38579458, 0.4260674
520, 1425938810, 0.6898964, 0.44037014, 0.3874987, 0.42421916
521, 1425955477, 0.6903878, 0.44017282, 0.38845778, 0.42274496
522, 1425972144, 0.6915622, 0.4388335, 0.38866556, 0.42202616
523, 1425988811, 0.693024, 0.4367594, 0.38865656, 0.42178828
524, 1426005478, 0.69432616, 0.43495625, 0.3890955, 0.42110458
525, 1426022145, 0.6952209, 0.43398634, 0.3901446, 0.41965622
526, 1426038812, 0.6958631, 0.43336442, 0.3913808, 0.41807973
527, 1426055479, 0.69682354, 0.432324, 0.3921374, 0.416847
528, 1426072146, 0.698257, 0.4306545, 0.39259493, 0.41574413
529, 1426088813, 0.69982386, 0.42897692, 0.3930865, 0.4143774
530, 1426105480, 0.701136, 0.42757607, 0.3935634, 0.41315228
531, 1426122147, 0.702149, 0.42639837, 0.3939169, 0.41231167
532, 1426138814, 0.7031227, 0.4253549, 0.39430454, 0.41135868
533, 1426155481, 0.704087, 0.42465353, 0.39481178, 0.40994465
534, 1426172148, 0.7049363, 0.42405602, 0.39510658, 0.4088183
535, 1426188815, 0.7058409, 0.42321825, 0.39508554, 0.40814525
536, 1426205482, 0.706829, 0.42222247, 0.39520955, 0.40734598
537, 1426222149, 0.70751005, 0.4217327, 0.3959515, 0.40594798
538, 1426238816, 0.7078053, 0.42184308, 0.39716688, 0.40412712
539, 1426255483, 0.70819646, 0.4218169, 0.39841875, 0.40223217
540, 1426272150, 0.70902425, 0.4211826, 0.39972562, 0.4001368
541, 1426288817, 0.7099478, 0.4204419, 0.40122142, 0.39777404
542, 1426305484, 0.71084243, 0.4196745, 0.40266138, 0.3955253
543, 1426322151, 0.71187276, 0.41848254, 0.40396968, 0.3935965
544, 1426338818, 0.7131297, 0.41686198, 0.40519872, 0.39177293
545, 1426355485, 0.71452254, 0.41490844, 0.4065859, 0.38986754
546, 1426372152, 0.715856, 0.4129302, 0.40823445, 0.38779336
547, 1426388819, 0.71713346, 0.41109294, 0.41004086, 0.38547236
548, 1426405486, 0.7184035, 0.4092691, 0.41198426, 0.3829677
549, 1426422153, 0.71957636, 0.40755957, 0.41424435, 0.3801405
550, 1426438820, 0.72079295, 0.40565363, 0.41668373, 0.37719715
551, 1426455487, 0.7220944, 0.4035349, 0.41908932, 0.37430432
552, 1426472154, 0.72345144, 0.40126175, 0.42140046, 0.37152246
553, 1426488821, 0.72467405, 0.39912996, 0.42383626, 0.36865428
554, 1426505488, 0.7259043, 0.39687708, 0.4262107, 0.3659184
555, 1426522155, 0.72718513, 0.39436445, 0.42855427, 0.36334547
556, 1426538822, 0.72851753, 0.39181122, 0.4308492, 0.36071506
557, 1426555489, 0.7299598, 0.389104, 0.4331126, 0.35800928
558, 1426572156, 0.73136085, 0.38657847, 0.43528095, 0.35524538
559, 1426588823, 0.73267937, 0.38432354, 0.43737352, 0.35239342
560, 1426605490, 0.7338804, 0.38240868, 0.43944034, 0.34939286
561, 1426622157, 0.73511285, 0.3804222, 0.4414848, 0.34638026
562, 1426638824, 0.73615384, 0.3785054, 0.4435983, 0.34355763
563, 1426655491, 0.7371688, 0.376511, 0.44556743, 0.3410153
564, 1426672158, 0.7383693, 0.37422624, 0.4472441, 0.3387305
565, 1426688825, 0.73978823, 0.37140346, 0.4488358, 0.3366294
566, 1426705492, 0.7409541, 0.36867037, 0.45084694, 0.33437452
567, 1426722159, 0.74164736, 0.3663948, 0.45324785, 0.3320854
568, 1426738826, 0.7421636, 0.36424485, 0.45574903, 0.32986674
569, 1426755493, 0.7427188, 0.3621539, 0.45823604, 0.32746515
570, 1426772160, 0.7432535, 0.36030543, 0.46074688, 0.32475647
571, 1426788827, 0.74381596, 0.35831696, 0.46319824, 0.32217118
572, 1426805494, 0.74451226, 0.35591364, 0.46541265, 0.32002833
573, 1426822161, 0.7452507, 0.35338414, 0.46745613, 0.31812885
574, 1426838828, 0.7459925, 0.35106492, 0.4693015, 0.31623566
575, 1426855495, 0.7466028, 0.3492728, 0.47098818, 0.31426594
576, 1426872162, 0.7474721, 0.34675315, 0.47236556, 0.31291932
577, 1426888829, 0.74890834, 0.3431573, 0.47342256, 0.31185028
578, 1426905496, 0.75039715, 0.3393321, 0.47459403, 0.31067425
579, 1426922163, 0.7517387, 0.33555773, 0.47577208, 0.30972767
580, 1426938830, 0.7528381, 0.33197692, 0.4770667, 0.30892372
581, 1426955497, 0.75349337, 0.3287058, 0.4789079, 0.3079733
582, 1426972164, 0.7539861, 0.32536462, 0.4811268, 0.30685493
583, 1426988831, 0.7547992, 0.3217365, 0.48339453, 0.30511257
584, 1427005498, 0.7554359, 0.31833217, 0.48622245, 0.30260375
585, 1427022165, 0.7557071, 0.31561974, 0.48938683, 0.29965243
586, 1427038832, 0.7557292, 0.31357002, 0.49259767, 0.29647088
587, 1427055499, 0.7557184, 0.31193668, 0.49547622, 0.29340908
588, 1427072166, 0.75591654, 0.31004882, 0.4980524, 0.2905238
589, 1427088833, 0.7564301, 0.3070948, 0.50049967, 0.28810838
590, 1427105500, 0.7572576, 0.3033635, 0.50273275, 0.28599206
591, 1427122167, 0.75795925, 0.29960954, 0.5048412, 0.28437257
592, 1427138834, 0.7582249, 0.2963696, 0.50688714, 0.28341764
593, 1427155501, 0.7586386, 0.2932006, 0.50864106, 0.28246284
594, 1427172168, 0.7590909, 0.29028928, 0.5103397, 0.28118834
595, 1427188835, 0.75960195, 0.28792015, 0.5118412, 0.27951008
596, 1427205502, 0.75988954, 0.286239, 0.5133937, 0.27760053
597, 1427222169, 0.7596026, 0.28522757, 0.51529354, 0.27590147
598, 1427238836, 0.75929594, 0.28469053, 0.516939, 0.2742173
599, 1427255503, 0.7596054, 0.28342852, 0.51799136, 0.27267736
600, 1427272170, 0.7600283, 0.28193054, 0.51890635, 0.27130872
601, 1427288837, 0.7603522, 0.2807283, 0.51964456, 0.27023274
602, 1427305504, 0.7606845, 0.27984938, 0.520011, 0.26950377
603, 1427322171, 0.76126367, 0.27923262, 0.5197453, 0.26902002
604, 1427338838, 0.76216006, 0.2785525, 0.5189789, 0.26866636
605, 1427355505, 0.7630757, 0.27790594, 0.5182381, 0.26816624
606, 1427372172, 0.7640558, 0.27701625, 0.51753324, 0.26765695
607, 1427388839, 0.76522464, 0.27577737, 0.5168448, 0.26692644
608, 1427405506, 0.766351, 0.27467018, 0.5163885, 0.26571682
609, 1427422173, 0.7669497, 0.27409622, 0.51647764, 0.26440582
610, 1427438840, 0.76726276, 0.27382118, 0.5167931, 0.26316318
611, 1427455507, 0.76754665, 0.2735896, 0.51725155, 0.2616712
612, 1427472174, 0.7675531, 0.27357727, 0.51814765, 0.2598861
613, 1427488841, 0.7672602, 0.27385977, 0.51934826, 0.25805038
614, 1427505508, 0.7670859, 0.27396983, 0.52041507, 0.2562962
615, 1427522175, 0.76710796, 0.273692, 0.5212978, 0.2547287
616, 1427538842, 0.7672478, 0.2733256, 0.5218992, 0.25346637
617, 1427555509, 0.76746553, 0.2728207, 0.52221876, 0.2526923
618, 1427572176, 0.7676501, 0.27204996, 0.5225838, 0.25220674
619, 1427588843, 0.7681115, 0.2709742, 0.5228269, 0.25145495
620, 1427605510, 0.768744, 0.27006355, 0.52297306, 0.25019506
621, 1427622177, 0.76922154, 0.26939362, 0.52321434, 0.2489419
622, 1427638844, 0.76946294, 0.2690953, 0.52352667, 0.24785975
623, 1427655511, 0.7695195, 0.26911458, 0.5238924, 0.24688832
624, 1427672178, 0.7698285, 0.2689339, 0.5239664, 0.2459637
625, 1427688845, 0.7703962, 0.26835835, 0.5237838, 0.24520235
626, 1427705512, 0.77076966, 0.26794454, 0.5237276, 0.24460074
627, 1427722179, 0.7711993, 0.2676225, 0.523535, 0.24401082
628, 1427738846, 0.77173644, 0.2672345, 0.52323925, 0.2433708
629, 1427755513, 0.77233315, 0.26697177, 0.5228326, 0.24263895
630, 1427772180, 0.77272725, 0.2671265, 0.5225217, 0.24188271
631, 1427788847, 0.7731411, 0.26736233, 0.5221135, 0.24118076
632, 1427805514, 0.77365214, 0.26735568, 0.5216539, 0.24054268
633, 1427822181, 0.7742421, 0.26729062, 0.5211254, 0.2398609
634, 1427838848, 0.774704, 0.26747102, 0.52069026, 0.23911253
635, 1427855515, 0.77489126, 0.26801014, 0.5204359, 0.2384547
636, 1427872182, 0.775149, 0.26854327, 0.5200824, 0.23778793
637, 1427888849, 0.7755218, 0.26906934, 0.51958466, 0.23706464
638, 1427905516, 0.7757021, 0.26979005, 0.51916105, 0.23658326
639, 1427922183, 0.77581525, 0.27045652, 0.5187285, 0.23639992
640, 1427938850, 0.775823, 0.2710761, 0.51840556, 0.23637298
641, 1427955517, 0.7759109, 0.27173004, 0.5179233, 0.23639119
642, 1427972184, 0.77598816, 0.27252406, 0.5173636, 0.2364491
643, 1427988851, 0.7758819, 0.27370557, 0.5168252, 0.23661007
644, 1428005518, 0.77573466, 0.27490118, 0.5162411, 0.23698156
645, 1428022185, 0.77562815, 0.2759464, 0.5156755, 0.2373467
646, 1428038852, 0.7755649, 0.27698442, 0.5151192, 0.23755231
647, 1428055519, 0.77541304, 0.27820876, 0.5145827, 0.23778006
648, 1428072186, 0.77530646, 0.2794145, 0.51399314, 0.23798901
649, 1428088853, 0.77524143, 0.28068787, 0.51336443, 0.23805901
650, 1428105520, 0.77520484, 0.28197902, 0.5127318, 0.2380157
651, 1428122187, 0.77513903, 0.28333762, 0.51209337, 0.23799121
652, 1428138854, 0.77518165, 0.2845357, 0.51130825, 0.23811096
653, 1428155521, 0.77533346, 0.2855419, 0.51045436, 0.23824376
654, 1428172188, 0.77557564, 0.28650376, 0.5095431, 0.2382513
655, 1428188855, 0.7758533, 0.2873717, 0.5086136, 0.2382882
656, 1428205522, 0.77616006, 0.2880434, 0.50775623, 0.23830709
657, 1428222189, 0.77618676, 0.28890207, 0.5071969, 0.23837176
658, 1428238856, 0.7761143, 0.28972837, 0.5068074, 0.23843317
659, 1428255523, 0.7760708, 0.29045933, 0.5064192, 0.23851062
660, 1428272190, 0.77601296, 0.29106185, 0.50599176, 0.23887137
661, 1428288857, 0.77595365, 0.2913211, 0.5056152, 0.23954459
662, 1428305524, 0.7758862, 0.29151204, 0.50528264, 0.24023123
663, 1428322191, 0.77579504, 0.29176885, 0.5049607, 0.24088918
664, 1428338858, 0.7757251, 0.29200125, 0.5046083, 0.24157047
665, 1428355525, 0.77569866, 0.29224357, 0.5042338, 0.24214402
666, 1428372192, 0.77572525, 0.29241863, 0.50385433, 0.24263707
667, 1428388859, 0.7757654, 0.29256177, 0.5034761, 0.24312025
668, 1428405526, 0.7758346, 0.29278055, 0.5029944, 0.24363282
669, 1428422193, 0.77597666, 0.2928808, 0.5024605, 0.24416162
670, 1428438860, 0.77615505, 0.29286155, 0.5019307, 0.24470639
671, 1428455527, 0.77630687, 0.29282862, 0.50143343, 0.245283
672, 1428472194, 0.7764298, 0.2927993, 0.5010129, 0.24578756
673, 1428488861, 0.7764703, 0.29280615, 0.5007483, 0.2461909
674, 1428505528, 0.77647364, 0.29285368, 0.50054204, 0.24654223
675, 1428522195, 0.77643156, 0.29291525, 0.5004563, 0.24677566
676, 1428538862, 0.7763983, 0.29299176, 0.50039697, 0.24690966
677, 1428555529, 0.7763889, 0.29299596, 0.50034255, 0.24704489
678, 1428572196, 0.7763247, 0.29305348, 0.50035864, 0.24714568
679, 1428588863, 0.7762553, 0.29310787, 0.5004033, 0.24720879
680, 1428605530, 0.77622485, 0.2931052, 0.5004492, 0.24721484
681, 1428622197, 0.77620614, 0.29309064, 0.50047976, 0.24722858
682, 1428638864, 0.77622294, 0.29296935, 0.50049645, 0.24728599
683, 1428655531, 0.7762662, 0.2927818, 0.5004474, 0.24747148
684, 1428672198, 0.77638614, 0.29243225, 0.5003687, 0.24766755
685, 1428688865, 0.77644354, 0.2921561, 0.5003798, 0.24779133
686, 1428705532, 0.77648443, 0.29189375, 0.50041664, 0.2478983
687, 1428722199, 0.7765583, 0.2916363, 0.50045824, 0.24788521
688, 1428738866, 0.7766029, 0.29144529, 0.50053984, 0.24780516
689, 1428755533, 0.77660054, 0.29119337, 0.50070107, 0.24778292
690, 1428772200, 0.77656573, 0.29089183, 0.5009492, 0.24774484
691, 1428788867, 0.77651376, 0.29061636, 0.5012593, 0.24760382
692, 1428805534, 0.7763968, 0.29039073, 0.501662, 0.24741991
693, 1428822201, 0.7762263, 0.29013556, 0.5021014, 0.24736324
694, 1428838868, 0.7760316, 0.28995293, 0.502489, 0.24740124
695, 1428855535, 0.7759302, 0.28974628, 0.5027568, 0.24741653
696, 1428872202, 0.7757844, 0.28976655, 0.5029577, 0.24744199
697, 1428888869, 0.7756058, 0.28988326, 0.503139, 0.24749681
698, 1428905536, 0.7753664, 0.28999525, 0.5034769, 0.24742857
699, 1428922203, 0.775049, 0.290173, 0.50394726, 0.24725738
700, 1428938870, 0.7746448, 0.29037657, 0.50453573, 0.24708454
701, 1428955537, 0.77419907, 0.29066598, 0.50517553, 0.24683411
702, 1428972204, 0.77377254, 0.29092047, 0.5058602, 0.24646854
703, 1428988871, 0.77335286, 0.29120782, 0.5066093, 0.24590752
704, 1429005538, 0.7730528, 0.2914428, 0.507327, 0.24509157
705, 1429022205, 0.7727646, 0.29164875, 0.508091, 0.24417076
706, 1429038872, 0.7725851, 0.29165208, 0.5087917, 0.24327415
707, 1429055539, 0.7724155, 0.29141837, 0.5094816, 0.24264811
708, 1429072206, 0.7724118, 0.29100874, 0.50997126, 0.24212265
709, 1429088873, 0.77252096, 0.2905366, 0.510348, 0.24154699
710, 1429105540, 0.7726305, 0.2899003, 0.5108347, 0.24093184
711, 1429122207, 0.7723497, 0.2893449, 0.51179725, 0.24045557
712, 1429138874, 0.77191675, 0.28864288, 0.513039, 0.2400435
713, 1429155541, 0.7714558, 0.28775874, 0.51436055, 0.23975907
714, 1429172208, 0.77115107, 0.2866239, 0.51558673, 0.23946422
715, 1429188875, 0.7709414, 0.2852907, 0.5166868, 0.23936081
716, 1429205542, 0.7707564, 0.2841454, 0.5176304, 0.23928031
717, 1429222209, 0.7704691, 0.2831157, 0.5185556, 0.23942226
718, 1429238876, 0.76974446, 0.28259277, 0.5196853, 0.23992102
719, 1429255543, 0.7690166, 0.28249052, 0.5206969, 0.24018218
720, 1429272210, 0.76856285, 0.28214213, 0.52156854, 0.24015296
721, 1429288877, 0.76837194, 0.28174353, 0.5222306, 0.23979221
722, 1429305544, 0.7684727, 0.28115758, 0.52264327, 0.23925762
723, 1429322211, 0.76866215, 0.28049776, 0.52299154, 0.23866253
724, 1429338878, 0.76878744, 0.28015164, 0.52327627, 0.23804006
725, 1429355545, 0.76859844, 0.28039026, 0.52356803, 0.23772772
726, 1429372212, 0.76829076, 0.28096324, 0.5237572, 0.23762941
727, 1429388879, 0.76803195, 0.28143305, 0.52383566, 0.23773657
728, 1429405546, 0.767865, 0.28174648, 0.5238021, 0.2379785
729, 1429422213, 0.7677205, 0.28196296, 0.52375865, 0.23828416
730, 1429438880, 0.76754653, 0.28232282, 0.52368647, 0.23857632
731, 1429455547, 0.7672217, 0.2830618, 0.5236396, 0.23884806
732, 1429472214, 0.7667067, 0.28409788, 0.5236406, 0.23926936
733, 1429488881, 0.7662748, 0.2850053, 0.523517, 0.23984349
734, 1429505548, 0.76592296, 0.28557268, 0.5233886, 0.24057221
735, 1429522215, 0.76556814, 0.28598565, 0.52331257, 0.2413749
736, 1429538882, 0.76520413, 0.2863223, 0.5232294, 0.2423079
737, 1429555549, 0.76479113, 0.28676322, 0.5231511, 0.24325803
738, 1429572216, 0.76439226, 0.28730696, 0.52295005, 0.24430001
739, 1429588883, 0.764084, 0.28775114, 0.52255154, 0.24559113
740, 1429605550, 0.7638215, 0.28811464, 0.5219963, 0.24715744
741, 1429622217, 0.7636964, 0.28836992, 0.521145, 0.24903607
742, 1429638884, 0.7636111, 0.28865522, 0.52011514, 0.2511113
743, 1429655551, 0.7635937, 0.28877443, 0.5188229, 0.25368685
744, 1429672218, 0.7637448, 0.28874332, 0.51723665, 0.25649092
745, 1429688885, 0.76392287, 0.28880492, 0.5155497, 0.2592725
746, 1429705552, 0.7639197, 0.28931257, 0.5139455, 0.26188716
747, 1429722219, 0.7639492, 0.28998923, 0.5121662, 0.2645253
748, 1429738886, 0.764008, 0.2907215, 0.51029146, 0.26716188
749, 1429755553, 0.7638447, 0.29164952, 0.508607, 0.26981604
750, 1429772220, 0.76362056, 0.29275078, 0.50691533, 0.27242935
751, 1429788887, 0.76323307, 0.29410416, 0.50544435, 0.27478057
752, 1429805554, 0.7626994, 0.29564053, 0.50399363, 0.27726704
753, 1429822221, 0.762342, 0.29703817, 0.50227845, 0.27985683
754, 1429838888, 0.7620067, 0.2981687, 0.5006268, 0.28251433
755, 1429855555, 0.76155674, 0.2994486, 0.49917176, 0.28493768
756, 1429872222, 0.76111966, 0.30082268, 0.49763036, 0.28734407
757, 1429888889, 0.760695, 0.30194744, 0.4960456, 0.29001704
758, 1429905556, 0.7601465, 0.30289516, 0.49465716, 0.29282475
759, 1429922223, 0.7593739, 0.30413035, 0.49354288, 0.29541776
760, 1429938890, 0.7583682, 0.30611414, 0.4925956, 0.2975257
761, 1429955557, 0.7575294, 0.30803034, 0.491401, 0.29965287
762, 1429972224, 0.7569297, 0.3094821, 0.49010816, 0.30178207
763, 1429988891, 0.7563086, 0.31075522, 0.4890789, 0.3036949
764, 1430005558, 0.7555075, 0.31228086, 0.48819274, 0.3055438
765, 1430022225, 0.7546205, 0.3139933, 0.48728624, 0.30742204
766, 1430038892, 0.7539914, 0.3156733, 0.48603842, 0.3092153
767, 1430055559, 0.7535717, 0.3171453, 0.48464394, 0.3109163
768, 1430072226, 0.7530597, 0.31854704, 0.48341852, 0.31262675
769, 1430088893, 0.75251406, 0.3197065, 0.48240831, 0.31431296
770, 1430105560, 0.75191504, 0.32085904, 0.48155773, 0.3158727
771, 1430122227, 0.75114405, 0.3225103, 0.48079368, 0.31718656
772, 1430138894, 0.75030816, 0.32485828, 0.48004192, 0.31790677
773, 1430155561, 0.7495716, 0.32713893, 0.47923192, 0.3185267
774, 1430172228, 0.74895585, 0.32896683, 0.47845355, 0.3192623
775, 1430188895, 0.74828815, 0.33052504, 0.4777971, 0.3202002
776, 1430205562, 0.74743867, 0.33234668, 0.47714555, 0.32126838
777, 1430222229, 0.74659175, 0.33445653, 0.47640264, 0.32214916
778, 1430238896, 0.7457776, 0.33642948, 0.4754975, 0.32331565
779, 1430255563, 0.7449786, 0.33854935, 0.4745765, 0.3242966
780, 1430272230, 0.7445185, 0.3404102, 0.4733251, 0.32523263
781, 1430288897, 0.74436116, 0.34164044, 0.47191775, 0.32634678
782, 1430305564, 0.7443277, 0.34249955, 0.47038516, 0.327732
783, 1430322231, 0.7441403, 0.3436515, 0.46901602, 0.32891172
784, 1430338898, 0.7438552, 0.34509233, 0.46759775, 0.33006594
785, 1430355565, 0.74399644, 0.34592822, 0.46576545, 0.3314597
786, 1430372232, 0.74459285, 0.3457807, 0.46380872, 0.33301497
787, 1430388899, 0.7450501, 0.34563434, 0.46234968, 0.3341709
788, 1430405566, 0.7448526, 0.346559, 0.46151504, 0.3348066
789, 1430422233, 0.7446051, 0.34776676, 0.46063226, 0.33531985
790, 1430438900, 0.74474984, 0.3483176, 0.4596087, 0.33583093
791, 1430455567, 0.74501354, 0.3485133, 0.4586924, 0.33629584
792, 1430472234, 0.7452775, 0.34867027, 0.45795694, 0.33655
793, 1430488901, 0.7454303, 0.34928563, 0.45723158, 0.33656016
794, 1430505568, 0.74529207, 0.35084245, 0.45648816, 0.33625612
795, 1430522235, 0.7452969, 0.35227615, 0.45539877, 0.33622342
796, 1430538902, 0.74560463, 0.3528287, 0.45414522, 0.33665693
797, 1430555569, 0.7458545, 0.35296983, 0.4530161, 0.33747596
798, 1430572236, 0.7456633, 0.3538687, 0.45202827, 0.33828062
799, 1430588903, 0.74523467, 0.35551453, 0.45093635, 0.33895627
800, 1430605570, 0.7450696, 0.35692856, 0.44954354, 0.33968204
801, 1430622237, 0.7450044, 0.358157, 0.44809344, 0.34044725
802, 1430638904, 0.74512017, 0.35888827, 0.4465341, 0.34147125
803, 1430655571, 0.745154, 0.35956398, 0.4450137, 0.34266934
804, 1430672238, 0.7450731, 0.36034933, 0.4434914, 0.3439915
805, 1430688905, 0.74504906, 0.36124754, 0.4419856, 0.34503773
806, 1430705572, 0.74534154, 0.3618694, 0.4403045, 0.3459029
807, 1430722239, 0.74604815, 0.3620466, 0.4382069, 0.34685642
808, 1430738906, 0.7468911, 0.36177996, 0.43608782, 0.34798914
809, 1430755573, 0.74793744, 0.36115602, 0.43373924, 0.34932256
810, 1430772240, 0.74896026, 0.36052963, 0.4312833, 0.35081565
811, 1430788907, 0.7499008, 0.35994864, 0.4289609, 0.35224774
812, 1430805574, 0.7505816, 0.3595182, 0.4269995, 0.35361764
813, 1430822241, 0.75074714, 0.3600817, 0.4254469, 0.3545629
814, 1430838908, 0.7503527, 0.3617002, 0.4243873, 0.3550202
815, 1430855575, 0.749621, 0.36374623, 0.42381606, 0.3551584
816, 1430872242, 0.74874365, 0.3658846, 0.42365703, 0.35500193
817, 1430888909, 0.74777025, 0.3680019, 0.4238253, 0.3546639
818, 1430905576, 0.74660176, 0.37024054, 0.4242549, 0.35428196
819, 1430922243, 0.7455354, 0.37237334, 0.42437315, 0.3541508
820, 1430938910, 0.7448575, 0.37404615, 0.42397907, 0.35428602
821, 1430955577, 0.74454874, 0.37482828, 0.423294, 0.35492703
822, 1430972244, 0.7445516, 0.3746568, 0.42239356, 0.3561729
823, 1430988911, 0.7445061, 0.37416774, 0.42158195, 0.35774
824, 1431005578, 0.7442115, 0.37413096, 0.42081147, 0.35929555
825, 1431022245, 0.74383616, 0.3743788, 0.4199022, 0.36087492
826, 1431038912, 0.74334043, 0.37470663, 0.4190121, 0.3625865
827, 1431055579, 0.7426825, 0.3753096, 0.41831353, 0.3641145
828, 1431072246, 0.7418587, 0.3760836, 0.41786897, 0.36550295
829, 1431088913, 0.741052, 0.37654224, 0.41741475, 0.36718243
830, 1431105580, 0.7401797, 0.3771828, 0.41702974, 0.36871865
831, 1431122247, 0.73912966, 0.37807685, 0.41689467, 0.37005958
832, 1431138914, 0.7380535, 0.3791135, 0.41698134, 0.3710481
833, 1431155581, 0.73703146, 0.37978423, 0.41729456, 0.3720404
834, 1431172248, 0.73598343, 0.38039795, 0.4176259, 0.37311485
835, 1431188915, 0.7349957, 0.3811886, 0.41803592, 0.37379488
836, 1431205582, 0.7340927, 0.38207096, 0.41875958, 0.37385863
837, 1431222249, 0.7333645, 0.38287696, 0.4196889, 0.3734209
838, 1431238916, 0.7329147, 0.38344106, 0.42053962, 0.37276745
839, 1431255583, 0.73291975, 0.38348496, 0.42115283, 0.37201968
840, 1431272250, 0.7333889, 0.3828334, 0.421551, 0.371314
841, 1431288917, 0.7341614, 0.3817439, 0.42174783, 0.37068513
842, 1431305584, 0.73509115, 0.38034835, 0.42174467, 0.3702804
843, 1431322251, 0.73606557, 0.37886578, 0.42162558, 0.37000012
844, 1431338918, 0.73692286, 0.37763995, 0.42151722, 0.3696702
845, 1431355585, 0.73754734, 0.37676883, 0.42153183, 0.36929688
846, 1431372252, 0.7379438, 0.37619284, 0.42163423, 0.368975
847, 1431388919, 0.73827404, 0.3757656, 0.42169058, 0.36868513
848, 1431405586, 0.7386406, 0.3753772, 0.42167386, 0.3683659
849, 1431422253, 0.739056, 0.37492806, 0.42154247, 0.3681402
850, 1431438920, 0.7394269, 0.3745157, 0.4213463, 0.36803952
851, 1431455587, 0.73976547, 0.37427026, 0.4210304, 0.36797056
852, 1431472254, 0.7400434, 0.37423024, 0.42070803, 0.36782107
853, 1431488921, 0.7403354, 0.3741908, 0.42036974, 0.36766037
854, 1431505588, 0.74066055, 0.37407285, 0.42003262, 0.3675108
855, 1431522255, 0.7409966, 0.3738738, 0.4197465, 0.36736295
856, 1431538922, 0.7412573, 0.3737731, 0.41952404, 0.36719337
857, 1431555589, 0.7414572, 0.3738027, 0.41936988, 0.36693558
858, 1431572256, 0.74160564, 0.37391165, 0.41925722, 0.36665326
859, 1431588923, 0.7416972, 0.37412968, 0.41909266, 0.36643374
860, 1431605590, 0.74175227, 0.37431085, 0.41889557, 0.36636263
861, 1431622257, 0.7418517, 0.37441707, 0.41866517, 0.36631635
862, 1431638924, 0.74199927, 0.37436616, 0.418493, 0.36626592
863, 1431655591, 0.7421412, 0.37431762, 0.418468, 0.36605662
864, 1431672258, 0.7423396, 0.3741655, 0.4184897, 0.3657848
865, 1431688925, 0.7425673, 0.37395746, 0.41853592, 0.3654824
866, 1431705592, 0.7427932, 0.37373716, 0.41863972, 0.36512983
867, 1431722259, 0.74305034, 0.37351814, 0.41878247, 0.36466667
868, 1431738926, 0.7433993, 0.3733512, 0.41890407, 0.3639864
869, 1431755593, 0.7438774, 0.3729479, 0.41902223, 0.3632865
870, 1431772260, 0.7444464, 0.3723249, 0.41909707, 0.36267248
871, 1431788927, 0.74507606, 0.37157688, 0.41909248, 0.36215168
872, 1431805594, 0.74575675, 0.3708404, 0.4191075, 0.36148742
873, 1431822261, 0.7464376, 0.37016553, 0.41922095, 0.36064148
874, 1431838928, 0.7471732, 0.36941448, 0.41933858, 0.35975066
875, 1431855595, 0.74788535, 0.36872602, 0.41948685, 0.35880303
876, 1431872262, 0.7486153, 0.36807334, 0.41959608, 0.35782164
877, 1431888929, 0.74940944, 0.36731014, 0.41965967, 0.35686794
878, 1431905596, 0.7501631, 0.36656514, 0.41978765, 0.35589874
879, 1431922263, 0.7507465, 0.3660558, 0.42005458, 0.3548764
880, 1431938930, 0.7512643, 0.36560938, 0.42040923, 0.35381916
881, 1431955597, 0.7517343, 0.36519113, 0.42085359, 0.35272294
882, 1431972264, 0.7520864, 0.3649258, 0.4214111, 0.35157907
883, 1431988931, 0.7524301, 0.36465105, 0.42194343, 0.3504886
884, 1432005598, 0.7528163, 0.36427364, 0.42240286, 0.3494975
885, 1432022265, 0.7532028, 0.3638759, 0.42287433, 0.3485076
886, 1432038932, 0.75357705, 0.36355296, 0.423285, 0.3475355
887, 1432055599, 0.75392675, 0.3632719, 0.42363295, 0.34664568
888, 1432072266, 0.7543035, 0.3629354, 0.42394993, 0.3457902
889, 1432088933, 0.7547601, 0.36251655, 0.424203, 0.3449214
890, 1432105600, 0.75511724, 0.36227652, 0.42450935, 0.344014
891, 1432122267, 0.755432, 0.36215818, 0.42474872, 0.34315073
892, 1432138934, 0.7557819, 0.36196226, 0.42489472, 0.3424054
893, 1432155601, 0.7559432, 0.3615067, 0.42523515, 0.34210822
894, 1432172268, 0.7560353, 0.36125168, 0.42558798, 0.3417355
895, 1432188935, 0.7561334, 0.36141598, 0.42580807, 0.34106946
896, 1432205602, 0.75616616, 0.36143008, 0.4260298, 0.34070477
897, 1432222269, 0.7562192, 0.36133283, 0.42630064, 0.34035158
898, 1432238936, 0.7562839, 0.3612113, 0.42659864, 0.33996278
899, 1432255603, 0.7564007, 0.36103153, 0.42684156, 0.33958864
900, 1432272270, 0.756519, 0.360843, 0.4270102, 0.3393134
901, 1432288937, 0.75662684, 0.3608155, 0.4271432, 0.33893475
902, 1432305604, 0.7566881, 0.36085582, 0.42733327, 0.3385149
903, 1432322271, 0.7567592, 0.36084273, 0.4274981, 0.33816192
904, 1432338938, 0.7568407, 0.36078727, 0.42763382, 0.33786702
905, 1432355605, 0.75691086, 0.36079672, 0.42774606, 0.3375576
906, 1432372272, 0.7570317, 0.36074063, 0.42775267, 0.3373385
907, 1432388939, 0.75725746, 0.36057138, 0.4275848, 0.3372251
908, 1432405606, 0.75754595, 0.36030528, 0.42733526, 0.33717814
909, 1432422273, 0.7578451, 0.36008206, 0.4270774, 0.33707085
910, 1432438940, 0.75810736, 0.36004984, 0.42687723, 0.336769
911, 1432455607, 0.7582841, 0.36019063, 0.42678615, 0.33633548
912, 1432472274, 0.7583557, 0.36051545, 0.4267939, 0.33581606
913, 1432488941, 0.7583677, 0.36095425, 0.4268196, 0.33528447
914, 1432505608, 0.7583604, 0.36137196, 0.42679915, 0.33487687
915, 1432522275, 0.7584125, 0.3616843, 0.42663664, 0.33462834
916, 1432538942, 0.7585082, 0.36183736, 0.42640084, 0.3345465
917, 1432555609, 0.75863045, 0.3619064, 0.42611828, 0.33455467
918, 1432572276, 0.75875527, 0.36192414, 0.4258695, 0.33456928
919, 1432588943, 0.758808, 0.36197314, 0.42569906, 0.3346136
920, 1432605610, 0.75877833, 0.36209464, 0.4256196, 0.33465064
921, 1432622277, 0.75864154, 0.3623612, 0.4256087, 0.334686
922, 1432638944, 0.7585349, 0.3627006, 0.42553622, 0.33465195
923, 1432655611, 0.75850075, 0.36281154, 0.4254501, 0.33471885
924, 1432672278, 0.7585149, 0.3627606, 0.42526197, 0.3349809
925, 1432688945, 0.75861514, 0.36244172, 0.42499968, 0.33543164
926, 1432705612, 0.75870585, 0.36218202, 0.4247523, 0.33582017
927, 1432722279, 0.7586175, 0.362133, 0.42471197, 0.3361236
928, 1432738946, 0.7586102, 0.36214548, 0.42468122, 0.3361655
929, 1432755613, 0.7585973, 0.36199108, 0.42470348, 0.33633265
930, 1432772280, 0.75843996, 0.36178523, 0.42480078, 0.33678585
931, 1432788947, 0.7583304, 0.361739, 0.42484066, 0.33703163
932, 1432805614, 0.75827205, 0.36159775, 0.42493945, 0.3371899
933, 1432822281, 0.75815463, 0.36154374, 0.42512688, 0.33727577
934, 1432838948, 0.75798213, 0.36153173, 0.42532185, 0.33743083
935, 1432855615, 0.75791967, 0.36144155, 0.4254086, 0.337558
936, 1432872282, 0.758031, 0.36122385, 0.4253564, 0.33760658
937, 1432888949, 0.7581066, 0.3608324, 0.42539963, 0.3378012
938, 1432905616, 0.75807154, 0.36046687, 0.42559308, 0.33802626
939, 1432922283, 0.7579671, 0.36012614, 0.42585364, 0.33829555
940, 1432938950, 0.7579969, 0.35990742, 0.4259369, 0.3383564
941, 1432955617, 0.75784665, 0.35925543, 0.4262005, 0.33905372
942, 1432972284, 0.7579344, 0.35873237, 0.42626792, 0.3393263
943, 1432988951, 0.7580697, 0.35850596, 0.426351, 0.33915868
944, 1433005618, 0.75809276, 0.35804284, 0.42662898, 0.33924693
945, 1433022285, 0.7580132, 0.35729963, 0.4270428, 0.3396874
946, 1433038952, 0.75809205, 0.356655, 0.42728198, 0.33988816
947, 1433055619, 0.75785005, 0.35580474, 0.42787325, 0.34057468
948, 1433072286, 0.7576587, 0.35532025, 0.428409, 0.3408321
949, 1433088953, 0.75762343, 0.35495523, 0.4288293, 0.34076244
950, 1433105620, 0.7575983, 0.35424927, 0.42933038, 0.3409221
951, 1433122287, 0.75777483, 0.35335463, 0.42970085, 0.3409915
952, 1433138954, 0.7580413, 0.3522636, 0.42995313, 0.3412097
953, 1433155621, 0.7585358, 0.3511004, 0.4299425, 0.34132347
954, 1433172288, 0.75920784, 0.3498766, 0.42975056, 0.3413272
955, 1433188955, 0.7600215, 0.34865516, 0.4294482, 0.34114704
956, 1433205622, 0.76072925, 0.347685, 0.42919853, 0.34087405
957, 1433222289, 0.7612627, 0.3471881, 0.42900866, 0.34042817
958, 1433238956, 0.76160663, 0.34706667, 0.4289763, 0.33982304
959, 1433255623, 0.7618426, 0.34724534, 0.42905316, 0.33901286
960, 1433272290, 0.762039, 0.34735966, 0.42915943, 0.33831954
961, 1433288957, 0.7622359, 0.34733415, 0.42919517, 0.3378565
962, 1433305624, 0.7624395, 0.34717324, 0.4291408, 0.33763131
963, 1433322291, 0.7627167, 0.34682477, 0.42895964, 0.33759367
964, 1433338958, 0.7630172, 0.3463801, 0.42874262, 0.3376471
965, 1433355625, 0.7632878, 0.3460324, 0.4285326, 0.33765858
966, 1433372292, 0.7635717, 0.34561768, 0.42825764, 0.33779046
967, 1433388959, 0.7638903, 0.34507865, 0.42795178, 0.33800837
968, 1433405626, 0.76408875, 0.34475586, 0.42775223, 0.33814222
969, 1433422293, 0.7640749, 0.3448552, 0.42765716, 0.3381921
970, 1433438960, 0.7639956, 0.34503666, 0.42753667, 0.3383386
971, 1433455627, 0.7639081, 0.34515238, 0.42742202, 0.338563
