DeviceTag:,Xsens DOT 4,,,,,,,,,,,,,,,,,
FirmwareVersion:,1.3.0,,,,,,,,,,,,,,,,,
AppVersion:,2020.1.1,,,,,,,,,,,,,,,,,
Measurement Mode:,Sensor fusion Mode - Orientation (Quaternion),,,,,,,,,,,,,,,,,
StartTime:,2020-08-10 12:07:23.720 +0200,,,,,,,,,,,,,,,,,
© Xsens Technologies B. V. 2005-2020,,,,,,,,,,,,,,,,,,,
PacketCounter,SampleTimeFine,Quat_W,Quat_X,Quat_Y,Quat_Z
1, 1396889716, 0.8970105, -0.021684712, -0.068330705, 0.43615708
2, 1396906383, 0.89662766, -0.022540815, -0.06802402, 0.43694815
3, 1396923050, 0.89643943, -0.022829872, -0.06733027, 0.43742657
4, 1396939717, 0.8964653, -0.023097118, -0.067016296, 0.43740782
5, 1396956384, 0.8965719, -0.023246082, -0.066505894, 0.43725926
6, 1396973051, 0.8967214, -0.022968622, -0.065954395, 0.4370507
7, 1396989718, 0.8968708, -0.022470355, -0.06532403, 0.4368649
8, 1397006385, 0.8970538, -0.022156043, -0.06472805, 0.43659362
9, 1397023052, 0.8972589, -0.021591967, -0.064202234, 0.4362781
10, 1397039719, 0.8973692, -0.020566817, -0.06397534, 0.43613422
11, 1397056386, 0.89745134, -0.02005103, -0.06383218, 0.43600973
12, 1397073053, 0.89761066, -0.02009083, -0.06342005, 0.43574017
13, 1397089720, 0.8977149, -0.019997751, -0.06306233, 0.43558145
14, 1397106387, 0.89771557, -0.019780695, -0.06300757, 0.43559805
15, 1397123054, 0.89773566, -0.019247161, -0.062842414, 0.43560463
16, 1397139721, 0.8978343, -0.01848178, -0.06245572, 0.4354898
17, 1397156388, 0.8977229, -0.017711123, -0.062103584, 0.43580154
18, 1397173055, 0.8971713, -0.016838748, -0.061875563, 0.43700293
19, 1397189722, 0.89683056, -0.016150601, -0.06136216, 0.43780005
20, 1397206389, 0.89700806, -0.015737722, -0.06042666, 0.43758184
21, 1397223056, 0.89700806, -0.01526685, -0.059626345, 0.43770805
22, 1397239723, 0.8969515, -0.01483084, -0.059155088, 0.43790287
23, 1397256390, 0.89736474, -0.014767198, -0.058627404, 0.43712878
24, 1397273057, 0.89709306, -0.014785308, -0.058123693, 0.43775254
25, 1397289724, 0.8970339, -0.015321902, -0.05800015, 0.43787178
26, 1397306391, 0.89693564, -0.016348137, -0.05823884, 0.4380043
27, 1397323058, 0.8966681, -0.017208809, -0.058514033, 0.43848193
28, 1397339725, 0.89681196, -0.017380107, -0.0587651, 0.43814734
29, 1397356392, 0.8968794, -0.016681982, -0.0588925, 0.43801957
30, 1397373059, 0.8974874, -0.015268181, -0.05891989, 0.43682033
31, 1397389726, 0.89734447, -0.0137902675, -0.059039038, 0.43714672
32, 1397406393, 0.89671147, -0.012833434, -0.059131373, 0.43846035
33, 1397423060, 0.8965124, -0.012326596, -0.059314292, 0.4388572
34, 1397439727, 0.89633816, -0.011883233, -0.05966937, 0.4391767
35, 1397456394, 0.89593375, -0.011572979, -0.05989915, 0.43997815
36, 1397473061, 0.89579254, -0.010964159, -0.059722587, 0.4403051
37, 1397489728, 0.8960656, -0.010097096, -0.05960938, 0.43978578
38, 1397506395, 0.89636284, -0.009846073, -0.059664343, 0.43917766
39, 1397523062, 0.8963563, -0.01011684, -0.059745587, 0.4391738
40, 1397539729, 0.89634836, -0.010368038, -0.05975804, 0.4391825
41, 1397556396, 0.8961381, -0.010141511, -0.0598101, 0.4396094
42, 1397573063, 0.89575064, -0.009912699, -0.059785318, 0.44040707
43, 1397589730, 0.8955402, -0.00999529, -0.059753004, 0.44083732
44, 1397606397, 0.89463615, -0.010168231, -0.059714753, 0.4426702
45, 1397623064, 0.8945264, -0.010275351, -0.05970012, 0.4428917
46, 1397639731, 0.8945775, -0.010193487, -0.05972926, 0.44278625
47, 1397656398, 0.8945789, -0.010146551, -0.059920616, 0.4427588
48, 1397673065, 0.89442617, -0.010089355, -0.060000356, 0.44305775
49, 1397689732, 0.8941766, -0.01000608, -0.059966028, 0.44356778
50, 1397706399, 0.8941572, -0.009806388, -0.059887856, 0.443622
51, 1397723066, 0.89410055, -0.009622919, -0.059836153, 0.4437471
52, 1397739733, 0.89404047, -0.009412012, -0.059620794, 0.44390166
53, 1397756400, 0.8941489, -0.009205497, -0.05910222, 0.44375685
54, 1397773067, 0.8941362, -0.009307725, -0.058619, 0.44384468
55, 1397789734, 0.89384145, -0.008782302, -0.058318604, 0.4444878
56, 1397806401, 0.8929275, -0.007106087, -0.057612386, 0.44644228
57, 1397823068, 0.89251673, -0.007323566, -0.055681128, 0.44750437
58, 1397839735, 0.8932857, -0.007535946, -0.05675971, 0.44582766
59, 1397856402, 0.89221543, -0.005548263, -0.05963864, 0.4476206
60, 1397873069, 0.89149016, -0.0040784907, -0.06257993, 0.44867867
61, 1397889736, 0.8908777, -0.0035942139, -0.06506383, 0.44954526
62, 1397906403, 0.8901865, -0.0029594698, -0.06721366, 0.45060164
63, 1397923070, 0.88946134, -0.0024749218, -0.06931021, 0.45171735
64, 1397939737, 0.88885015, -0.0019169418, -0.07062583, 0.4527183
65, 1397956404, 0.8886388, -0.0012794082, -0.07074494, 0.45311677
66, 1397973071, 0.88840806, -7.8412326E-4, -0.07106642, 0.45351982
67, 1397989738, 0.8881165, 1.2189637E-4, -0.07164261, 0.4540008
68, 1398006405, 0.88765883, 0.0012022075, -0.07255446, 0.454749
69, 1398023072, 0.88718134, 0.0024343655, -0.073397666, 0.45553938
70, 1398039739, 0.8868584, 0.0036398384, -0.07409005, 0.45604762
71, 1398056406, 0.8864977, 0.004786132, -0.075064175, 0.45657888
72, 1398073073, 0.88623166, 0.0059446646, -0.075746916, 0.45696864
73, 1398089740, 0.8859432, 0.0067498586, -0.07622882, 0.45743677
74, 1398106407, 0.88556165, 0.007281585, -0.07666973, 0.4580934
75, 1398123074, 0.8851842, 0.007674679, -0.076843664, 0.4587866
76, 1398139741, 0.88499105, 0.008538671, -0.076720074, 0.4591645
77, 1398156408, 0.8849154, 0.0092600575, -0.07669807, 0.45930007
78, 1398173075, 0.8849588, 0.009566889, -0.07644836, 0.4592516
79, 1398189742, 0.8850955, 0.00918304, -0.07582134, 0.45910004
80, 1398206409, 0.8852852, 0.008021017, -0.0747689, 0.45892847
81, 1398223076, 0.88532054, 0.0068978043, -0.07403207, 0.45899817
82, 1398239743, 0.8853036, 0.006151806, -0.07351563, 0.45912468
83, 1398256410, 0.8852556, 0.005790936, -0.073069274, 0.45929313
84, 1398273077, 0.8853158, 0.0056059915, -0.072438516, 0.45927903
85, 1398289744, 0.88545007, 0.0054881526, -0.07185056, 0.4591139
86, 1398306411, 0.88552684, 0.0051519284, -0.07169682, 0.4589938
87, 1398323078, 0.88554215, 0.0046012234, -0.07163722, 0.45897964
88, 1398339745, 0.8855584, 0.0041609197, -0.071432054, 0.45898446
89, 1398356412, 0.8855879, 0.0044669113, -0.07102838, 0.4589872
90, 1398373079, 0.88558584, 0.005239533, -0.07075931, 0.45902464
91, 1398389746, 0.88559675, 0.0059111733, -0.070536695, 0.4590298
92, 1398406413, 0.88565433, 0.0059980685, -0.06998829, 0.45900157
93, 1398423080, 0.88579184, 0.005923254, -0.06928922, 0.4588429
94, 1398439747, 0.8859691, 0.006670788, -0.06860078, 0.45859408
95, 1398456414, 0.88615894, 0.007732946, -0.0680362, 0.45829445
96, 1398473081, 0.88628274, 0.008319804, -0.06763887, 0.45810366
97, 1398489748, 0.88631374, 0.008379895, -0.06742958, 0.45807323
98, 1398506415, 0.8863462, 0.0081444075, -0.06737671, 0.4580225
99, 1398523082, 0.88639104, 0.00828639, -0.067455456, 0.4579217
100, 1398539749, 0.88639313, 0.008397718, -0.06760663, 0.45789295
101, 1398556416, 0.88628507, 0.008357565, -0.06785454, 0.45806623
102, 1398573083, 0.8862087, 0.008520825, -0.06794443, 0.45819783
103, 1398589750, 0.8862704, 0.009162566, -0.067851506, 0.4580796
104, 1398606417, 0.8863931, 0.009880568, -0.06758641, 0.4578664
105, 1398623084, 0.88647795, 0.010192494, -0.06719116, 0.4577536
106, 1398639751, 0.88643885, 0.010464854, -0.06685886, 0.4578718
107, 1398656418, 0.8863643, 0.010977467, -0.06669769, 0.4580279
108, 1398673085, 0.8863783, 0.011715917, -0.066490375, 0.45801228
109, 1398689752, 0.8864936, 0.011983833, -0.066079825, 0.45784193
110, 1398706419, 0.88660705, 0.011873656, -0.06568275, 0.45768213
111, 1398723086, 0.8866394, 0.011860523, -0.065507784, 0.4576446
112, 1398739753, 0.8866119, 0.012133922, -0.0655162, 0.45768964
113, 1398756420, 0.8866736, 0.012504561, -0.06517549, 0.45760873
114, 1398773087, 0.8867849, 0.012875059, -0.064845085, 0.45742968
115, 1398789754, 0.88681746, 0.013027633, -0.064717054, 0.45738035
116, 1398806421, 0.88685, 0.012766236, -0.064440064, 0.45736387
117, 1398823088, 0.8869706, 0.012228637, -0.06380424, 0.45723385
118, 1398839755, 0.8871265, 0.01192111, -0.06314956, 0.45703033
119, 1398856422, 0.88725144, 0.01156141, -0.06286916, 0.4568355
120, 1398873089, 0.8872456, 0.010684086, -0.06278577, 0.45687973
121, 1398889756, 0.8871039, 0.009440064, -0.062487792, 0.45722303
122, 1398906423, 0.88707966, 0.008523738, -0.06196386, 0.4573596
123, 1398923090, 0.8871646, 0.008351576, -0.06164142, 0.45724142
124, 1398939757, 0.88721496, 0.008200568, -0.06161235, 0.45715043
125, 1398956424, 0.8870793, 0.0071212323, -0.061356124, 0.45746619
126, 1398973091, 0.8870383, 0.005892472, -0.060953967, 0.4576168
127, 1398989758, 0.88693345, 0.005424997, -0.060771514, 0.45784974
128, 1399006425, 0.8869529, 0.005809316, -0.06069061, 0.45781806
129, 1399023092, 0.8870621, 0.0057469485, -0.06020718, 0.45767134
130, 1399039759, 0.8874307, 0.005239537, -0.05923941, 0.45708853
131, 1399056426, 0.8875643, 0.004763701, -0.058253877, 0.45696107
132, 1399073093, 0.88766754, 0.004291686, -0.0574187, 0.45687112
133, 1399089760, 0.88787776, 0.0040107337, -0.056503963, 0.45657906
134, 1399106427, 0.8879233, 0.0038949638, -0.055607107, 0.45660168
135, 1399123094, 0.888067, 0.003402156, -0.054671466, 0.45643914
136, 1399139761, 0.88815635, 0.0029299892, -0.05367537, 0.45638666
137, 1399156428, 0.888424, 0.0026020806, -0.052452922, 0.4560099
138, 1399173095, 0.8890681, 0.0024876148, -0.051032186, 0.4549148
139, 1399189762, 0.8889032, 0.0028144417, -0.049790807, 0.45537275
140, 1399206429, 0.8887263, 0.0027074905, -0.04904877, 0.455799
141, 1399223096, 0.88836944, 0.0022843091, -0.048474718, 0.45655787
142, 1399239763, 0.88809204, 0.002198012, -0.04800598, 0.4571469
143, 1399256430, 0.8877603, 0.0021066226, -0.0478008, 0.45781264
144, 1399273097, 0.88798946, 0.0018013541, -0.04765939, 0.45738417
145, 1399289764, 0.8875212, 0.0020481115, -0.047565494, 0.4583007
146, 1399306431, 0.88753605, 0.0025821612, -0.04753208, 0.45827284
147, 1399323098, 0.88726395, 0.002916737, -0.04730539, 0.45882073
148, 1399339765, 0.8873476, 0.0028598944, -0.046866935, 0.45870465
149, 1399356432, 0.8872995, 0.0030174267, -0.046344627, 0.45884934
150, 1399373099, 0.88744247, 0.0034727876, -0.045719493, 0.45863238
151, 1399389766, 0.8873533, 0.003225244, -0.044901818, 0.45888758
152, 1399406433, 0.8872998, 0.0026581832, -0.043641414, 0.45911604
153, 1399423100, 0.8875004, 0.0026058115, -0.042238064, 0.4588598
154, 1399439767, 0.887327, 0.0028281102, -0.040913347, 0.45931366
155, 1399456434, 0.887272, 0.0028220136, -0.03946824, 0.45954654
156, 1399473101, 0.887261, 0.0024203027, -0.03789253, 0.4597023
157, 1399489768, 0.88724846, 0.0021771074, -0.036456525, 0.45984405
158, 1399506435, 0.8870747, 0.0018857374, -0.035073794, 0.46028808
159, 1399523102, 0.8871543, 0.0010124862, -0.033678427, 0.46024168
160, 1399539769, 0.88714224, 2.633515E-4, -0.032231193, 0.46036947
161, 1399556436, 0.8870221, -1.3971247E-4, -0.03056829, 0.46071422
162, 1399573103, 0.88742346, -1.21951314E-4, -0.028784096, 0.46005574
163, 1399589770, 0.8875506, -4.4791674E-4, -0.027067194, 0.45991462
164, 1399606437, 0.8876057, -0.0012560907, -0.025169881, 0.45991418
165, 1399623104, 0.887797, -0.0018323929, -0.023145108, 0.45964912
166, 1399639771, 0.8881378, -0.0020403625, -0.021265412, 0.45908046
167, 1399656438, 0.8884617, -0.0024112354, -0.019478723, 0.45853114
168, 1399673105, 0.8883766, -0.0031753085, -0.017708313, 0.45876294
169, 1399689772, 0.88806933, -0.00395383, -0.015866928, 0.45941868
170, 1399706439, 0.88791513, -0.004649612, -0.014008129, 0.4597705
171, 1399723106, 0.8876832, -0.0056839776, -0.01210583, 0.46026045
172, 1399739773, 0.88750494, -0.006742047, -0.009861448, 0.46064356
173, 1399756440, 0.8873215, -0.0076103033, -0.0077454033, 0.46102375
174, 1399773107, 0.8870177, -0.00845249, -0.0058909995, 0.4616206
175, 1399789774, 0.8865915, -0.009534417, -0.0034207958, 0.46244252
176, 1399806441, 0.8863389, -0.010332967, -5.9882383E-5, 0.46292198
177, 1399823108, 0.8863066, -0.01073955, 0.0033726043, 0.46296245
178, 1399839775, 0.886243, -0.010984545, 0.006301467, 0.4630475
179, 1399856442, 0.8860056, -0.011432002, 0.008899586, 0.46344852
180, 1399873109, 0.885579, -0.012042993, 0.011260454, 0.4641963
181, 1399889776, 0.8851612, -0.012864122, 0.013736297, 0.46490398
182, 1399906443, 0.8848273, -0.01375555, 0.016572747, 0.46542126
183, 1399923110, 0.88459027, -0.014196004, 0.019623246, 0.46574005
184, 1399939777, 0.884394, -0.014233187, 0.022562498, 0.46597838
185, 1399956444, 0.88409376, -0.014527831, 0.025722593, 0.46637514
186, 1399973111, 0.8836675, -0.01568294, 0.029637996, 0.46691275
187, 1399989778, 0.8833469, -0.016897095, 0.034091145, 0.4671729
188, 1400006445, 0.883164, -0.017558543, 0.0384305, 0.46715784
189, 1400023112, 0.8829526, -0.01836883, 0.04271079, 0.4671544
190, 1400039779, 0.88264894, -0.019789252, 0.04739818, 0.46721813
191, 1400056446, 0.88225555, -0.021367276, 0.051938266, 0.46740904
192, 1400073113, 0.881946, -0.02268385, 0.056101713, 0.46744958
193, 1400089780, 0.8815562, -0.023781426, 0.0597187, 0.46768242
194, 1400106447, 0.8809516, -0.025194064, 0.0630453, 0.46831077
195, 1400123114, 0.88023496, -0.026699647, 0.06632958, 0.46912077
196, 1400139781, 0.8796623, -0.027721647, 0.06974342, 0.46964025
197, 1400156448, 0.87922996, -0.02816186, 0.07329214, 0.46988294
198, 1400173115, 0.87882954, -0.028548231, 0.076625906, 0.47007662
199, 1400189782, 0.8781967, -0.029858176, 0.079752, 0.4706579
200, 1400206449, 0.8775975, -0.031807043, 0.08341168, 0.47101334
201, 1400223116, 0.8771537, -0.03348781, 0.08746937, 0.47098768
202, 1400239783, 0.87678415, -0.03441315, 0.09153262, 0.4708368
203, 1400256450, 0.87651426, -0.034480993, 0.09551855, 0.47054243
204, 1400273117, 0.8761436, -0.034317546, 0.09907704, 0.47050893
205, 1400289784, 0.87545455, -0.03501019, 0.102785215, 0.47094503
206, 1400306451, 0.87464404, -0.03610111, 0.10690311, 0.47145164
207, 1400323118, 0.8739879, -0.03651185, 0.11122117, 0.47163752
208, 1400339785, 0.87345, -0.036067713, 0.1155601, 0.4716253
209, 1400356452, 0.87279207, -0.03556147, 0.11958832, 0.4718772
210, 1400373119, 0.87172806, -0.036366332, 0.12359181, 0.4727502
211, 1400389786, 0.87056965, -0.038021173, 0.12828, 0.47350538
212, 1400406453, 0.8696833, -0.038663127, 0.13357897, 0.4736168
213, 1400423120, 0.86895037, -0.03849104, 0.13901071, 0.473413
214, 1400439787, 0.8681343, -0.038655613, 0.14460401, 0.47322145
215, 1400456454, 0.8669881, -0.039873566, 0.14988405, 0.47357827
216, 1400473121, 0.8655002, -0.041969717, 0.15462641, 0.47459322
217, 1400489788, 0.86403984, -0.04378702, 0.15935712, 0.47552443
218, 1400506455, 0.86278886, -0.04502307, 0.1641226, 0.4760589
219, 1400523122, 0.8616116, -0.045945495, 0.16878308, 0.47647318
220, 1400539789, 0.86032873, -0.047079407, 0.17335434, 0.47703913
221, 1400556456, 0.85885376, -0.048955243, 0.17806202, 0.4777738
222, 1400573123, 0.85737354, -0.05074157, 0.18291853, 0.47841072
223, 1400589790, 0.85602516, -0.052050114, 0.18769178, 0.47883576
224, 1400606457, 0.8546855, -0.05332354, 0.19217952, 0.4793085
225, 1400623124, 0.8530551, -0.055264965, 0.1960813, 0.4804113
226, 1400639791, 0.8513159, -0.056601882, 0.1999434, 0.48174712
227, 1400656458, 0.84997314, -0.056264125, 0.20426983, 0.4823423
228, 1400673125, 0.84857225, -0.054586783, 0.21005717, 0.482516
229, 1400689792, 0.84663236, -0.053293414, 0.2169414, 0.4830217
230, 1400706459, 0.84449023, -0.052708883, 0.22353442, 0.48382896
231, 1400723126, 0.84238195, -0.05123799, 0.22982356, 0.48471496
232, 1400739793, 0.840637, -0.049732123, 0.23525111, 0.48529705
233, 1400756460, 0.8390608, -0.04797812, 0.239969, 0.48589125
234, 1400773127, 0.83739215, -0.046579327, 0.24398111, 0.4869068
235, 1400789794, 0.8355886, -0.04594542, 0.24736902, 0.4883539
236, 1400806461, 0.83373857, -0.046157148, 0.25052756, 0.4898831
237, 1400823128, 0.83196706, -0.04695393, 0.2537353, 0.4911665
238, 1400839795, 0.8302146, -0.04754518, 0.25759163, 0.4920668
239, 1400856462, 0.828347, -0.048066724, 0.2624611, 0.49259013
240, 1400873129, 0.8261536, -0.0495034, 0.2681152, 0.49308628
241, 1400889796, 0.8237133, -0.05194887, 0.2741369, 0.49360618
242, 1400906463, 0.8214866, -0.05412165, 0.28033382, 0.49360287
243, 1400923130, 0.81955564, -0.055467892, 0.28675908, 0.4929717
244, 1400939797, 0.8176186, -0.05694348, 0.29306, 0.49231407
245, 1400956464, 0.8154522, -0.05892109, 0.29869196, 0.49229008
246, 1400973131, 0.81322813, -0.06090714, 0.3034437, 0.4928207
247, 1400989798, 0.8112562, -0.06255156, 0.30782345, 0.49314857
248, 1401006465, 0.8092905, -0.06463088, 0.31233984, 0.49327037
249, 1401023132, 0.80733764, -0.06656722, 0.31707016, 0.4931952
250, 1401039799, 0.8054401, -0.06793081, 0.3216843, 0.49312338
251, 1401056466, 0.8035819, -0.0691462, 0.32598954, 0.49315917
252, 1401073133, 0.8016768, -0.07054953, 0.32989758, 0.49346212
253, 1401089800, 0.7996619, -0.07201159, 0.3332796, 0.49424705
254, 1401106467, 0.7975662, -0.073144704, 0.33607095, 0.4955747
255, 1401123134, 0.79553753, -0.073768854, 0.33827975, 0.49723724
256, 1401139801, 0.7934924, -0.07455519, 0.34019262, 0.49907973
257, 1401156468, 0.7913183, -0.07549996, 0.3425263, 0.5007905
258, 1401173135, 0.78899735, -0.07596991, 0.34613177, 0.5019014
259, 1401189802, 0.78644454, -0.07670997, 0.3506161, 0.5026818
260, 1401206469, 0.7837421, -0.07799667, 0.35589308, 0.50299627
261, 1401223136, 0.7810895, -0.07907494, 0.3618684, 0.50269043
262, 1401239803, 0.77875143, -0.07969569, 0.36779168, 0.50192046
263, 1401256470, 0.7764455, -0.08070129, 0.37359214, 0.50104755
264, 1401273137, 0.77380675, -0.08245275, 0.37937838, 0.5004965
265, 1401289804, 0.7710304, -0.08410954, 0.3849674, 0.500238
266, 1401306471, 0.7685059, -0.08570509, 0.38997376, 0.4999739
267, 1401323138, 0.7660598, -0.08750207, 0.39489424, 0.4995544
268, 1401339805, 0.7634912, -0.089161925, 0.40000582, 0.49912605
269, 1401356472, 0.76085806, -0.090979405, 0.4047102, 0.49902683
270, 1401373139, 0.7581089, -0.09327813, 0.40894228, 0.4993359
271, 1401389806, 0.75511885, -0.095933504, 0.4128693, 0.50013137
272, 1401406473, 0.7521515, -0.0981673, 0.4166967, 0.50099456
273, 1401423140, 0.74977094, -0.09945305, 0.42083362, 0.5008512
274, 1401439807, 0.747659, -0.10028402, 0.42577267, 0.49966666
275, 1401456474, 0.74537647, -0.10092527, 0.43201417, 0.49758628
276, 1401473141, 0.7424728, -0.1020957, 0.43889275, 0.49566495
277, 1401489808, 0.7390632, -0.10441022, 0.44531474, 0.4945494
278, 1401506475, 0.7355872, -0.10728892, 0.4514923, 0.49351332
279, 1401523142, 0.73242474, -0.11022938, 0.45746368, 0.4920676
280, 1401539809, 0.72949916, -0.112961955, 0.462883, 0.490724
281, 1401556476, 0.72675174, -0.115467824, 0.4673567, 0.48997647
282, 1401573143, 0.7240557, -0.11786036, 0.47098145, 0.48992747
283, 1401589810, 0.72125137, -0.11991091, 0.47399268, 0.49066177
284, 1401606477, 0.7185564, -0.12169454, 0.47655147, 0.49169695
285, 1401623144, 0.7160007, -0.12363028, 0.47889438, 0.4926649
286, 1401639811, 0.71341354, -0.1261352, 0.48162422, 0.49312198
287, 1401656478, 0.7106842, -0.1289952, 0.4846948, 0.49331468
288, 1401673145, 0.70751643, -0.13242684, 0.48737988, 0.49431217
289, 1401689812, 0.70417845, -0.1355001, 0.48990545, 0.49574703
290, 1401706479, 0.70177644, -0.1373224, 0.49252307, 0.49605796
291, 1401723146, 0.7008961, -0.13763478, 0.49493626, 0.4948129
292, 1401739813, 0.7004279, -0.13783915, 0.49756324, 0.49277988
293, 1401756480, 0.6989884, -0.1392321, 0.50083023, 0.49111992
294, 1401773147, 0.69736165, -0.14037336, 0.5038765, 0.48999038
295, 1401789814, 0.6965079, -0.14040984, 0.50580376, 0.4892083
296, 1401806481, 0.6963862, -0.13978332, 0.50680214, 0.48852724
297, 1401823148, 0.6961141, -0.13945408, 0.5083181, 0.4874326
298, 1401839815, 0.6953017, -0.13998327, 0.51023114, 0.48644087
299, 1401856482, 0.6939383, -0.14123282, 0.51227415, 0.48587883
300, 1401873149, 0.6924328, -0.14212134, 0.51404893, 0.4858932
301, 1401889816, 0.6913023, -0.1424195, 0.5153537, 0.4860334
302, 1401906483, 0.6903148, -0.14252752, 0.51679444, 0.4858755
303, 1401923150, 0.6891785, -0.14305462, 0.5184328, 0.48558807
304, 1401939817, 0.6878766, -0.14476088, 0.52020067, 0.48503768
305, 1401956484, 0.68673927, -0.14697179, 0.5218482, 0.48421377
306, 1401973151, 0.68655515, -0.14821512, 0.52279395, 0.48307422
307, 1401989818, 0.686838, -0.1484698, 0.5233073, 0.48203707
308, 1402006485, 0.6865724, -0.14911863, 0.52407056, 0.48138553
309, 1402023152, 0.68570024, -0.15017107, 0.52520967, 0.48106012
310, 1402039819, 0.68525034, -0.15083824, 0.5255293, 0.48114341
311, 1402056486, 0.6852189, -0.15141667, 0.52506053, 0.48151794
312, 1402073153, 0.68520796, -0.15221992, 0.5249474, 0.4814038
313, 1402089820, 0.68507695, -0.15314256, 0.5250479, 0.4811879
314, 1402106487, 0.68484527, -0.15424907, 0.52479684, 0.4814378
315, 1402123154, 0.6847637, -0.15512647, 0.5244427, 0.48165795
316, 1402139821, 0.68521464, -0.15493913, 0.5243512, 0.48117658
317, 1402156488, 0.6865047, -0.1537432, 0.52394766, 0.4801595
318, 1402173155, 0.68786144, -0.15254521, 0.5226274, 0.48003897
319, 1402189822, 0.68851316, -0.15189661, 0.52119344, 0.48086846
320, 1402206489, 0.6890214, -0.15158999, 0.5199757, 0.48155528
321, 1402223156, 0.6898262, -0.15123798, 0.51855236, 0.48204818
322, 1402239823, 0.6904315, -0.1511579, 0.5172212, 0.4826365
323, 1402256490, 0.69045275, -0.1518201, 0.5166993, 0.48295707
324, 1402273157, 0.6903906, -0.15299396, 0.5167946, 0.48257327
325, 1402289824, 0.69058514, -0.15410157, 0.51662475, 0.4821244
326, 1402306491, 0.690832, -0.1550667, 0.51661044, 0.48147634
327, 1402323158, 0.6908722, -0.15599453, 0.5170081, 0.4806913
328, 1402339825, 0.69101256, -0.15652606, 0.51717824, 0.48013332
329, 1402356492, 0.6916147, -0.15631579, 0.5167882, 0.47975478
330, 1402373159, 0.692464, -0.15520164, 0.5166738, 0.4790142
331, 1402389826, 0.6930677, -0.1538482, 0.5171855, 0.47802415
332, 1402406493, 0.69325405, -0.15273358, 0.5176993, 0.4775551
333, 1402423160, 0.6935728, -0.15177208, 0.5177315, 0.4773638
334, 1402439827, 0.69422174, -0.1513174, 0.5169052, 0.47746032
335, 1402456494, 0.69427097, -0.15178403, 0.5162574, 0.47794157
336, 1402473161, 0.6942356, -0.15245342, 0.51662034, 0.47738725
337, 1402489828, 0.69419664, -0.15290475, 0.5173824, 0.4764732
338, 1402506495, 0.6941491, -0.15324263, 0.5177533, 0.4760308
339, 1402523162, 0.69395393, -0.153575, 0.5183083, 0.47560436
340, 1402539829, 0.6935247, -0.15406811, 0.5193273, 0.4749589
341, 1402556496, 0.6930557, -0.15532814, 0.5205299, 0.47391522
342, 1402573163, 0.6929642, -0.15665105, 0.52175426, 0.4722643
343, 1402589830, 0.6932409, -0.1564647, 0.5227189, 0.47085124
344, 1402606497, 0.6938749, -0.15533273, 0.52293116, 0.47005573
345, 1402623164, 0.69414914, -0.15458082, 0.5228775, 0.46995857
346, 1402639831, 0.6940001, -0.15455447, 0.52272964, 0.47035146
347, 1402656498, 0.69349766, -0.15509437, 0.52287424, 0.47075388
348, 1402673165, 0.6932308, -0.15518604, 0.5234375, 0.47049072
349, 1402689832, 0.6935624, -0.15435171, 0.5238478, 0.46981946
350, 1402706499, 0.69410634, -0.15297008, 0.52361935, 0.46972296
351, 1402723166, 0.6942313, -0.15194461, 0.52317053, 0.47037068
352, 1402739833, 0.6941468, -0.15122236, 0.5229667, 0.47095406
353, 1402756500, 0.694311, -0.15062195, 0.52265674, 0.47124878
354, 1402773167, 0.6947492, -0.1499179, 0.5224418, 0.47106558
355, 1402789834, 0.69511336, -0.14944114, 0.52227867, 0.47086084
356, 1402806501, 0.69532186, -0.14932758, 0.5220934, 0.47079447
357, 1402823168, 0.6952717, -0.14957452, 0.5219591, 0.4709392
358, 1402839835, 0.69521105, -0.1498802, 0.52181154, 0.47109485
359, 1402856502, 0.69523144, -0.15012193, 0.52170205, 0.47110906
360, 1402873169, 0.69527, -0.15036759, 0.5216006, 0.47108617
361, 1402889836, 0.69530535, -0.1508546, 0.5212362, 0.4712818
362, 1402906503, 0.6953613, -0.15133777, 0.52079713, 0.47152942
363, 1402923170, 0.6956524, -0.15163368, 0.5204811, 0.47135407
364, 1402939837, 0.6960897, -0.15183634, 0.5203092, 0.47083277
365, 1402956504, 0.6964467, -0.15182404, 0.52032804, 0.47028744
366, 1402973171, 0.6973115, -0.15105806, 0.52037233, 0.46920234
367, 1402989838, 0.6985557, -0.1499368, 0.5199269, 0.46820405
368, 1403006505, 0.6996507, -0.14886332, 0.51889503, 0.46805626
369, 1403023172, 0.7003057, -0.14807959, 0.5177225, 0.4686233
370, 1403039839, 0.70087093, -0.14740606, 0.517025, 0.46876103
371, 1403056506, 0.701814, -0.14633413, 0.5169364, 0.4677821
372, 1403073173, 0.70346, -0.14430667, 0.5166956, 0.46620327
373, 1403089840, 0.70518565, -0.14210421, 0.5156935, 0.4653816
374, 1403106507, 0.70631427, -0.14073947, 0.51438534, 0.46553248
375, 1403123174, 0.707333, -0.13968536, 0.5130245, 0.4658048
376, 1403139841, 0.70890796, -0.1381945, 0.51137996, 0.4656635
377, 1403156508, 0.7108199, -0.13645335, 0.5092261, 0.46562272
378, 1403173175, 0.7124188, -0.13501257, 0.5069055, 0.46613103
379, 1403189842, 0.71404934, -0.13360795, 0.50471634, 0.46641627
380, 1403206509, 0.71622986, -0.13179988, 0.50229144, 0.4662049
381, 1403223176, 0.71882886, -0.1299485, 0.4991604, 0.46608752
382, 1403239843, 0.7213606, -0.12855901, 0.49572873, 0.46622372
383, 1403256510, 0.72374207, -0.12769975, 0.49225798, 0.46644664
384, 1403273177, 0.72623, -0.12705007, 0.48873624, 0.46646023
385, 1403289844, 0.728934, -0.12613036, 0.4852305, 0.4661521
386, 1403306511, 0.7317757, -0.12497769, 0.4814423, 0.46593824
387, 1403323178, 0.7348468, -0.12400565, 0.47702268, 0.46591017
388, 1403339845, 0.7382509, -0.123090014, 0.47179526, 0.4660942
389, 1403356512, 0.74177986, -0.12186062, 0.4656209, 0.46702254
390, 1403373179, 0.7448636, -0.12098649, 0.4590188, 0.46887338
391, 1403389846, 0.74795824, -0.12035648, 0.45239067, 0.47054806
392, 1403406513, 0.7518748, -0.11873823, 0.44543916, 0.47134852
393, 1403423180, 0.75612766, -0.116530254, 0.43760085, 0.4724375
394, 1403439847, 0.75991476, -0.11478065, 0.42938006, 0.47432894
395, 1403456514, 0.76355886, -0.113143325, 0.42146838, 0.4759631
396, 1403473181, 0.76776683, -0.110622466, 0.41349927, 0.47677583
397, 1403489848, 0.7724624, -0.10723899, 0.40491223, 0.477334
398, 1403506515, 0.7767837, -0.10444419, 0.39578602, 0.47859365
399, 1403523182, 0.780428, -0.102611765, 0.38619548, 0.48089087
400, 1403539849, 0.78378004, -0.10094973, 0.37644914, 0.48351213
401, 1403556516, 0.78736955, -0.09864924, 0.36681408, 0.48555657
402, 1403573183, 0.7914315, -0.09570365, 0.35708973, 0.4867895
403, 1403589850, 0.7954097, -0.092831805, 0.34649786, 0.48851314
404, 1403606517, 0.7986255, -0.09065826, 0.335614, 0.49126548
405, 1403623184, 0.8012267, -0.0893598, 0.325262, 0.49422222
406, 1403639851, 0.8039671, -0.08768854, 0.31575492, 0.49623245
407, 1403656518, 0.80704784, -0.08534631, 0.3065102, 0.49743465
408, 1403673185, 0.81033546, -0.08227011, 0.2968849, 0.4984454
409, 1403689852, 0.81359243, -0.07883338, 0.28656128, 0.49973533
410, 1403706519, 0.81643873, -0.07542367, 0.2761918, 0.5014551
411, 1403723186, 0.81909335, -0.0718159, 0.2661986, 0.5030577
412, 1403739853, 0.8216522, -0.06828958, 0.25597697, 0.5046784
413, 1403756520, 0.8240422, -0.06515318, 0.24543634, 0.5064294
414, 1403773187, 0.82631195, -0.062062073, 0.23467772, 0.5082161
415, 1403789854, 0.8284817, -0.05889393, 0.22379346, 0.50996673
416, 1403806521, 0.8302522, -0.056563832, 0.21279743, 0.51205385
417, 1403823188, 0.8318182, -0.054836065, 0.20216815, 0.5140036
418, 1403839855, 0.833486, -0.05242809, 0.1919753, 0.5154591
419, 1403856522, 0.83520216, -0.04924285, 0.18177839, 0.51669085
420, 1403873189, 0.83675617, -0.046202686, 0.17144126, 0.5179887
421, 1403889856, 0.83802396, -0.04372107, 0.16119194, 0.5194434
422, 1403906523, 0.839002, -0.041602127, 0.15121378, 0.52103674
423, 1403923190, 0.83994514, -0.03955229, 0.1414574, 0.5224154
424, 1403939857, 0.84113437, -0.03683669, 0.13208295, 0.52315414
425, 1403956524, 0.84240997, -0.033875782, 0.12318954, 0.5234715
426, 1403973191, 0.84358346, -0.030936474, 0.114438914, 0.5237497
427, 1403989858, 0.84453946, -0.028253747, 0.105158515, 0.5243062
428, 1404006525, 0.845358, -0.025599262, 0.09549547, 0.52497184
429, 1404023192, 0.84613, -0.022823822, 0.08600636, 0.52549595
430, 1404039859, 0.84696007, -0.019283947, 0.076962814, 0.5257031
431, 1404056526, 0.84776914, -0.015438212, 0.06785026, 0.52578115
432, 1404073193, 0.8484813, -0.011559438, 0.058686517, 0.5258343
433, 1404089860, 0.8489319, -0.008118659, 0.049633794, 0.5261039
434, 1404106527, 0.8490848, -0.005209403, 0.040744096, 0.5266571
435, 1404123194, 0.8491854, -0.0020442614, 0.032108013, 0.5271141
436, 1404139861, 0.84932023, 0.0011715001, 0.02385725, 0.5273374
437, 1404156528, 0.84953016, 0.004373531, 0.015804319, 0.52728516
438, 1404173195, 0.8496338, 0.0070022848, 0.00765352, 0.52727103
439, 1404189862, 0.8495988, 0.009231389, -2.9578357E-4, 0.52734846
440, 1404206529, 0.84952587, 0.011457121, -0.007934653, 0.52736276
441, 1404223196, 0.84954876, 0.014861431, -0.014953706, 0.52708876
442, 1404239863, 0.84957325, 0.01903225, -0.021803413, 0.5266764
443, 1404256530, 0.84943354, 0.022416476, -0.028723799, 0.5264364
444, 1404273197, 0.8491273, 0.02460835, -0.03572226, 0.526404
445, 1404289864, 0.8487582, 0.02687018, -0.042628266, 0.52637476
446, 1404306531, 0.84829783, 0.029952696, -0.049637992, 0.5263362
447, 1404323198, 0.8477988, 0.033419494, -0.056938514, 0.5261925
448, 1404339865, 0.84725714, 0.035957873, -0.06428018, 0.526052
449, 1404356532, 0.84669596, 0.038154043, -0.07122258, 0.5259067
450, 1404373199, 0.84603167, 0.041077483, -0.07796804, 0.5257988
451, 1404389866, 0.8452072, 0.044078954, -0.08493093, 0.52580285
452, 1404406533, 0.8444264, 0.04612763, -0.091563165, 0.5257687
453, 1404423200, 0.8436789, 0.04818661, -0.09758014, 0.5257018
454, 1404439867, 0.8428581, 0.050622933, -0.10365197, 0.5256276
455, 1404456534, 0.84196824, 0.05251834, -0.10988309, 0.5256018
456, 1404473201, 0.84109783, 0.053819206, -0.115590155, 0.52563965
457, 1404489868, 0.84016806, 0.055502456, -0.12075784, 0.52578974
458, 1404506535, 0.8392355, 0.057659246, -0.12601268, 0.5258139
459, 1404523202, 0.838325, 0.059581243, -0.13129814, 0.5257587
460, 1404539869, 0.8374462, 0.061144233, -0.13629134, 0.5257092
461, 1404556536, 0.8365446, 0.062453877, -0.14104709, 0.5257361
462, 1404573203, 0.8356706, 0.06334546, -0.14564104, 0.52576697
463, 1404589870, 0.8349574, 0.06388246, -0.1496341, 0.52571356
464, 1404606537, 0.8342726, 0.06424632, -0.15335621, 0.525684
465, 1404623204, 0.8335132, 0.06468523, -0.15740487, 0.52563804
466, 1404639871, 0.83280945, 0.06545013, -0.16154791, 0.5254019
467, 1404656538, 0.8322856, 0.06589561, -0.16507018, 0.52508134
468, 1404673205, 0.83188933, 0.06566395, -0.16778687, 0.5248772
469, 1404689872, 0.8314607, 0.06566751, -0.17039946, 0.52471423
470, 1404706539, 0.83095896, 0.06643588, -0.17324534, 0.5244803
471, 1404723206, 0.830451, 0.06721514, -0.17576842, 0.52434623
472, 1404739873, 0.8301535, 0.067306206, -0.17735183, 0.5242721
473, 1404756540, 0.82985795, 0.0673718, -0.17836168, 0.5243893
474, 1404773207, 0.82959425, 0.06745986, -0.17936102, 0.5244543
475, 1404789874, 0.82949, 0.06797813, -0.17979547, 0.5244035
476, 1404806541, 0.8295289, 0.06879674, -0.17977579, 0.52424204
477, 1404823208, 0.8294741, 0.06965276, -0.18004914, 0.5241218
478, 1404839875, 0.8293011, 0.07008579, -0.18114907, 0.5239588
479, 1404856542, 0.82929206, 0.0704485, -0.18236467, 0.52350265
480, 1404873209, 0.8295042, 0.070436046, -0.183057, 0.52292615
481, 1404889876, 0.8297327, 0.06968898, -0.18352881, 0.52249813
482, 1404906543, 0.82988465, 0.06854478, -0.18409081, 0.5222105
483, 1404923210, 0.8299869, 0.06839934, -0.18434797, 0.52197635
484, 1404939877, 0.8297742, 0.06892126, -0.18527186, 0.5219188
485, 1404956544, 0.82939893, 0.06894727, -0.18636817, 0.52212155
486, 1404973211, 0.8292245, 0.06802521, -0.18708313, 0.5222635
487, 1404989878, 0.8293288, 0.066945836, -0.18718113, 0.5222025
488, 1405006545, 0.8294026, 0.066717654, -0.18723463, 0.5220953
489, 1405023212, 0.8293875, 0.06728733, -0.18719344, 0.52206093
490, 1405039879, 0.82947177, 0.067622654, -0.18691307, 0.5219839
491, 1405056546, 0.8295747, 0.06776785, -0.18659003, 0.521917
492, 1405073213, 0.82949954, 0.067983754, -0.18649317, 0.5220433
493, 1405089880, 0.82940006, 0.06790372, -0.18644781, 0.5222279
494, 1405106547, 0.82944393, 0.06724696, -0.18621692, 0.52232563
495, 1405123214, 0.82954985, 0.06662677, -0.18619956, 0.52224314
496, 1405139881, 0.829624, 0.066415265, -0.1865857, 0.52201414
497, 1405156548, 0.8297662, 0.066383354, -0.18681209, 0.52171105
498, 1405173215, 0.8299829, 0.065901555, -0.18672375, 0.52145916
499, 1405189882, 0.8300257, 0.06530447, -0.1865504, 0.5215284
500, 1405206549, 0.82989043, 0.064970106, -0.18671262, 0.5217274
501, 1405223216, 0.8296768, 0.06488625, -0.18723664, 0.5218895
502, 1405239883, 0.8296207, 0.06402249, -0.1876656, 0.5219312
503, 1405256550, 0.82968223, 0.06296457, -0.18752356, 0.52201325
504, 1405273217, 0.82923687, 0.06265376, -0.18729672, 0.52283925
505, 1405289884, 0.8284832, 0.06321855, -0.18762799, 0.52384627
506, 1405306551, 0.82755756, 0.06393924, -0.18844582, 0.5249272
507, 1405323218, 0.82653165, 0.06434488, -0.18974638, 0.5260243
508, 1405339885, 0.825721, 0.06478869, -0.1908788, 0.5268327
509, 1405356552, 0.82495, 0.065193236, -0.19211316, 0.5275414
510, 1405373219, 0.82442504, 0.06496797, -0.19383626, 0.5277593
511, 1405389886, 0.8242214, 0.06485845, -0.19471805, 0.5277666
512, 1405406553, 0.8240266, 0.06531955, -0.19527295, 0.52780914
513, 1405423220, 0.823822, 0.065353215, -0.19609687, 0.52781844
514, 1405439887, 0.8237066, 0.0643438, -0.1968968, 0.52782494
515, 1405456554, 0.82373536, 0.06370265, -0.19717428, 0.52775425
516, 1405473221, 0.8240738, 0.06435534, -0.19737796, 0.52707016
517, 1405489888, 0.8246399, 0.06548841, -0.1980151, 0.52580446
518, 1405506555, 0.8249949, 0.06715446, -0.19911857, 0.52461946
519, 1405523222, 0.82531375, 0.06871817, -0.19976565, 0.5236687
520, 1405539889, 0.8255013, 0.069595575, -0.20006756, 0.5231418
521, 1405556556, 0.8257052, 0.06948819, -0.20041907, 0.52269936
522, 1405573223, 0.8259844, 0.06862732, -0.2005273, 0.52233034
523, 1405589890, 0.82602495, 0.06833056, -0.20094909, 0.5221432
524, 1405606557, 0.8258417, 0.069802836, -0.20143014, 0.52205265
525, 1405623224, 0.8253999, 0.071401864, -0.20218578, 0.52224314
526, 1405639891, 0.8250609, 0.07248281, -0.20286642, 0.522366
527, 1405656558, 0.824366, 0.07318269, -0.20448688, 0.52273333
528, 1405673225, 0.8233698, 0.07381603, -0.20704433, 0.52320766
529, 1405689892, 0.8222715, 0.07466092, -0.20983307, 0.52370363
530, 1405706559, 0.82128364, 0.07553593, -0.21254995, 0.5240328
531, 1405723226, 0.8204939, 0.07630325, -0.21493928, 0.5241839
532, 1405739893, 0.81975436, 0.07731928, -0.21706374, 0.52431667
533, 1405756560, 0.81878597, 0.078403346, -0.2195536, 0.5246321
534, 1405773227, 0.81768227, 0.07945328, -0.22223611, 0.5250659
535, 1405789894, 0.81684625, 0.0810917, -0.22460076, 0.5251105
536, 1405806561, 0.81600475, 0.08288632, -0.22677879, 0.52520233
537, 1405823228, 0.81502575, 0.084988676, -0.22953275, 0.5251901
538, 1405839895, 0.81383324, 0.087567404, -0.23304175, 0.52507055
539, 1405856562, 0.81233436, 0.09005631, -0.23734796, 0.52504176
540, 1405873229, 0.81030047, 0.092980444, -0.24241194, 0.5253613
541, 1405889896, 0.8077494, 0.096220195, -0.24903175, 0.52560985
542, 1405906563, 0.80472046, 0.09936103, -0.25729883, 0.5256898
543, 1405923230, 0.8014436, 0.102291234, -0.26637378, 0.5256137
544, 1405939897, 0.7982459, 0.10517571, -0.27541238, 0.525252
545, 1405956564, 0.79494524, 0.1083564, -0.28471884, 0.52464867
546, 1405973231, 0.7917703, 0.11158253, -0.2952316, 0.5229603
547, 1405989898, 0.78887624, 0.1137742, -0.30733106, 0.5198821
548, 1406006565, 0.7859109, 0.11499331, -0.32098588, 0.51583785
549, 1406023232, 0.7816928, 0.11240716, -0.3313415, 0.5162692
550, 1406039899, 0.7788712, 0.11161214, -0.34483218, 0.5118528
551, 1406056566, 0.77408534, 0.11116957, -0.35724223, 0.51069695
552, 1406073233, 0.7691024, 0.113798946, -0.36568028, 0.5116731
553, 1406089900, 0.76356006, 0.117232725, -0.37607956, 0.5116608
554, 1406106567, 0.7583015, 0.12122317, -0.38632345, 0.5109188
555, 1406123234, 0.7541805, 0.12481186, -0.39456564, 0.5098546
556, 1406139901, 0.7501101, 0.12842563, -0.40244603, 0.50880146
557, 1406156568, 0.74597687, 0.13234782, -0.41119134, 0.5068769
558, 1406173235, 0.7412333, 0.13556242, -0.42064646, 0.5052253
559, 1406189902, 0.7363211, 0.13914625, -0.42948908, 0.5039929
560, 1406206569, 0.7315628, 0.14342137, -0.43715006, 0.5031363
561, 1406223236, 0.7267541, 0.1469698, -0.44491416, 0.50227463
562, 1406239903, 0.72200197, 0.14990063, -0.45281973, 0.50119585
563, 1406256570, 0.7174781, 0.15312694, -0.46012065, 0.50006646
564, 1406273237, 0.7130238, 0.15725784, -0.46693867, 0.49883413
565, 1406289904, 0.70812565, 0.16117829, -0.47433272, 0.49758232
566, 1406306571, 0.702794, 0.1642886, -0.48269263, 0.49608254
567, 1406323238, 0.69736916, 0.16774061, -0.49151078, 0.49391982
568, 1406339905, 0.6920186, 0.17249072, -0.49961656, 0.49167103
569, 1406356572, 0.6864706, 0.17727353, -0.5072089, 0.4899708
570, 1406373239, 0.6810469, 0.18174095, -0.5147627, 0.48802152
571, 1406389906, 0.67580134, 0.1848371, -0.5224132, 0.48601684
572, 1406406573, 0.66997474, 0.18764083, -0.530713, 0.4840131
573, 1406423240, 0.6634394, 0.19007275, -0.539513, 0.48233438
574, 1406439907, 0.65666723, 0.19262339, -0.54822683, 0.48076206
575, 1406456574, 0.65037704, 0.19520514, -0.55592144, 0.47943327
576, 1406473241, 0.64433765, 0.19782148, -0.56276655, 0.47852874
577, 1406489908, 0.63796693, 0.19993012, -0.56992185, 0.47771895
578, 1406506575, 0.63143903, 0.20138876, -0.5775364, 0.47663334
579, 1406523242, 0.6248823, 0.20268898, -0.58519983, 0.47537422
580, 1406539909, 0.61863875, 0.2047988, -0.5921443, 0.47403476
581, 1406556576, 0.6135162, 0.20726806, -0.5976267, 0.47273698
582, 1406573243, 0.6096846, 0.21029739, -0.6015012, 0.47144035
583, 1406589910, 0.605608, 0.21373041, -0.6058673, 0.46955636
584, 1406606577, 0.60023606, 0.21700516, -0.6114955, 0.46765244
585, 1406623244, 0.5940906, 0.22029918, -0.61768645, 0.46581995
586, 1406639911, 0.58832926, 0.2233745, -0.6234521, 0.46398288
587, 1406656578, 0.5835318, 0.22553714, -0.6284164, 0.462295
588, 1406673245, 0.5793772, 0.22734028, -0.6328534, 0.4605813
589, 1406689912, 0.5753677, 0.22951579, -0.6373136, 0.45837328
590, 1406706579, 0.56963086, 0.23203263, -0.64325666, 0.45596337
591, 1406723246, 0.5626529, 0.23391125, -0.6502071, 0.45380405
592, 1406739913, 0.55676425, 0.23538284, -0.6562044, 0.45166838
593, 1406756580, 0.5512895, 0.23720013, -0.6615687, 0.44960314
594, 1406773247, 0.5459763, 0.23951158, -0.6666797, 0.44730568
595, 1406789914, 0.5404828, 0.241797, -0.67190456, 0.4449235
596, 1406806581, 0.53463995, 0.24394841, -0.6769395, 0.44317293
597, 1406823248, 0.5288394, 0.24565612, -0.6817549, 0.44180563
598, 1406839915, 0.52399623, 0.24724697, -0.68593425, 0.4402172
599, 1406856582, 0.52029115, 0.24817243, -0.6900275, 0.43768686
600, 1406873249, 0.516637, 0.24836895, -0.6944323, 0.43492883
601, 1406889916, 0.51239866, 0.24851438, -0.69877416, 0.4329007
602, 1406906583, 0.50756013, 0.24959464, -0.7018829, 0.43295008
603, 1406923250, 0.50220513, 0.2515167, -0.70360684, 0.4352779
604, 1406939917, 0.49646363, 0.25312015, -0.7051076, 0.4384944
605, 1406956584, 0.49018988, 0.25382432, -0.7072579, 0.44167134
606, 1406973251, 0.4842246, 0.25384942, -0.70967275, 0.44435567
607, 1406989918, 0.47989687, 0.2538241, -0.7117014, 0.44581813
608, 1407006585, 0.47714767, 0.25395378, -0.7133191, 0.44610944
609, 1407023252, 0.47509742, 0.254513, -0.7144697, 0.44613773
610, 1407039919, 0.4726552, 0.25587878, -0.71573806, 0.44591767
611, 1407056586, 0.4692525, 0.25775048, -0.7178445, 0.4450462
612, 1407073253, 0.4651954, 0.25928122, -0.72089946, 0.4434755
613, 1407089920, 0.46112606, 0.26075175, -0.7242469, 0.4414045
614, 1407106587, 0.4566676, 0.26248997, -0.7279586, 0.43889636
615, 1407123254, 0.451628, 0.2639257, -0.7323212, 0.43598315
616, 1407139921, 0.44615468, 0.2652829, -0.73715734, 0.4326318
617, 1407156588, 0.44028074, 0.26665413, -0.7422769, 0.42903805
618, 1407173255, 0.43426841, 0.26832637, -0.74700505, 0.42590573
619, 1407189922, 0.4288632, 0.27012625, -0.75118613, 0.4228803
620, 1407206589, 0.42424405, 0.27189285, -0.75492877, 0.41973102
621, 1407223256, 0.4191463, 0.27380744, -0.7585212, 0.417123
622, 1407239923, 0.41334227, 0.27574873, -0.76211727, 0.41507626
623, 1407256590, 0.40767643, 0.277538, -0.7653578, 0.41352177
624, 1407273257, 0.40268323, 0.279066, -0.76830554, 0.41191673
625, 1407289924, 0.39797956, 0.28038988, -0.77135307, 0.40988833
626, 1407306591, 0.39277014, 0.2816243, -0.7745196, 0.40809175
627, 1407323258, 0.3867203, 0.28273264, -0.77811927, 0.4062515
628, 1407339925, 0.3801852, 0.28354537, -0.782334, 0.40375093
629, 1407356592, 0.37354344, 0.28379342, -0.7870474, 0.40060353
630, 1407373259, 0.3673005, 0.28395596, -0.791583, 0.39731118
631, 1407389926, 0.36165848, 0.28452766, -0.79540664, 0.3944306
632, 1407406593, 0.35626245, 0.28530625, -0.7988407, 0.39183044
633, 1407423260, 0.35012904, 0.28602108, -0.80282265, 0.3886869
634, 1407439927, 0.34319165, 0.28631312, -0.8075017, 0.38494876
635, 1407456594, 0.33624506, 0.28619668, -0.81243205, 0.38076884
636, 1407473261, 0.33007002, 0.28598067, -0.8170463, 0.37643635
637, 1407489928, 0.32442632, 0.28592166, -0.82120633, 0.37231264
638, 1407506595, 0.31844246, 0.2864396, -0.82484096, 0.36903185
639, 1407523262, 0.3123583, 0.2872285, -0.8281607, 0.36617213
640, 1407539929, 0.30710992, 0.2875215, -0.83144695, 0.36292022
641, 1407556596, 0.3023883, 0.28726983, -0.83482766, 0.35930553
642, 1407573263, 0.29730394, 0.2872341, -0.83814067, 0.35584745
643, 1407589930, 0.29167444, 0.28830713, -0.8409099, 0.3530947
644, 1407606597, 0.28613463, 0.2899642, -0.84322983, 0.3507295
645, 1407623264, 0.28081673, 0.29120868, -0.8456857, 0.3480735
646, 1407639931, 0.27576363, 0.29173145, -0.8484959, 0.34482172
647, 1407656598, 0.27085432, 0.29201606, -0.85131603, 0.3415051
648, 1407673265, 0.2657028, 0.29222378, -0.85408175, 0.33845505
649, 1407689932, 0.26027048, 0.29224992, -0.85697067, 0.33533666
650, 1407706599, 0.25499183, 0.29177937, -0.85998845, 0.33206037
651, 1407723266, 0.2502251, 0.29121712, -0.8628752, 0.328674
652, 1407739933, 0.24558157, 0.29134697, -0.8653174, 0.32562622
653, 1407756600, 0.24071378, 0.29239067, -0.86725175, 0.32317048
654, 1407773267, 0.23586835, 0.29390678, -0.8689006, 0.3209308
655, 1407789934, 0.23128532, 0.29516044, -0.8707041, 0.3182167
656, 1407806601, 0.22675417, 0.29566178, -0.8730346, 0.31460655
657, 1407823268, 0.22181109, 0.295582, -0.8758184, 0.3104406
658, 1407839935, 0.21712556, 0.29543507, -0.8783853, 0.30661687
659, 1407856602, 0.2132973, 0.29541013, -0.8804119, 0.3034999
660, 1407873269, 0.21063921, 0.29587877, -0.8818368, 0.3007507
661, 1407889936, 0.20865855, 0.29682165, -0.88266706, 0.29876035
662, 1407906603, 0.20724964, 0.29792058, -0.8829681, 0.29775557
663, 1407923270, 0.20658663, 0.2986635, -0.8830426, 0.2972511
664, 1407939937, 0.20643663, 0.29924408, -0.88291097, 0.29716176
665, 1407956604, 0.20652369, 0.2998344, -0.8826462, 0.29729283
666, 1407973271, 0.20653231, 0.30051422, -0.8823201, 0.29756847
667, 1407989938, 0.20630951, 0.30080125, -0.88223284, 0.29769164
668, 1408006605, 0.205952, 0.30048117, -0.8825085, 0.297445
669, 1408023272, 0.2054517, 0.30011332, -0.8829469, 0.29686105
670, 1408039939, 0.20445389, 0.30030563, -0.88317263, 0.29668427
671, 1408056606, 0.2030402, 0.30092674, -0.88332814, 0.2965625
672, 1408073273, 0.20169364, 0.30124095, -0.8835998, 0.29635313
673, 1408089940, 0.20073837, 0.30113578, -0.88398486, 0.29595986
674, 1408106607, 0.20025793, 0.30076066, -0.88437706, 0.29549524
675, 1408123274, 0.19971694, 0.3007574, -0.88456726, 0.2952947
676, 1408139941, 0.19898248, 0.30127946, -0.88453114, 0.2953664
677, 1408156608, 0.19815975, 0.30184934, -0.8846399, 0.295012
678, 1408173275, 0.19746433, 0.30201218, -0.8849875, 0.29426825
679, 1408189942, 0.19713058, 0.30197248, -0.88535935, 0.293413
680, 1408206609, 0.19697963, 0.3019635, -0.88557917, 0.29285938
681, 1408223276, 0.19700354, 0.30207118, -0.8855901, 0.29269913
682, 1408239943, 0.19694121, 0.30236116, -0.8853988, 0.2930201
683, 1408256610, 0.19672054, 0.30276594, -0.8851989, 0.29335475
684, 1408273277, 0.1967272, 0.30290335, -0.8850525, 0.2936499
685, 1408289944, 0.19685811, 0.30280313, -0.8850364, 0.29371408
686, 1408306611, 0.19721687, 0.30267596, -0.8848978, 0.2940217
687, 1408323278, 0.1979396, 0.30245462, -0.8846755, 0.29443198
688, 1408339945, 0.19867039, 0.30223623, -0.8845072, 0.29467052
689, 1408356612, 0.19930553, 0.30217874, -0.8843211, 0.29485887
690, 1408373279, 0.2000604, 0.3021697, -0.88402927, 0.29523167
691, 1408389946, 0.20115113, 0.30205432, -0.8837409, 0.29547188
692, 1408406613, 0.20276298, 0.3015334, -0.8835745, 0.29539987
693, 1408423280, 0.20477994, 0.3006742, -0.88340396, 0.2953943
694, 1408439947, 0.20693351, 0.2998671, -0.88304335, 0.29579198
695, 1408456614, 0.20920846, 0.2990956, -0.88253397, 0.29649284
696, 1408473281, 0.21187028, 0.29806498, -0.8821526, 0.29677466
697, 1408489948, 0.21462162, 0.2971795, -0.8817892, 0.29676554
698, 1408506615, 0.21668662, 0.2969915, -0.88141197, 0.29657406
699, 1408523282, 0.21826857, 0.297171, -0.8810958, 0.29617307
700, 1408539949, 0.22008042, 0.29710713, -0.88091666, 0.29542822
701, 1408556616, 0.2223502, 0.2966872, -0.8807653, 0.2946011
702, 1408573283, 0.22490202, 0.29625174, -0.88049567, 0.29390734
703, 1408589950, 0.22784641, 0.29579738, -0.88001424, 0.29353866
704, 1408606617, 0.23111892, 0.29546148, -0.8791922, 0.29378206
705, 1408623284, 0.23426853, 0.29523513, -0.8781905, 0.29450998
706, 1408639951, 0.23725726, 0.29502016, -0.877083, 0.29563087
707, 1408656618, 0.24064869, 0.29454276, -0.8758428, 0.29703927
708, 1408673285, 0.2446482, 0.2937845, -0.8744327, 0.29867357
709, 1408689952, 0.24880022, 0.29315928, -0.8728821, 0.30038804
710, 1408706619, 0.25264913, 0.29281512, -0.87128973, 0.3021294
711, 1408723286, 0.25665566, 0.29222003, -0.86958796, 0.30422375
712, 1408739953, 0.26152173, 0.29120144, -0.8676292, 0.30663952
713, 1408756620, 0.26735517, 0.29016873, -0.8651968, 0.30944774
714, 1408773287, 0.27370098, 0.28994814, -0.86199194, 0.31303018
715, 1408789954, 0.27950883, 0.29077703, -0.85839164, 0.3169976
716, 1408806621, 0.28447604, 0.29206342, -0.8549459, 0.32068688
717, 1408823288, 0.289065, 0.29277116, -0.85211, 0.3234735
718, 1408839955, 0.29413623, 0.2926194, -0.8496136, 0.32559913
719, 1408856622, 0.29991126, 0.29227626, -0.84692955, 0.3276252
720, 1408873289, 0.30523208, 0.29278088, -0.843789, 0.33035308
721, 1408889956, 0.3096218, 0.29398137, -0.8405495, 0.33344564
722, 1408906623, 0.31339484, 0.2947369, -0.83799386, 0.3356789
723, 1408923290, 0.31694174, 0.29409626, -0.8365689, 0.3364637
724, 1408939957, 0.32069474, 0.29244396, -0.83573234, 0.33642676
725, 1408956624, 0.32496154, 0.29087275, -0.83450085, 0.33675152
726, 1408973291, 0.3294653, 0.2902081, -0.8324766, 0.3379568
727, 1408989958, 0.33387753, 0.29038137, -0.83004594, 0.33945313
728, 1409006625, 0.3383616, 0.2903503, -0.82765484, 0.34087476
729, 1409023292, 0.34314114, 0.28960466, -0.8254613, 0.34204796
730, 1409039959, 0.3482928, 0.28856358, -0.8231026, 0.34340307
731, 1409056626, 0.35398027, 0.2881407, -0.8201625, 0.34497306
732, 1409073293, 0.3598172, 0.2890048, -0.81662476, 0.34660056
733, 1409089960, 0.36539862, 0.29049376, -0.81265116, 0.34884885
734, 1409106627, 0.37124738, 0.29141033, -0.8085471, 0.351436
735, 1409123294, 0.37761033, 0.29142642, -0.8045078, 0.35390452
736, 1409139961, 0.38448486, 0.29078814, -0.8002739, 0.356617
737, 1409156628, 0.39160755, 0.29003838, -0.795652, 0.3598049
738, 1409173295, 0.39847335, 0.2895332, -0.7907464, 0.36346924
739, 1409189962, 0.4048991, 0.28920117, -0.7857378, 0.367472
740, 1409206629, 0.41103944, 0.28860098, -0.7809544, 0.37130404
741, 1409223296, 0.4178029, 0.28729674, -0.7761303, 0.37486437
742, 1409239963, 0.4256369, 0.28552532, -0.7707137, 0.3785623
743, 1409256630, 0.43379396, 0.28341115, -0.76497966, 0.38250095
744, 1409273297, 0.4414578, 0.28109458, -0.75955504, 0.38623434
745, 1409289964, 0.44868535, 0.27883685, -0.7541278, 0.39015755
746, 1409306631, 0.4561046, 0.2769054, -0.74827427, 0.3941801
747, 1409323298, 0.4638631, 0.27480114, -0.74219745, 0.39806825
748, 1409339965, 0.47154316, 0.27257898, -0.7362657, 0.40157297
749, 1409356632, 0.4789417, 0.27025485, -0.7305296, 0.40484998
750, 1409373299, 0.485876, 0.26805866, -0.72502303, 0.40793496
751, 1409389966, 0.4919862, 0.26688933, -0.71947277, 0.41119167
752, 1409406633, 0.4984272, 0.2661697, -0.7134862, 0.41432077
753, 1409423300, 0.5059634, 0.26525038, -0.70691127, 0.4170368
754, 1409439967, 0.5135839, 0.26413482, -0.7002915, 0.41959065
755, 1409456634, 0.52050126, 0.26321, -0.6940499, 0.42201182
756, 1409473301, 0.52643245, 0.26244393, -0.68851787, 0.42418778
757, 1409489968, 0.53130394, 0.26110578, -0.68409663, 0.42608914
758, 1409506635, 0.5358924, 0.2587918, -0.68048275, 0.42753884
759, 1409523302, 0.5409634, 0.25593445, -0.67673767, 0.42881516
760, 1409539969, 0.54571754, 0.25430617, -0.6721442, 0.43097925
761, 1409556636, 0.54998547, 0.2539216, -0.6669293, 0.4338726
762, 1409573303, 0.55453557, 0.25281122, -0.66198474, 0.43629467
763, 1409589970, 0.55893767, 0.2510823, -0.6574391, 0.43854362
764, 1409606637, 0.5627547, 0.24982285, -0.65283644, 0.4412489
765, 1409623304, 0.5674266, 0.24837725, -0.6478573, 0.443415
766, 1409639971, 0.5732901, 0.24607193, -0.64239985, 0.44509515
767, 1409656638, 0.5796525, 0.24359912, -0.6362791, 0.44700265
768, 1409673305, 0.58588314, 0.24198307, -0.6296247, 0.4491747
769, 1409689972, 0.5916398, 0.2406241, -0.62323195, 0.45126978
770, 1409706639, 0.59707606, 0.23819475, -0.61777323, 0.45290136
771, 1409723306, 0.6025402, 0.23504116, -0.6126277, 0.4543
772, 1409739973, 0.6084471, 0.23274255, -0.6061756, 0.45626134
773, 1409756640, 0.6147718, 0.23131776, -0.59845245, 0.45869634
774, 1409773307, 0.62133414, 0.22941601, -0.5908061, 0.46071723
775, 1409789974, 0.6274486, 0.2263997, -0.58450156, 0.46196285
776, 1409806641, 0.63261485, 0.22276163, -0.5797101, 0.4627226
777, 1409823308, 0.6374784, 0.21914786, -0.5749931, 0.46365774
778, 1409839975, 0.6433703, 0.21611828, -0.5685383, 0.4648998
779, 1409856642, 0.64988035, 0.21458045, -0.5600955, 0.46680158
780, 1409873309, 0.65625453, 0.21338016, -0.55145115, 0.46872225
781, 1409889976, 0.66219246, 0.21056198, -0.54423046, 0.4700832
782, 1409906643, 0.66714066, 0.2059924, -0.5388282, 0.47133288
783, 1409923310, 0.67124647, 0.20204033, -0.53415096, 0.47253636
784, 1409939977, 0.6753374, 0.19944656, -0.52841866, 0.4742513
785, 1409956644, 0.6800561, 0.19689025, -0.52186567, 0.47583026
786, 1409973311, 0.6851816, 0.19252568, -0.5157493, 0.4769308
787, 1409989978, 0.69010305, 0.18717553, -0.51033384, 0.47778937
788, 1410006645, 0.69437104, 0.183474, -0.5045028, 0.47923216
789, 1410023312, 0.6978462, 0.18217313, -0.49819776, 0.48127222
790, 1410039979, 0.70117205, 0.18045363, -0.49219036, 0.48326284
791, 1410056646, 0.70543665, 0.17639795, -0.4867072, 0.4841064
792, 1410073313, 0.7096994, 0.17122664, -0.48177126, 0.48466972
793, 1410089980, 0.7137346, 0.16605973, -0.47704902, 0.48521286
794, 1410106647, 0.71767557, 0.16247155, -0.47124884, 0.4862812
795, 1410123314, 0.7215501, 0.16050006, -0.46477747, 0.48742938
796, 1410139981, 0.7253406, 0.15801753, -0.45878297, 0.48829287
797, 1410156648, 0.7287583, 0.15419452, -0.45385638, 0.4890296
798, 1410173315, 0.73161834, 0.15071209, -0.4492347, 0.49011096
799, 1410189982, 0.7342759, 0.1482606, -0.44440112, 0.49128953
800, 1410206649, 0.73758084, 0.14550552, -0.4390197, 0.49200037
801, 1410223316, 0.74180025, 0.14214475, -0.43243793, 0.49246803
802, 1410239983, 0.7461693, 0.13860182, -0.4255233, 0.49290043
803, 1410256650, 0.7501657, 0.13427292, -0.41950047, 0.49319535
804, 1410273317, 0.7538026, 0.12883541, -0.41443563, 0.49338245
805, 1410289984, 0.75722283, 0.122932725, -0.40957132, 0.4937131
806, 1410306651, 0.7604511, 0.117600754, -0.40429276, 0.49440047
807, 1410323318, 0.7632435, 0.112716496, -0.39933127, 0.49526674
808, 1410339985, 0.7656568, 0.10603016, -0.39510566, 0.4964058
809, 1410356652, 0.7680315, 0.098179765, -0.39029312, 0.49815622
810, 1410373319, 0.7703937, 0.092853606, -0.38466677, 0.49990353
811, 1410389986, 0.77275336, 0.08958011, -0.378669, 0.50143546
812, 1410406653, 0.77512854, 0.08591473, -0.3732177, 0.50249684
813, 1410423320, 0.77765, 0.08178199, -0.36736855, 0.5035999
814, 1410439987, 0.78070587, 0.07827386, -0.3604444, 0.5044317
815, 1410456654, 0.784552, 0.07548907, -0.35215393, 0.50474465
816, 1410473321, 0.7890383, 0.07289979, -0.34279427, 0.5045754
817, 1410489988, 0.7934384, 0.070642196, -0.33285353, 0.50465214
818, 1410506655, 0.79712677, 0.06764037, -0.32336253, 0.505421
819, 1410523322, 0.8001194, 0.06431892, -0.3150878, 0.5063513
820, 1410539989, 0.8024115, 0.06143685, -0.30657557, 0.5083038
821, 1410556656, 0.80429053, 0.059810728, -0.29818362, 0.5105155
822, 1410573323, 0.8057018, 0.05875617, -0.2914539, 0.512296
823, 1410589990, 0.8067333, 0.056393906, -0.2867515, 0.5135902
824, 1410606657, 0.80739516, 0.05229401, -0.2830644, 0.5150275
825, 1410623324, 0.80815876, 0.047975987, -0.27894875, 0.5164935
826, 1410639991, 0.8092658, 0.044438157, -0.27374065, 0.51786125
827, 1410656658, 0.8104632, 0.041111175, -0.26815653, 0.5191834
828, 1410673325, 0.8116183, 0.037695885, -0.26265934, 0.5204468
829, 1410689992, 0.8128539, 0.034110777, -0.2573669, 0.5214091
830, 1410706659, 0.81433755, 0.0303963, -0.2516145, 0.5221309
831, 1410723326, 0.8162304, 0.027213076, -0.24546278, 0.52227926
832, 1410739993, 0.81829476, 0.025592867, -0.23908734, 0.52208817
833, 1410756660, 0.82020617, 0.024249323, -0.23342726, 0.5217142
834, 1410773327, 0.8217245, 0.022199161, -0.22806577, 0.52178764
835, 1410789994, 0.8231508, 0.020946369, -0.2230197, 0.52177215
836, 1410806661, 0.8245771, 0.020700455, -0.21850696, 0.5214393
837, 1410823328, 0.82580686, 0.020588674, -0.21469279, 0.521082
838, 1410839995, 0.8264999, 0.020312885, -0.21231133, 0.5209697
839, 1410856662, 0.82640374, 0.019617748, -0.2118038, 0.5213556
840, 1410873329, 0.8255649, 0.018272787, -0.21305142, 0.5222241
841, 1410889996, 0.82439274, 0.017271021, -0.21523918, 0.5232119
842, 1410906663, 0.8231377, 0.017087685, -0.21769473, 0.52417696
843, 1410923330, 0.8219303, 0.016787391, -0.22016351, 0.5250494
844, 1410939997, 0.82082117, 0.016603528, -0.22266313, 0.52573574
845, 1410956664, 0.8197941, 0.01660839, -0.22500207, 0.52634215
846, 1410973331, 0.8188657, 0.0165924, -0.22709092, 0.52689046
847, 1410989998, 0.81815124, 0.016482087, -0.22846027, 0.52741146
848, 1411006665, 0.8175485, 0.015993994, -0.22919282, 0.528043
849, 1411023332, 0.8171674, 0.015803725, -0.22997805, 0.5282971
850, 1411039999, 0.8168756, 0.015107553, -0.23088253, 0.5283742
851, 1411056666, 0.8166463, 0.013993908, -0.23171681, 0.52839434
852, 1411073333, 0.8165077, 0.012701717, -0.2323893, 0.52834564
853, 1411090000, 0.8163701, 0.0114444, -0.23304154, 0.5282997
854, 1411106667, 0.81619155, 0.010223226, -0.23375548, 0.5282852
855, 1411123334, 0.81599844, 0.009273538, -0.23456821, 0.52824074
856, 1411140001, 0.8158378, 0.008832832, -0.23542011, 0.5281174
857, 1411156668, 0.81574583, 0.00858361, -0.23614126, 0.5279415
858, 1411173335, 0.81576824, 0.008340837, -0.23660393, 0.5277036
859, 1411190002, 0.8157841, 0.007854567, -0.23693414, 0.52753836
860, 1411206669, 0.81573653, 0.007159348, -0.23722824, 0.5274899
861, 1411223336, 0.8157065, 0.0065601114, -0.23747541, 0.5274331
862, 1411240003, 0.8157353, 0.006271601, -0.23770295, 0.5272894
863, 1411256670, 0.8157823, 0.0061379652, -0.23777878, 0.527184
864, 1411273337, 0.8157045, 0.005594117, -0.2381089, 0.5271613
865, 1411290004, 0.81533074, 0.00451304, -0.23881185, 0.52743185
866, 1411306671, 0.8148525, 0.003507685, -0.2399041, 0.52768296
867, 1411323338, 0.8145245, 0.0032975655, -0.24077211, 0.52779543
868, 1411340005, 0.8141743, 0.0029882127, -0.24162062, 0.5279495
869, 1411356672, 0.8136965, 0.0021687776, -0.2427485, 0.5281727
870, 1411373339, 0.8130412, 6.456121E-4, -0.24417213, 0.5285296
871, 1411390006, 0.8124569, -0.0013314525, -0.2455056, 0.5288092
872, 1411406673, 0.8120449, -0.0029668137, -0.24639823, 0.5290202
873, 1411423340, 0.8118369, -0.0037440406, -0.24682482, 0.5291355
874, 1411440007, 0.81176955, -0.0045168777, -0.24704295, 0.5291311
875, 1411456674, 0.811741, -0.005942702, -0.24713193, 0.5291192
876, 1411473341, 0.81166136, -0.0075535052, -0.2472093, 0.52918464
877, 1411490008, 0.811657, -0.008763133, -0.24705485, 0.52924496
878, 1411506675, 0.8117944, -0.010200699, -0.24675551, 0.5291478
879, 1411523342, 0.81212145, -0.011646936, -0.2460142, 0.52896124
880, 1411540009, 0.8125545, -0.012495464, -0.24487038, 0.5288078
881, 1411556676, 0.8130434, -0.013123231, -0.243648, 0.5286056
882, 1411573343, 0.8134897, -0.014103264, -0.24253015, 0.52840793
883, 1411590010, 0.81389445, -0.015175343, -0.2412172, 0.5283559
884, 1411606677, 0.81438047, -0.015858732, -0.2397397, 0.52825934
885, 1411623344, 0.8149794, -0.016432347, -0.23821071, 0.5280099
886, 1411640011, 0.81558865, -0.01734844, -0.23685142, 0.5276512
887, 1411656678, 0.81610537, -0.018291201, -0.23565376, 0.52735627
888, 1411673345, 0.81658435, -0.018968655, -0.23453784, 0.52708864
889, 1411690012, 0.81712884, -0.019544242, -0.23346111, 0.5267017
890, 1411706679, 0.8176769, -0.02032364, -0.23259377, 0.5262053
891, 1411723346, 0.81817365, -0.021016749, -0.23187163, 0.5257241
892, 1411740013, 0.81856376, -0.021647556, -0.23147967, 0.52526397
893, 1411756680, 0.81888014, -0.022344468, -0.23113047, 0.52489483
894, 1411773347, 0.8191289, -0.022897212, -0.23079373, 0.52463096
895, 1411790014, 0.81932974, -0.023161005, -0.22995971, 0.5246724
896, 1411806681, 0.8197194, -0.022708585, -0.22931081, 0.5243674
897, 1411823348, 0.8200465, -0.022400267, -0.22885829, 0.5240666
898, 1411840015, 0.82025456, -0.022083903, -0.22880827, 0.5237761
899, 1411856682, 0.8204377, -0.021881258, -0.22879456, 0.52350396
900, 1411873349, 0.82064044, -0.021897018, -0.22849917, 0.5233144
901, 1411890016, 0.82079977, -0.022168472, -0.22810136, 0.52322656
902, 1411906683, 0.8208482, -0.022445165, -0.22806284, 0.5231558
903, 1411923350, 0.8208571, -0.02249647, -0.22836113, 0.52300924
904, 1411940017, 0.8209063, -0.022430284, -0.2286203, 0.5228218
905, 1411956684, 0.82097423, -0.022463057, -0.22864719, 0.52270186
906, 1411973351, 0.82103765, -0.02259931, -0.22858824, 0.5226222
907, 1411990018, 0.82113063, -0.022840628, -0.22870235, 0.5224156
908, 1412006685, 0.8212375, -0.023074154, -0.22895293, 0.52212757
909, 1412023352, 0.8213972, -0.023229275, -0.22921157, 0.52175593
910, 1412040019, 0.82159275, -0.023319615, -0.22941473, 0.5213545
911, 1412056686, 0.8217276, -0.02332324, -0.22962485, 0.5210492
912, 1412073353, 0.8218322, -0.023400811, -0.22987269, 0.5207714
913, 1412090020, 0.8219703, -0.023326442, -0.23010512, 0.5204541
914, 1412106687, 0.8221487, -0.02298474, -0.23038645, 0.5200629
915, 1412123354, 0.82234865, -0.022976935, -0.23059021, 0.5196565
916, 1412140021, 0.8225297, -0.023220122, -0.2307823, 0.5192738
917, 1412156688, 0.8226566, -0.02335719, -0.2308683, 0.5190283
918, 1412173355, 0.8227154, -0.023041442, -0.23107165, 0.51885873
919, 1412190022, 0.8227561, -0.022721436, -0.23133959, 0.51868904
920, 1412206689, 0.8228256, -0.0225236, -0.23153777, 0.5184987
921, 1412223356, 0.8229182, -0.022216173, -0.23178595, 0.5182543
922, 1412240023, 0.82295406, -0.022281127, -0.23191659, 0.5181361
923, 1412256690, 0.82279056, -0.022389239, -0.23212424, 0.5182982
924, 1412273357, 0.82260114, -0.022261808, -0.23273337, 0.5183309
925, 1412290024, 0.82246107, -0.022418955, -0.23323181, 0.5183223
926, 1412306691, 0.82231396, -0.022772083, -0.23346183, 0.5184368
927, 1412323358, 0.82211745, -0.022421142, -0.23375769, 0.5186304
928, 1412340025, 0.82191736, -0.02211303, -0.23401853, 0.51884323
929, 1412356692, 0.82169455, -0.02252474, -0.23404388, 0.5191669
930, 1412373359, 0.8214698, -0.022472214, -0.23406757, 0.5195143
931, 1412390026, 0.8213654, -0.021817286, -0.23419157, 0.51965106
932, 1412406693, 0.8213071, -0.021447813, -0.23408997, 0.5198044
933, 1412423360, 0.8211246, -0.021566765, -0.23418692, 0.5200441
934, 1412440027, 0.82086116, -0.021783626, -0.2342719, 0.5204127
935, 1412456694, 0.8206394, -0.022005865, -0.2344418, 0.5206764
936, 1412473361, 0.82036585, -0.022381788, -0.23463748, 0.52100325
937, 1412490028, 0.82004577, -0.02251447, -0.23490901, 0.52137876
938, 1412506695, 0.81975466, -0.022419013, -0.23518267, 0.5217173
939, 1412523362, 0.819527, -0.022562027, -0.23513001, 0.5220923
940, 1412540029, 0.819258, -0.023126526, -0.23518568, 0.5224648
941, 1412556696, 0.81895465, -0.023943195, -0.23531419, 0.5228453
942, 1412573363, 0.8186336, -0.024686847, -0.23544995, 0.5232523
943, 1412590030, 0.81830925, -0.025125884, -0.23565152, 0.5236479
944, 1412606697, 0.81795084, -0.025633104, -0.23573208, 0.524147
945, 1412623364, 0.8174966, -0.026464518, -0.23574337, 0.5248087
946, 1412640031, 0.816896, -0.027848274, -0.23542821, 0.5258128
947, 1412656698, 0.8164238, -0.028748553, -0.23524581, 0.52657896
948, 1412673365, 0.81592387, -0.029677412, -0.23514253, 0.52734756
949, 1412690032, 0.8153808, -0.030305624, -0.23508318, 0.52817756
950, 1412706699, 0.8148865, -0.030972438, -0.2349775, 0.5289483
951, 1412723366, 0.8143874, -0.031782653, -0.23478447, 0.52975404
952, 1412740033, 0.81384885, -0.032816973, -0.23421578, 0.5307692
953, 1412756700, 0.81339306, -0.03392748, -0.23403108, 0.53147924
954, 1412773367, 0.8130634, -0.035075396, -0.2338982, 0.5319676
955, 1412790034, 0.8129379, -0.036011335, -0.23383807, 0.5321231
956, 1412806701, 0.81304306, -0.036798373, -0.23362046, 0.53200424
957, 1412823368, 0.8132557, -0.037828613, -0.23306637, 0.53185
958, 1412840035, 0.8135412, -0.038562637, -0.23265478, 0.5315405
959, 1412856702, 0.8137812, -0.03922857, -0.23239733, 0.53123724
960, 1412873369, 0.8139214, -0.0395898, -0.23214972, 0.5311037
961, 1412890036, 0.81411266, -0.0396377, -0.23211451, 0.5308223
962, 1412906703, 0.814348, -0.0392786, -0.23204303, 0.530519
963, 1412923370, 0.8146265, -0.03848101, -0.23189801, 0.5302136
964, 1412940037, 0.81480503, -0.037854414, -0.2317755, 0.5300377
965, 1412956704, 0.8146595, -0.037753046, -0.23179644, 0.53025943
966, 1412973371, 0.81442654, -0.037318222, -0.23208272, 0.530523
967, 1412990038, 0.8143004, -0.036756966, -0.2323096, 0.5306564
968, 1413006705, 0.8143006, -0.036168184, -0.23258972, 0.5305738
969, 1413023372, 0.8143456, -0.03553467, -0.23279598, 0.5304573
970, 1413040039, 0.81441313, -0.034825232, -0.23296423, 0.53032684
971, 1413056706, 0.8145233, -0.034307644, -0.23311222, 0.53012615
