DeviceTag:,Xsens DOT 3,,,,,,,,,,,,,,,,,
FirmwareVersion:,1.3.0,,,,,,,,,,,,,,,,,
AppVersion:,2020.1.1,,,,,,,,,,,,,,,,,
Measurement Mode:,Sensor fusion Mode - Extended (Quaternion),,,,,,,,,,,,,,,,,
StartTime:,2020-08-03 15:35:33.438 +0200,,,,,,,,,,,,,,,,,
© Xsens Technologies B. V. 2005-2020,,,,,,,,,,,,,,,,,,,
PacketCounter,SampleTimeFine,Quat_W,Quat_X,Quat_Y,Quat_Z,FreeAcc_X,FreeAcc_Y,FreeAcc_Z,Status
1, 3041595585, 0.8492388, -0.2502111, 0.16672768, -0.4340409, -0.056441605, 0.059909742, 0.15633106, 0
2, 3041612252, 0.84931016, -0.2500194, 0.16735488, -0.4337705, -0.0073704515, 0.0071924236, 0.17910767, 0
3, 3041628919, 0.8493658, -0.24986441, 0.16764951, -0.4336369, -0.0339239, 0.0042787087, 0.1811018, 0
4, 3041645586, 0.8493904, -0.24985667, 0.16786762, -0.433509, 0.027541267, -0.042894818, 0.16889858, 0
5, 3041662253, 0.8493668, -0.25001615, 0.1678876, -0.43345568, 0.026111342, -0.044161912, 0.19285202, 0
6, 3041678920, 0.8493181, -0.2502755, 0.16782418, -0.4334257, 0.00523255, -0.058305144, 0.20306587, 0
7, 3041695587, 0.8492451, -0.2505207, 0.16781873, -0.43342918, 0.018600302, -0.0666491, 0.23008537, 0
8, 3041712254, 0.84919894, -0.25068876, 0.16776559, -0.43344277, 0.021193834, -0.041313913, 0.20918846, 0
9, 3041728921, 0.8491415, -0.25090864, 0.16769299, -0.43345672, 0.0365732, 0.027257629, 0.16241646, 0
10, 3041745588, 0.8490914, -0.25113007, 0.16759624, -0.4334635, 0.035203848, 0.017314207, 0.19064617, 0
11, 3041762255, 0.84906304, -0.25129977, 0.16754173, -0.43344182, 0.05408164, -0.00786855, 0.19992828, 0
12, 3041778922, 0.8490554, -0.25134948, 0.16743909, -0.43346757, 0.0149371475, 0.003306427, 0.21707726, 0
13, 3041795589, 0.84908867, -0.25131667, 0.16729207, -0.4334786, 0.039416622, 0.025577258, 0.20631027, 0
14, 3041812256, 0.84912676, -0.25129828, 0.16714385, -0.43347147, 0.06104027, 0.06253691, 0.2232647, 0
15, 3041828923, 0.84915745, -0.25130844, 0.16698727, -0.43346596, 0.06531697, 0.05772647, 0.23283482, 0
16, 3041845590, 0.84913963, -0.25122526, 0.16696738, -0.4335567, 0.0799536, 0.032207098, 0.24416447, 0
17, 3041862257, 0.84909827, -0.25100893, 0.16694161, -0.43377307, 0.037952725, 0.04535279, 0.22043514, 0
18, 3041878924, 0.8494271, -0.25087827, 0.16668402, -0.43330353, 0.0061111795, 0.02883563, 0.22735977, 0
19, 3041895591, 0.84956217, -0.25068814, 0.16650292, -0.4332185, -0.0074823196, -0.0021897564, 0.20190239, 0
20, 3041912258, 0.84970427, -0.25057504, 0.16632819, -0.43307224, 2.2910078E-4, -0.037955184, 0.15905666, 0
21, 3041928925, 0.84972745, -0.25038025, 0.16614135, -0.43321112, -0.04007129, -0.053279005, 0.1514492, 0
22, 3041945592, 0.8495012, -0.25002098, 0.16592559, -0.43394443, -0.079982884, -0.06898794, 0.12535572, 0
23, 3041962259, 0.84970975, -0.24983658, 0.1651986, -0.43391964, -0.08580271, -0.114919186, 0.16206074, 0
24, 3041978926, 0.8496023, -0.24953695, 0.1642106, -0.43467718, -0.15658401, -0.10370867, 0.19551182, 0
25, 3041995593, 0.849111, -0.2491532, 0.16261129, -0.43645495, -0.24325307, -0.089735314, 0.22258186, 0
26, 3042012260, 0.84909284, -0.24890465, 0.15964237, -0.43772617, -0.339737, -0.03146928, 0.23074818, 0
27, 3042028927, 0.8487433, -0.24810192, 0.15612328, -0.44012216, -0.2962443, -0.17776142, 0.44283104, 0
28, 3042045594, 0.84902066, -0.24643534, 0.1518461, -0.44201592, -0.0455563, -0.23569061, 0.5918484, 0
29, 3042062261, 0.8494482, -0.2433458, 0.14730047, -0.44443807, 0.025233608, -0.19850208, 0.5978203, 0
30, 3042078928, 0.85014117, -0.23940426, 0.14231582, -0.44687104, 0.045421522, -0.019494576, 0.38589764, 0
31, 3042095595, 0.8508705, -0.23502018, 0.13683563, -0.44951433, 0.15550455, 0.08716066, 0.23334122, 0
32, 3042112262, 0.85120183, -0.230276, 0.13122962, -0.45299983, 0.2806292, 0.12961695, 0.11369991, 0
33, 3042128929, 0.8517403, -0.22595543, 0.12569642, -0.45572472, 0.43894216, 0.14798468, 0.09719753, 0
34, 3042145596, 0.85226554, -0.22256485, 0.12021074, -0.4578859, 0.3867632, 0.22868349, 0.06896019, 0
35, 3042162263, 0.85163647, -0.22047785, 0.114736095, -0.46145692, 0.39191204, 0.3305133, -0.08324528, 0
36, 3042178930, 0.8508618, -0.22017401, 0.107982375, -0.4646497, 0.2734008, 0.13948025, 0.057468414, 0
37, 3042195597, 0.85054547, -0.22025824, 0.10028028, -0.4669095, 0.29249638, -0.36843005, 0.59817886, 0
38, 3042212264, 0.85134053, -0.21890277, 0.09283025, -0.46763793, 0.53408146, -0.7744138, 1.0150366, 0
39, 3042228931, 0.85183656, -0.21550679, 0.08804779, -0.46923414, 0.79858893, -0.7864775, 0.9746227, 0
40, 3042245598, 0.85162807, -0.21138498, 0.08642645, -0.4717821, 0.7971463, -0.42482123, 0.43808842, 0
41, 3042262265, 0.85133374, -0.20755239, 0.08663175, -0.47397223, 0.69551134, -0.014416809, -0.30022335, 0
42, 3042278932, 0.8497812, -0.20501181, 0.08803768, -0.47759104, 0.19331335, 0.17106798, -0.7674236, 0
43, 3042295599, 0.8489279, -0.20392385, 0.0879047, -0.47959492, -0.543494, 0.20996237, -1.0481234, 0
44, 3042312266, 0.8479577, -0.20419653, 0.08530399, -0.48166025, -1.0213238, 0.032376185, -1.2551041, 0
45, 3042328933, 0.8474757, -0.20526326, 0.079655446, -0.48302054, -1.1891861, -0.27910298, -0.97567654, 0
46, 3042345600, 0.8474755, -0.2055186, 0.072644934, -0.48401657, -1.1529789, -0.54237723, -0.5970688, 0
47, 3042362267, 0.84778327, -0.20376669, 0.06545772, -0.4852424, -1.0749156, -0.42950517, -0.5288553, 0
48, 3042378934, 0.8484723, -0.19974823, 0.057948694, -0.4866612, -1.0535069, -0.15840922, -0.3451147, 0
49, 3042395601, 0.8491774, -0.19466484, 0.05052831, -0.48831555, -0.7825379, -0.028904583, 0.0978899, 0
50, 3042412268, 0.8501803, -0.19025475, 0.044105567, -0.48893058, -0.40436333, 0.31220648, 0.13113785, 0
51, 3042428935, 0.85092133, -0.18668948, 0.039160326, -0.4894367, -0.16868044, 0.2761868, 0.29024124, 0
52, 3042445602, 0.85147846, -0.18489978, 0.03471184, -0.4894828, -0.27777696, 0.091358796, 0.46242142, 0
53, 3042462269, 0.8515875, -0.18335053, 0.030605238, -0.49014944, -0.39078033, -0.4114591, 0.8572521, 0
54, 3042478936, 0.85202134, -0.18046784, 0.027172908, -0.4906673, -0.53721017, -0.7457466, 1.0818901, 0
55, 3042495603, 0.8522913, -0.17590453, 0.025275575, -0.49195555, -0.53608316, -0.34390542, 0.9026985, 0
56, 3042512270, 0.8524562, -0.17216294, 0.024727887, -0.49302006, -0.48152703, 0.07664427, -0.13990784, 0
57, 3042528937, 0.8526221, -0.17183928, 0.025085114, -0.49282804, -0.5419692, -0.09110969, -0.260067, 0
58, 3042545604, 0.8528761, -0.17265578, 0.024590412, -0.4921277, -0.6644362, -0.80287015, 0.34022427, 0
59, 3042562271, 0.8538599, -0.17078131, 0.023772461, -0.49111477, -0.22754781, -1.4770344, 1.3267021, 0
60, 3042578938, 0.8558108, -0.16519141, 0.024505207, -0.48959264, 0.10050701, -1.269506, 1.0289793, 0
61, 3042595605, 0.8580899, -0.15758531, 0.026498785, -0.4880045, 0.3677895, -0.31590438, -0.082829475, 0
62, 3042612272, 0.8603192, -0.15103853, 0.029568871, -0.485969, 0.41176304, 0.49732593, -1.0685148, 0
63, 3042628939, 0.86237776, -0.14662492, 0.032486267, -0.48347944, 0.2808147, 0.42830524, -0.85401154, 0
64, 3042645606, 0.8645255, -0.14234266, 0.034549706, -0.4807728, 0.17415842, 0.14598313, -0.534935, 0
65, 3042662273, 0.86688745, -0.13653041, 0.035705194, -0.47811374, -0.06758523, 0.105786, -0.6277628, 0
66, 3042678940, 0.86934495, -0.12889743, 0.036039155, -0.47573903, 0.0128070405, 0.17833802, -0.9683132, 0
67, 3042695607, 0.87175775, -0.120575264, 0.036179252, -0.4734901, 0.255548, 0.0565946, -0.3529396, 0
68, 3042712274, 0.87440336, -0.110042736, 0.036984116, -0.47110865, 0.4350938, -0.19914289, 0.5281639, 0
69, 3042728941, 0.87732196, -0.09706026, 0.039352648, -0.46833605, 0.714352, -0.007618774, 0.9957619, 0
70, 3042745608, 0.8798737, -0.083572835, 0.0437442, -0.46575356, 0.84930223, 0.6178982, 0.7685995, 0
71, 3042762275, 0.8818093, -0.07194316, 0.049773805, -0.46342292, 0.62064505, 1.3596029, 0.08323002, 0
72, 3042778942, 0.8831864, -0.06264336, 0.057186402, -0.4612907, 0.4731879, 1.4845995, -0.015701294, 0
73, 3042795609, 0.8840861, -0.055206448, 0.06569902, -0.45937967, 0.36937147, 1.1762424, 0.18589497, 0
74, 3042812276, 0.88462037, -0.0468209, 0.07377813, -0.45805365, 0.19754902, 0.50208694, 0.710248, 0
75, 3042828943, 0.8851048, -0.038145915, 0.08137593, -0.45663375, 0.28351635, 0.67279696, 0.80028343, 0
76, 3042845610, 0.88545257, -0.03155388, 0.08890267, -0.4550562, 0.4294764, 0.8528689, 0.73176765, 0
77, 3042862277, 0.8855654, -0.02736488, 0.096743524, -0.45350593, 0.1425883, 0.71649575, 0.47059536, 0
78, 3042878944, 0.8857836, -0.023215475, 0.10475631, -0.45152676, -0.117486455, 0.30304545, 0.31823254, 0
79, 3042895611, 0.88620573, -0.017999295, 0.11158671, -0.4492946, -0.29792064, 0.015915938, 0.41179276, 0
80, 3042912278, 0.8867436, -0.01263224, 0.116308875, -0.44721383, -0.30240732, -0.020570988, 0.67311573, 0
81, 3042928945, 0.8872506, -0.008801722, 0.12057197, -0.44516644, -0.055651598, 0.11874302, 0.7196045, 0
82, 3042945612, 0.8874806, -0.0075899926, 0.12615873, -0.44317764, -0.13488112, 0.10678105, 0.54201317, 0
83, 3042962279, 0.88762474, -0.0071825897, 0.1326395, -0.44099793, -0.5178576, -0.07058375, 0.02644062, 0
84, 3042978946, 0.8881921, -0.005709032, 0.13843043, -0.43808788, -0.9293398, -0.15559354, -0.38253975, 0
85, 3042995613, 0.8892113, -0.0044887234, 0.14363988, -0.4343414, -0.46240795, -0.06935316, -0.29979324, 0
86, 3043012280, 0.89019203, -0.0045082793, 0.1484552, -0.43069798, -0.23327108, -0.36360604, 0.3873768, 0
87, 3043028947, 0.8912542, -0.0051359814, 0.15275694, -0.42697394, -0.05476168, -0.30407372, 0.9271898, 0
88, 3043045614, 0.89204305, -0.005831947, 0.15608013, -0.42410648, 0.3071018, 0.2510652, 1.1052723, 0
89, 3043062281, 0.8924588, -0.00804323, 0.15864389, -0.42223996, 0.24225217, 0.6912889, 0.8415642, 0
90, 3043078948, 0.89276624, -0.011568904, 0.1602704, -0.42089197, -0.20048799, 0.39467353, 0.29661465, 0
91, 3043095615, 0.8930227, -0.014903042, 0.16113105, -0.41991326, -0.12544474, 0.3297949, -0.23517704, 0
92, 3043112282, 0.89308864, -0.019222945, 0.16242895, -0.41909635, 0.34196565, 0.43120039, -0.363307, 0
93, 3043128949, 0.89285904, -0.025523083, 0.16394538, -0.4186584, 0.22128566, 0.23329146, -0.48949528, 0
94, 3043145616, 0.89269984, -0.03328751, 0.16436101, -0.41828978, 0.11655877, 0.1402317, -0.5244589, 0
95, 3043162283, 0.892498, -0.042668007, 0.16341415, -0.4182401, 0.023915552, -0.26907313, -0.01708126, 0
96, 3043178950, 0.8920708, -0.051786445, 0.1615205, -0.41885656, 0.16032651, -0.84266394, 0.55568886, 0
97, 3043195617, 0.8918216, -0.057277445, 0.15981962, -0.41932458, 0.069772474, -1.8386183, 1.5817099, 0
98, 3043212284, 0.8921979, -0.06052715, 0.1589962, -0.41837963, 0.15205039, -0.7916983, 0.6287117, 0
99, 3043228951, 0.8925559, -0.064654745, 0.15950882, -0.41680032, 0.6942115, -0.35264727, 0.3674965, 0
100, 3043245618, 0.8923063, -0.070582405, 0.16183205, -0.41547555, 0.77483034, -0.32462138, 0.18427086, 0
101, 3043262285, 0.89141357, -0.07832728, 0.16508317, -0.41472405, 0.46057168, -0.21657053, 0.1812439, 0
102, 3043278952, 0.8902808, -0.087012306, 0.16799766, -0.41425562, -0.01407584, -0.42180774, 0.092983246, 0
103, 3043295619, 0.88936055, -0.09443436, 0.17002939, -0.41377723, -0.3507324, -0.35253105, 0.16990757, 0
104, 3043312286, 0.8889159, -0.100972675, 0.17248322, -0.41217047, 0.20401995, -0.09523367, 0.16066551, 0
105, 3043328953, 0.88877004, -0.10769109, 0.17726235, -0.40874264, 0.6370762, -0.71140987, 0.57581997, 0
106, 3043345620, 0.88818574, -0.11240147, 0.1838486, -0.40582463, 0.42454845, -1.9899236, 0.9708891, 0
107, 3043362287, 0.8876416, -0.11290428, 0.19129978, -0.4034247, 0.021004407, -2.745788, 1.5392284, 0
108, 3043378954, 0.88833016, -0.10632876, 0.19741984, -0.400738, -0.2581977, -2.0438645, 1.6399097, 0
109, 3043395621, 0.8890744, -0.0972726, 0.20202628, -0.399089, 0.9450984, 0.054480836, -0.08283901, 0
110, 3043412288, 0.8891644, -0.09349699, 0.20709659, -0.3971873, 1.3016136, 0.335714, -0.43418884, 0
111, 3043428955, 0.8885011, -0.09287255, 0.21205959, -0.39619827, 1.0598562, -0.042180415, 0.19492531, 0
112, 3043445622, 0.8872127, -0.09320927, 0.21599698, -0.39687878, 0.93648565, -0.1503603, 0.763875, 0
113, 3043462289, 0.8858165, -0.09364754, 0.21863487, -0.39844686, 1.0138535, -0.36642557, 1.0338554, 0
114, 3043478956, 0.8845346, -0.09398511, 0.22010492, -0.40040085, 1.1408587, -0.16461875, 0.80473614, 0
115, 3043495623, 0.88351876, -0.094819695, 0.22154826, -0.40164912, 1.4986203, -0.46135712, 0.570076, 0
116, 3043512290, 0.8824273, -0.096051715, 0.22449629, -0.40211892, 1.9081923, -0.9356392, 0.37708473, 0
117, 3043528957, 0.8810231, -0.09838223, 0.22855134, -0.40234992, 1.5525148, -0.5761526, 0.08555126, 0
118, 3043545624, 0.8793785, -0.10162134, 0.23255682, -0.40284696, 1.2710632, -0.614784, 0.14729881, 0
119, 3043562291, 0.8775119, -0.10518072, 0.23658898, -0.40365487, 1.6209843, -0.64021003, 0.20571613, 0
120, 3043578958, 0.87520355, -0.10952724, 0.24099179, -0.4049043, 1.794924, -0.6425488, 0.48327827, 0
121, 3043595625, 0.872597, -0.11317866, 0.24543096, -0.40685457, 1.4886843, -0.87882334, 0.5246706, 0
122, 3043612292, 0.87011504, -0.11422147, 0.24964178, -0.40930957, 1.357602, -0.78547, 0.28234768, 0
123, 3043628959, 0.86792356, -0.113072, 0.2535759, -0.41185507, 1.3034065, -0.35012913, 0.0058279037, 0
124, 3043645626, 0.8657823, -0.1123533, 0.25746778, -0.4141375, 1.4019337, 0.05654062, -0.320446, 0
125, 3043662293, 0.8638165, -0.11244224, 0.2608367, -0.41610584, 1.023572, -0.15054503, -0.19911957, 0
126, 3043678960, 0.86199886, -0.11159589, 0.263298, -0.41854566, 0.8354914, -0.4908405, -0.14678192, 0
127, 3043695627, 0.86034554, -0.10850257, 0.26456845, -0.42194578, 0.7439117, -0.5746376, -0.0051937103, 0
128, 3043712294, 0.85885173, -0.103252456, 0.26524022, -0.42586648, 0.7820044, -0.49412826, -0.097720146, 0
129, 3043728961, 0.8574296, -0.09643692, 0.26557982, -0.43009716, 0.6294352, -0.28385687, -0.14071083, 0
130, 3043745628, 0.8560315, -0.08898333, 0.2652, -0.43469864, 0.52629846, -0.019262236, -0.14029598, 0
131, 3043762295, 0.85451615, -0.08149382, 0.26399413, -0.43985254, 0.59758276, 0.08603863, -0.29372978, 0
132, 3043778962, 0.852819, -0.074756175, 0.26197073, -0.44551554, 0.6211112, 0.4011466, -0.37193966, 0
133, 3043795629, 0.8508502, -0.069193624, 0.25995174, -0.45132375, 0.8656376, 0.4406738, -0.3690195, 0
134, 3043812296, 0.84869355, -0.063746564, 0.25824657, -0.45712787, 0.58798796, 0.119386375, -0.25658894, 0
135, 3043828963, 0.8464536, -0.057401933, 0.25613168, -0.46327072, 0.32028958, 0.3603627, -0.11646938, 0
136, 3043845630, 0.84431845, -0.050663076, 0.25419933, -0.46898195, 0.32691476, 0.19637574, 0.102129936, 0
137, 3043862297, 0.84217143, -0.042884782, 0.25201553, -0.4747614, 0.35685912, 0.29661757, 0.08818436, 0
138, 3043878964, 0.8397148, -0.034289457, 0.24973574, -0.48097524, 0.5781974, 0.40279517, 0.123267174, 0
139, 3043895631, 0.83674043, -0.024489146, 0.24678107, -0.4882282, 0.7107533, 0.56757563, -0.2916212, 0
140, 3043912298, 0.83344746, -0.016114298, 0.24251227, -0.49628118, 0.6180473, 1.3378557, -0.6576433, 0
141, 3043928965, 0.8301075, -0.011920016, 0.23827074, -0.50399244, 0.8537583, 1.1429315, -0.65930176, 0
142, 3043945632, 0.8263932, -0.011343278, 0.23477653, -0.51169086, 0.5952197, 0.5912347, -0.37795162, 0
143, 3043962299, 0.8227011, -0.012306685, 0.232153, -0.51876664, 0.43860093, -0.10346977, -0.020695686, 0
144, 3043978966, 0.8186267, -0.011970729, 0.2303196, -0.52598655, 0.54404706, -0.25680035, 0.72015285, 0
145, 3043995633, 0.81447333, -0.011055781, 0.22928931, -0.5328594, 1.105575, 0.19645414, 0.98113346, 0
146, 3044012300, 0.81032133, -0.012610029, 0.22969383, -0.5389463, 1.5962169, 0.6037618, 0.96089077, 0
147, 3044028967, 0.8053815, -0.016440352, 0.23181888, -0.54530025, 1.8301564, 0.7199958, 0.98495865, 0
148, 3044045634, 0.7999078, -0.020529404, 0.23534465, -0.55167097, 1.9932897, 0.7875668, 0.6279478, 0
149, 3044062301, 0.79425955, -0.02304924, 0.23887391, -0.55817693, 1.756826, 0.81054425, 0.52019215, 0
150, 3044078968, 0.78784126, -0.023689874, 0.24291962, -0.56545275, 2.176405, 0.7054069, 0.3999653, 0
151, 3044095635, 0.7799731, -0.023353098, 0.24830513, -0.5739713, 2.6617992, 0.8883864, 0.17071629, 0
152, 3044112302, 0.7705422, -0.022787971, 0.25550404, -0.58349377, 2.9240994, 1.0585662, -0.1136713, 0
153, 3044128969, 0.75971663, -0.021851331, 0.26350072, -0.59407276, 2.7368455, 0.9651363, 0.011457443, 0
154, 3044145636, 0.7475217, -0.018580671, 0.27059352, -0.6063392, 2.6479526, 0.7965088, 0.095891, 0
155, 3044162303, 0.73397934, -0.011540437, 0.27596247, -0.6204737, 2.7258897, 0.54875726, -0.01566124, 0
156, 3044178970, 0.7187463, -7.854393E-4, 0.27955037, -0.63659763, 2.8424828, 0.30867767, -0.34183025, 0
157, 3044195637, 0.7015289, 0.012143305, 0.28185788, -0.6544217, 3.041178, 0.43209612, -0.848382, 0
158, 3044212304, 0.6825128, 0.025271092, 0.28303182, -0.6733739, 2.8970275, 0.42895788, -1.1317883, 0
159, 3044228971, 0.66181254, 0.038087748, 0.28274706, -0.6932599, 2.62039, -0.15574786, -1.4023514, 0
160, 3044245638, 0.6394713, 0.049538933, 0.28195134, -0.71353185, 2.1348023, -0.77286065, -1.6163626, 0
161, 3044262305, 0.6154253, 0.059999358, 0.28056505, -0.73412323, 1.0288672, -1.4402374, -1.0371494, 0
162, 3044278972, 0.5900127, 0.070061296, 0.27808967, -0.7547479, -0.07959062, -1.6859441, -0.2988882, 0
163, 3044295639, 0.563652, 0.08055995, 0.27402794, -0.7750594, -1.0172496, -1.7605344, -9.1362E-4, 0
164, 3044312306, 0.5375292, 0.09119277, 0.26901704, -0.79396355, -1.463462, -1.5372343, 0.18384266, 0
165, 3044328973, 0.5116866, 0.10235834, 0.26315767, -0.8114491, -2.1977103, -1.1810945, 0.4984274, 0
166, 3044345640, 0.48593566, 0.11374519, 0.25562507, -0.82800126, -3.053431, -0.52349126, 0.76344395, 0
167, 3044362307, 0.4605427, 0.12536626, 0.2468925, -0.8433444, -3.3770907, -0.55560917, 1.0711203, 0
168, 3044378974, 0.43558207, 0.13638403, 0.23981993, -0.856829, -3.5884519, -0.46214294, 0.8876171, 0
169, 3044395641, 0.41098332, 0.1468161, 0.23493023, -0.8685319, -3.8547535, 0.07989627, 0.8176899, 0
170, 3044412308, 0.3870433, 0.15651359, 0.23091331, -0.87885255, -4.3200164, 0.80514485, 0.84167385, 0
171, 3044428975, 0.36434865, 0.16534497, 0.22618203, -0.8881186, -4.836957, 1.3326939, 1.0883446, 0
172, 3044445642, 0.34330612, 0.1738662, 0.22119416, -0.89609516, -4.7728395, 1.4831142, 0.6668081, 0
173, 3044462309, 0.32374427, 0.1822594, 0.21655439, -0.9028163, -4.6413827, 1.8342118, 0.17153263, 0
174, 3044478976, 0.30580652, 0.18936199, 0.21199064, -0.90867275, -3.9505289, 2.2865608, 0.09144211, 0
175, 3044495643, 0.28937396, 0.19274317, 0.20788194, -0.9142755, -3.1441576, 2.5424523, 0.020920753, 0
176, 3044512310, 0.27350965, 0.19097239, 0.20349191, -0.92049724, -2.315093, 2.589793, -0.08965206, 0
177, 3044528977, 0.25793922, 0.18357457, 0.19829457, -0.92760384, -2.1629405, 2.715768, -0.04509735, 0
178, 3044545644, 0.24383086, 0.17300904, 0.19305775, -0.9345293, -2.755222, 2.1256638, -0.41801834, 0
179, 3044562311, 0.231831, 0.16215253, 0.18866357, -0.94040895, -3.01727, 1.4916922, -0.6473608, 0
180, 3044578978, 0.22202589, 0.15336776, 0.18531853, -0.944903, -3.3473961, 1.1963775, -0.3378744, 0
181, 3044595645, 0.21362975, 0.14792708, 0.18276541, -0.94819754, -3.310878, 1.0796404, -0.2648306, 0
182, 3044612312, 0.20628418, 0.14471076, 0.17940345, -0.9509583, -2.754369, 1.2387408, -0.32061958, 0
183, 3044628979, 0.19988845, 0.14120778, 0.17492603, -0.95368105, -2.3204863, 1.2787966, -0.52833366, 0
184, 3044645646, 0.19399989, 0.13717724, 0.17103426, -0.9561882, -2.5433285, 0.7398918, -0.9378395, 0
185, 3044662313, 0.1887191, 0.13356388, 0.16994467, -0.9579491, -2.5719163, 0.17552806, -1.216774, 0
186, 3044678980, 0.18407035, 0.13048334, 0.17150383, -0.9589997, -2.5630748, 0.19346876, -1.1419239, 0
187, 3044695647, 0.17967965, 0.12848434, 0.17352581, -0.9597382, -3.048335, 0.41522005, -1.0227661, 0
188, 3044712314, 0.17522736, 0.12788881, 0.17469881, -0.96042806, -3.1659667, 0.39978355, -1.1113367, 0
189, 3044728981, 0.17125231, 0.12844981, 0.17452873, -0.9611009, -3.034174, 0.19154577, -1.0367546, 0
190, 3044745648, 0.16815628, 0.13040638, 0.17461754, -0.9613679, -2.8925235, -0.46730754, -1.1012554, 0
191, 3044762315, 0.16594231, 0.13436708, 0.1758078, -0.9609902, -2.980241, -0.539771, -0.5576668, 0
192, 3044778982, 0.16421579, 0.14132161, 0.1760479, -0.9602449, -3.0820513, -0.4470431, 0.4812832, 0
193, 3044795649, 0.16258731, 0.15196237, 0.17323235, -0.9594088, -2.334692, -0.2547405, 1.2473783, 0
194, 3044812316, 0.16164039, 0.16258605, 0.16822225, -0.95871854, -0.6120302, -0.3387516, 0.69207096, 0
195, 3044828983, 0.16104898, 0.16990542, 0.16483682, -0.9581367, 0.20281382, -0.8825775, -0.350914, 0
196, 3044845650, 0.15997766, 0.17579614, 0.16669185, -0.9569318, -0.21523686, -1.4266276, -0.7074919, 0
197, 3044862317, 0.15787064, 0.18217309, 0.17149013, -0.95523965, -0.73221946, -0.1176255, -0.043179512, 0
198, 3044878984, 0.15491283, 0.18668452, 0.17304651, -0.95457214, -0.1786202, 1.4861377, 1.0725689, 0
199, 3044895651, 0.15203418, 0.18650341, 0.17077857, -0.95547825, -0.011244546, 1.1832974, 1.1119032, 0
200, 3044912318, 0.14983392, 0.18357973, 0.16990343, -0.95654744, -0.6089489, -0.04563679, 0.90711594, 0
201, 3044928985, 0.14830774, 0.18097924, 0.17344671, -0.9566449, -0.74932146, -0.080012806, 1.2720518, 0
202, 3044945652, 0.1465567, 0.18046449, 0.17704071, -0.9563536, -0.9346257, 0.7632799, 1.4905272, 0
203, 3044962319, 0.14531617, 0.18149686, 0.17840928, -0.9560932, -0.08030393, 0.35263693, 1.08817, 0
204, 3044978986, 0.14454275, 0.1831376, 0.17866193, -0.95585036, -0.29856876, -0.11079688, 1.2195196, 0
205, 3044995653, 0.14368427, 0.18638198, 0.1792495, -0.95524246, -0.57134396, -0.2760428, 1.332675, 0
206, 3045012320, 0.14207935, 0.19100039, 0.17972295, -0.95448095, -0.31774503, -0.17786382, 1.1274395, 0
207, 3045028987, 0.13995954, 0.1953483, 0.1798882, -0.9538829, -0.072244614, 0.09997581, 0.8613186, 0
208, 3045045654, 0.1377167, 0.19798592, 0.17970152, -0.9537006, 0.14149016, 0.20289774, 0.58200645, 0
209, 3045062321, 0.13544573, 0.19903032, 0.17930721, -0.9538827, 0.10008524, 0.09405171, 0.3429594, 0
210, 3045078988, 0.13253559, 0.19882217, 0.17856802, -0.9544734, 0.27549183, -0.07958944, -0.033350945, 0
211, 3045095655, 0.1292824, 0.19738787, 0.177775, -0.95536476, 0.27669525, -0.268291, -0.1305561, 0
212, 3045112322, 0.12572849, 0.19503097, 0.17651726, -0.9565557, -0.027455159, -0.17747608, 0.036600113, 0
213, 3045128989, 0.12219027, 0.19189025, 0.1756807, -0.9578028, -0.14391814, -0.4262322, 0.022488594, 0
214, 3045145656, 0.11891495, 0.18825297, 0.17619199, -0.95884216, -0.39658535, -0.40930793, 0.01908207, 0
215, 3045162323, 0.115867406, 0.18435034, 0.17815831, -0.95960987, -0.4742365, -0.2240634, -0.0058918, 0
216, 3045178990, 0.11274031, 0.18052293, 0.17989437, -0.96038586, -0.7520592, 0.37737006, 0.38206482, 0
217, 3045195657, 0.10991631, 0.17732735, 0.18034688, -0.9612233, -0.90546864, 0.28284445, 0.5041599, 0
218, 3045212324, 0.107879154, 0.17493168, 0.18067892, -0.96183044, -0.97713125, 0.19806622, 0.640996, 0
219, 3045228991, 0.106370345, 0.17297518, 0.18175644, -0.9621494, -0.6690669, 0.204477, 0.6310673, 0
220, 3045245658, 0.10519841, 0.17001107, 0.18381572, -0.9624154, -0.259798, 0.46016893, 0.4759121, 0
221, 3045262325, 0.10362776, 0.1655122, 0.1858506, -0.9629789, -0.19143933, 0.5537012, 0.30040836, 0
222, 3045278992, 0.10122074, 0.15980479, 0.1866839, -0.9640373, -0.28777623, 0.6011776, 0.2331028, 0
223, 3045295659, 0.098479025, 0.15307966, 0.1863024, -0.9654852, -0.37149572, 0.47979823, 0.04402733, 0
224, 3045312326, 0.09559509, 0.14589787, 0.1848851, -0.967158, -0.58125806, 0.43129393, -0.062184334, 0
225, 3045328993, 0.09284671, 0.13888527, 0.18275695, -0.9688612, -0.85856915, 0.29290876, 0.00244236, 0
226, 3045345660, 0.09088999, 0.13325906, 0.18068933, -0.97022384, -1.3910891, -0.16412961, 0.20396519, 0
227, 3045362327, 0.08999463, 0.13018675, 0.17940192, -0.97096294, -1.5319446, -0.1403315, 0.63985443, 0
228, 3045378994, 0.08973688, 0.12882175, 0.17782365, -0.97145903, -0.86297184, 0.0789828, 0.52809143, 0
229, 3045395661, 0.089821786, 0.12742333, 0.17577508, -0.97200835, -0.4275505, 0.14249925, 0.24608326, 0
230, 3045412328, 0.089944385, 0.12553322, 0.17284137, -0.9727687, -0.32761323, -0.06961852, 0.06904125, 0
231, 3045428995, 0.08994321, 0.123187214, 0.16981311, -0.97360176, -0.33301175, -0.26610982, 0.03275299, 0
232, 3045445662, 0.08955232, 0.12023188, 0.16718057, -0.9744624, -0.17387241, -0.23315994, 0.13068867, 0
233, 3045462329, 0.08893888, 0.11683399, 0.16544127, -0.97522855, -0.44877985, -0.076070026, 0.19642735, 0
234, 3045478996, 0.088198826, 0.11378132, 0.16411199, -0.97588116, -0.69031453, 0.20090306, 0.1864891, 0
235, 3045495663, 0.08767916, 0.11132337, 0.16245463, -0.97648853, -0.4849869, 0.52460617, 0.25567436, 0
236, 3045512330, 0.08750802, 0.108675376, 0.1600919, -0.97719216, -0.15515167, 0.53645724, 0.061130524, 0
237, 3045528997, 0.08765721, 0.10538842, 0.15752162, -0.9779562, -0.12144282, 0.37350446, 0.026639938, 0
238, 3045545664, 0.08799268, 0.1020411, 0.15532346, -0.97863245, -0.30404478, 0.18186095, 0.07939243, 0
239, 3045562331, 0.08844629, 0.099384665, 0.15357208, -0.9791413, -0.37007225, 0.10581669, 0.10606575, 0
240, 3045578998, 0.08877556, 0.09724619, 0.15231842, -0.9795218, -0.25786847, -0.06061816, -0.121593475, 0
241, 3045595665, 0.088889435, 0.09545138, 0.15176135, -0.97977453, -0.100248456, -0.11978891, -0.2162962, 0
242, 3045612332, 0.08877416, 0.09368575, 0.15216045, -0.97989345, 0.019837221, -0.33610272, -0.458148, 0
243, 3045628999, 0.08841679, 0.091928124, 0.15377368, -0.9798404, -0.11153675, -0.32819343, -0.5780277, 0
244, 3045645666, 0.08811748, 0.09050757, 0.1565517, -0.97955966, -0.1244585, -0.26315078, -0.8978329, 0
245, 3045662333, 0.08777199, 0.089431345, 0.16036648, -0.9790724, -0.41897532, -0.19837233, -0.6959152, 0
246, 3045679000, 0.08744483, 0.08906227, 0.16393395, -0.97854424, -0.51276994, -0.028974235, -0.4131403, 0
247, 3045695667, 0.087480515, 0.08931574, 0.16649678, -0.97808516, -0.69336665, 0.33020684, 0.02563858, 0
248, 3045712334, 0.0880644, 0.09117765, 0.168303, -0.9775517, -0.9774709, 0.040459204, 0.44471836, 0
249, 3045729001, 0.088908024, 0.09494265, 0.16938984, -0.97692895, -0.79258144, 0.25277773, 0.6969061, 0
250, 3045745668, 0.08973324, 0.09890331, 0.1700696, -0.97634226, -0.16124511, 0.076193266, 0.286767, 0
251, 3045762335, 0.09023637, 0.10230004, 0.17103447, -0.97577727, -0.30352736, -0.18317604, -0.022807121, 0
252, 3045779002, 0.09049819, 0.106194645, 0.17214082, -0.9751421, -0.35604978, 0.09042245, 0.16775799, 0
253, 3045795669, 0.09080921, 0.110128425, 0.17271134, -0.9745759, -0.12413225, 0.16110641, -0.075549126, 0
254, 3045812336, 0.09111729, 0.11317963, 0.17254128, -0.9742275, -0.042872608, 0.27284607, 0.01143837, 0
255, 3045829003, 0.09151442, 0.11554295, 0.1719886, -0.9740106, -0.31195927, 0.19496444, 0.34699154, 0
256, 3045845670, 0.09219571, 0.11844259, 0.17197496, -0.9736004, -0.4740931, 0.026568733, 0.6145773, 0
257, 3045862337, 0.09282835, 0.12155578, 0.17210203, -0.97313404, -0.18595679, 0.10140188, 0.5630083, 0
258, 3045879004, 0.09316636, 0.12443169, 0.17182244, -0.9727877, -0.15953831, 0.03549745, 0.33084583, 0
259, 3045895671, 0.09307815, 0.12721506, 0.1710598, -0.97257036, -0.03353415, 0.07329493, 0.1317215, 0
260, 3045912338, 0.09284834, 0.12969466, 0.16979344, -0.9724867, -0.10443079, 0.18577635, 0.0655756, 0
261, 3045929005, 0.093093425, 0.13203867, 0.16811085, -0.9724401, -0.09284739, 0.26869953, 0.17466259, 0
262, 3045945672, 0.09383947, 0.13386364, 0.16629776, -0.97243077, -0.011154987, 0.2946783, 0.42373466, 0
263, 3045962339, 0.094477296, 0.1352308, 0.16491681, -0.9724151, -0.042138632, 0.14271712, 0.56228256, 0
264, 3045979006, 0.09485463, 0.13612014, 0.16376023, -0.9724498, 0.09637504, 0.12173541, 0.60733986, 0
265, 3045995673, 0.09489635, 0.13647091, 0.16289039, -0.97254246, -0.1274886, 0.145549, 0.56502914, 0
266, 3046012340, 0.09470861, 0.13643716, 0.16221696, -0.97267807, -0.14052609, 0.20596597, 0.43967247, 0
267, 3046029007, 0.09432355, 0.13571316, 0.16175342, -0.97289395, -0.14977698, 0.18451063, 0.27421093, 0
268, 3046045674, 0.09362731, 0.13500783, 0.1611651, -0.973157, -0.40023145, 0.14095445, 0.34883213, 0
269, 3046062341, 0.09295219, 0.1343532, 0.1604989, -0.97342235, -0.13561468, -0.07219343, 0.15186119, 0
270, 3046079008, 0.0924022, 0.13344763, 0.1599163, -0.97369504, -0.13965273, -0.1178759, 0.19835949, 0
271, 3046095675, 0.092057675, 0.13254519, 0.15950517, -0.97391826, -0.22001895, -0.10650468, 0.22022915, 0
272, 3046112342, 0.091837846, 0.13174066, 0.15922256, -0.97409457, -0.16632354, -0.004475763, 0.20281792, 0
273, 3046129009, 0.091651395, 0.13092883, 0.15904878, -0.97424996, -0.19964138, 0.025119713, 0.2255764, 0
274, 3046145676, 0.091504484, 0.13000648, 0.15884456, -0.9744206, -0.06850007, 0.02311448, 0.23917007, 0
275, 3046162343, 0.09139994, 0.12900221, 0.15868972, -0.97458905, -0.1394734, -0.03128462, 0.1381836, 0
276, 3046179010, 0.09137667, 0.12800333, 0.15854631, -0.9747464, -0.16201416, 0.019115023, 0.08761597, 0
277, 3046195677, 0.09146139, 0.1270594, 0.15819728, -0.97491854, -0.18883185, 0.03039846, 0.12426472, 0
278, 3046212344, 0.09168549, 0.12629724, 0.15784751, -0.97505325, -0.21742547, -0.11007156, 0.107928276, 0
279, 3046229011, 0.091930754, 0.12569697, 0.15772052, -0.9751282, -0.13663238, -0.09462575, 0.14277077, 0
280, 3046245678, 0.09209314, 0.12513262, 0.15760987, -0.97520345, -0.0739628, -0.057562996, 0.14143181, 0
281, 3046262345, 0.09214554, 0.124524556, 0.15752007, -0.9752907, -0.14465943, 0.110166214, 0.2546854, 0
282, 3046279012, 0.09216653, 0.1237912, 0.15723898, -0.97542745, -0.1518653, 0.13703713, 0.31968212, 0
283, 3046295679, 0.092100136, 0.122791305, 0.1569621, -0.9756048, -0.15481876, 0.12007087, 0.3270254, 0
284, 3046312346, 0.09181366, 0.12159435, 0.15677562, -0.9758116, -0.17434153, 0.025258599, 0.22497177, 0
285, 3046329013, 0.09143276, 0.12024411, 0.15677072, -0.9760155, -0.04209625, 0.063749306, 0.24206638, 0
286, 3046345680, 0.09107841, 0.118599996, 0.15655129, -0.976285, -0.054696847, 0.1676341, 0.23309708, 0
287, 3046362347, 0.0908798, 0.11682513, 0.15607005, -0.9765944, -0.15110576, 0.06326716, 0.22070694, 0
288, 3046379014, 0.09082067, 0.115476675, 0.15572235, -0.97681576, -0.2732838, -0.050523475, 0.23263359, 0
289, 3046395681, 0.090837464, 0.11423161, 0.1559531, -0.97692376, -0.20357198, -0.24703361, 0.12788773, 0
290, 3046412348, 0.09087083, 0.113113314, 0.1564559, -0.9769703, -0.331213, -0.2783261, 0.060152054, 0
291, 3046429015, 0.09091691, 0.11201339, 0.15654467, -0.9770786, -0.22635841, -0.30365843, -0.094623566, 0
292, 3046445682, 0.09141718, 0.11051094, 0.15644133, -0.9772197, -0.055874553, -0.2017484, -0.06771088, 0
293, 3046462349, 0.09194162, 0.1083417, 0.15578084, -0.9775188, -0.30735815, -0.024289027, 0.39717865, 0
294, 3046479016, 0.092258744, 0.10589597, 0.1546908, -0.9779299, -0.6297742, 0.07478061, 1.0185013, 0
295, 3046495683, 0.09240168, 0.10337713, 0.15370125, -0.9783419, -0.67781186, -0.08682778, 1.0349636, 0
296, 3046512350, 0.092391, 0.10050669, 0.15375051, -0.97863436, -0.58630896, -0.33556163, 0.7116318, 0
297, 3046529017, 0.091940925, 0.098177336, 0.15547745, -0.97864026, -0.60329974, -0.3953466, 0.7020235, 0
298, 3046545684, 0.09116657, 0.09536696, 0.15702492, -0.9787436, 0.14634304, 0.3583351, 0.3021183, 0
299, 3046562351, 0.09061941, 0.09084888, 0.15560219, -0.9794511, 0.7587797, 0.56606436, -0.48692608, 0
300, 3046579018, 0.0900718, 0.08480102, 0.151015, -0.9807612, 0.75799453, 0.2928841, -1.0432844, 0
301, 3046595685, 0.09050804, 0.07787476, 0.14614432, -0.9820325, 0.57744426, -0.83118004, -0.80936337, 0
302, 3046612352, 0.09142683, 0.07216696, 0.14368905, -0.98274535, 0.71214944, -0.43904597, -0.024734497, 0
303, 3046629019, 0.0918757, 0.0678995, 0.14246908, -0.9831851, 0.45746738, 0.050486546, 0.4593668, 0
304, 3046645686, 0.09280581, 0.06475866, 0.14100331, -0.98352087, 0.27978265, 0.36186075, 0.570343, 0
305, 3046662353, 0.09405175, 0.062414978, 0.13984905, -0.9837188, 0.16442713, 0.39905345, 0.5673132, 0
306, 3046679020, 0.09526282, 0.0603806, 0.13929114, -0.9838084, -0.01043392, 0.464778, 0.51331615, 0
307, 3046695687, 0.096279316, 0.058503207, 0.13865428, -0.98391294, -0.17777778, 0.55603254, 0.47052097, 0
308, 3046712354, 0.09712573, 0.056669682, 0.1379654, -0.9840338, -0.27148637, 0.6051726, 0.43023396, 0
309, 3046729021, 0.09806034, 0.055200007, 0.13722505, -0.98412824, -0.6064268, 0.5124928, 0.5741377, 0
310, 3046745688, 0.09921147, 0.05476588, 0.13660899, -0.9841227, -0.6027535, 0.46631038, 0.78764343, 0
311, 3046762355, 0.09993944, 0.054445297, 0.13558091, -0.9842091, -0.21237195, 0.1914274, 0.44496536, 0
312, 3046779022, 0.10081936, 0.053146917, 0.13440114, -0.9843521, 0.19442834, -0.21601427, -0.08370781, 0
313, 3046795689, 0.10143308, 0.051009167, 0.13345134, -0.98453134, -0.15526618, -0.34605843, -0.0033340454, 0
314, 3046812356, 0.10127983, 0.048726723, 0.13266678, -0.9847688, -0.57896143, -0.33376718, 0.6050873, 0
315, 3046829023, 0.100228556, 0.046654373, 0.13165401, -0.9851126, -1.0046442, -0.05774815, 0.6529331, 0
316, 3046845690, 0.10065382, 0.045673635, 0.1306178, -0.98525304, -1.7104172, -1.0154452, 0.9507208, 0
317, 3046862357, 0.103296354, 0.04754883, 0.13483262, -0.9843225, -1.8333846, -0.8375988, 1.7358694, 0
318, 3046879024, 0.10551532, 0.05124265, 0.13976823, -0.98321277, -1.8061094, 0.46962732, 2.2805052, 0
319, 3046895691, 0.10754496, 0.056177054, 0.14237748, -0.9823485, -1.9514123, 0.6101886, 2.315154, 0
320, 3046912358, 0.11076578, 0.062310494, 0.14475384, -0.9812729, -1.5686966, 0.08870795, 1.8086519, 0
321, 3046929025, 0.11422325, 0.068478234, 0.14925876, -0.97978944, -1.3662254, 0.025574388, 1.2044735, 0
322, 3046945692, 0.1197923, 0.07343514, 0.15595235, -0.9777207, -1.1449755, 0.6521537, 0.79262066, 0
323, 3046962359, 0.12475973, 0.076975696, 0.16271229, -0.97572345, -1.1526558, 1.2456424, 0.38139153, 0
324, 3046979026, 0.13020031, 0.07865437, 0.16818966, -0.97394836, -1.0871197, 1.519711, 0.12635136, 0
325, 3046995693, 0.13825431, 0.07865414, 0.17215224, -0.9721445, -0.9696951, 1.3496758, 0.030245781, 0
326, 3047012360, 0.14768103, 0.07756722, 0.17500333, -0.97033465, -0.59651804, 1.008127, -0.16046047, 0
327, 3047029027, 0.15785009, 0.075012326, 0.17792794, -0.9684007, -0.59731466, 0.7829092, -0.35312462, 0
328, 3047045694, 0.168421, 0.07101331, 0.18140936, -0.9662732, -0.73086613, 0.85258883, -0.5283909, 0
329, 3047062361, 0.17970073, 0.06493074, 0.18531376, -0.9639254, -0.95952535, 1.1454854, -0.6295309, 0
330, 3047079028, 0.19208656, 0.0565146, 0.18942869, -0.9612634, -1.3250718, 1.1297454, -0.6406498, 0
331, 3047095695, 0.20608191, 0.04614628, 0.19425465, -0.9579499, -1.6026741, 1.0714096, -0.64072037, 0
332, 3047112362, 0.22166008, 0.03430431, 0.19879414, -0.95402986, -1.928961, 1.3217859, -0.3638935, 0
333, 3047129029, 0.23861463, 0.021537766, 0.20215254, -0.9495975, -2.2462869, 1.2066995, -0.16027641, 0
334, 3047145696, 0.25697786, 0.007833507, 0.20470701, -0.94445646, -2.2980437, 0.88319355, 0.070301056, 0
335, 3047162363, 0.27671382, -0.0068620634, 0.20786853, -0.93817633, -2.4151652, 0.50147784, 0.5013685, 0
336, 3047179030, 0.2973263, -0.021819033, 0.21185984, -0.93071926, -2.5483284, 0.18521124, 1.0859499, 0
337, 3047195697, 0.31873354, -0.03678428, 0.21632689, -0.9220956, -2.0032017, 0.08331884, 1.5643158, 0
338, 3047212364, 0.34081227, -0.051622592, 0.22028275, -0.91250175, -1.5238782, -0.033166878, 1.9018593, 0
339, 3047229031, 0.36340168, -0.066269316, 0.2238846, -0.9019009, -1.1032057, -0.2954206, 2.227603, 0
340, 3047245698, 0.38605407, -0.08072414, 0.22902997, -0.8899399, -0.47896904, -0.55200493, 2.6865616, 0
341, 3047262365, 0.40842158, -0.09573896, 0.237809, -0.8760564, -0.07738097, -0.5683317, 2.9282427, 0
342, 3047279032, 0.43038753, -0.11275625, 0.25176132, -0.8594595, 0.094539054, -0.29758525, 2.9040651, 0
343, 3047295699, 0.45193374, -0.13193086, 0.27022785, -0.8398386, -0.38712677, -0.03159244, 2.6858397, 0
344, 3047312366, 0.47301677, -0.1513926, 0.2897688, -0.81815124, -1.3657912, 0.10108379, 2.894001, 0
345, 3047329033, 0.49419406, -0.16807179, 0.30850297, -0.79520565, -1.5806679, -0.741593, 2.8587618, 0
346, 3047345700, 0.51578814, -0.17974631, 0.32656264, -0.77137053, -1.2138517, -1.4724586, 3.0377398, 0
347, 3047362367, 0.53739977, -0.18469608, 0.34285635, -0.7480243, -0.61955243, -1.6837825, 2.708909, 0
348, 3047379034, 0.55865204, -0.1860919, 0.35805473, -0.72462153, 0.34159318, -1.2098471, 0.8163681, 0
349, 3047395701, 0.5789815, -0.18847883, 0.3730099, -0.70008683, 0.81923276, -0.37392086, -0.34919643, 0
350, 3047412368, 0.5977873, -0.19208479, 0.3872134, -0.67514527, 0.70673925, -0.49327824, -0.4276142, 0
351, 3047429035, 0.614775, -0.19498023, 0.4004598, -0.65089804, 0.6673989, -1.0967455, -0.49717903, 0
352, 3047445702, 0.6295378, -0.19591475, 0.41299742, -0.62827915, 0.63643837, -1.4444113, -0.622015, 0
353, 3047462369, 0.6423505, -0.19554146, 0.42439327, -0.6074878, 0.62924856, -1.0558321, -1.1070595, 0
354, 3047479036, 0.6542278, -0.19589293, 0.43470562, -0.5870646, 0.65492356, -0.79166067, -1.5104198, 0
355, 3047495703, 0.6659277, -0.19683877, 0.4440371, -0.56623995, 0.5709005, -1.0627928, -1.4142313, 0
356, 3047512370, 0.6779449, -0.197066, 0.45165262, -0.54549766, 0.5077908, -1.3946097, -1.4488287, 0
357, 3047529037, 0.68958855, -0.1955537, 0.45711464, -0.5265684, 0.6890428, -1.5443094, -1.7700663, 0
358, 3047545704, 0.70032436, -0.1921611, 0.4601159, -0.5107984, 0.8763254, -0.81693715, -2.2229095, 0
359, 3047562371, 0.71078193, -0.18797058, 0.4608833, -0.49703598, 0.9649209, -0.20472424, -2.5319366, 0
360, 3047579038, 0.72168374, -0.18384674, 0.4599141, -0.48358428, 1.0546602, -0.06829718, -2.5195255, 0
361, 3047595705, 0.73260546, -0.17953739, 0.45758095, -0.47082627, 1.1423814, -0.1316032, -2.0275083, 0
362, 3047612372, 0.74303025, -0.17449924, 0.45321473, -0.46049342, 1.1397306, 0.15142109, -1.6958218, 0
363, 3047629039, 0.7527067, -0.16921386, 0.44686982, -0.4528887, 1.1306801, 0.5854072, -1.4075403, 0
364, 3047645706, 0.76168996, -0.1642836, 0.43965846, -0.44670075, 1.3414743, 0.5725559, -1.3006525, 0
365, 3047662373, 0.7696593, -0.16007671, 0.43366423, -0.44038323, 1.5646219, 0.15126127, -0.978302, 0
366, 3047679040, 0.77616125, -0.15662722, 0.42981938, -0.43393406, 1.3752794, -0.022382252, -0.2548561, 0
367, 3047695707, 0.7816264, -0.15444519, 0.42687473, -0.4277694, 0.75774556, 0.17552438, 0.29662132, 0
368, 3047712374, 0.786659, -0.15302773, 0.4238015, -0.42207137, 0.2567375, -0.0624769, 0.5419817, 0
369, 3047729041, 0.79170024, -0.15091448, 0.42029408, -0.41688165, 0.08290811, -0.3946985, 0.27785397, 0
370, 3047745708, 0.7968748, -0.14743692, 0.4163708, -0.4121774, -0.14348549, -0.3401504, -0.009804726, 0
371, 3047762375, 0.8020779, -0.14271754, 0.41165444, -0.40846685, -0.18348938, 0.10654405, -0.5748024, 0
372, 3047779042, 0.80746263, -0.13821124, 0.4063201, -0.4047317, -0.27550855, 0.3487552, -0.9017744, 0
373, 3047795709, 0.8129361, -0.13460776, 0.4006502, -0.4006207, -0.3581735, 0.2638899, -0.81690216, 0
374, 3047812376, 0.8184384, -0.13149965, 0.39469388, -0.39633954, -0.4173009, -0.046235777, -0.6545677, 0
375, 3047829043, 0.82386833, -0.12799986, 0.3884331, -0.39240113, -0.46371606, -0.42778558, -0.41460896, 0
376, 3047845710, 0.82930017, -0.12382047, 0.3825102, -0.38809505, 0.110154785, -0.5964668, -0.5600109, 0
377, 3047862377, 0.8339785, -0.11869182, 0.377746, -0.38432032, -0.37309477, -0.3887998, 0.12917519, 0
378, 3047879044, 0.83867687, -0.11345951, 0.37247127, -0.3808083, -0.4058034, 0.23238027, -0.24759579, 0
379, 3047895711, 0.8435572, -0.10959355, 0.36678058, -0.37666225, -0.5164499, 0.52571994, -0.19812202, 0
380, 3047912378, 0.84856695, -0.10690962, 0.36102125, -0.37171212, -0.50981474, -0.035069183, 0.06986332, 0
381, 3047929045, 0.8535371, -0.10364659, 0.35556033, -0.36648417, -0.3724003, -0.49925205, 0.3988514, 0
382, 3047945712, 0.85823977, -0.0987474, 0.35072094, -0.36148334, -0.27205774, -0.57416856, 0.62670326, 0
383, 3047962379, 0.8625876, -0.09331867, 0.34685683, -0.3562676, -0.20699178, -0.22019322, 0.3518257, 0
384, 3047979046, 0.86657673, -0.089542605, 0.34399664, -0.3502785, -0.20992158, 0.1262537, 0.057644844, 0
385, 3047995713, 0.8697184, -0.08797557, 0.3429988, -0.34380785, 0.19681276, -0.17945525, 0.04508972, 0
386, 3048012380, 0.87184083, -0.08784578, 0.34494254, -0.33644184, 0.2883943, -0.55572224, 0.17269135, 0
387, 3048029047, 0.8731231, -0.08763641, 0.3486043, -0.3293218, -0.2929649, -0.44878423, 0.29547215, 0
388, 3048045714, 0.87417877, -0.08665505, 0.35154352, -0.3236066, -0.7292358, -0.020376671, 0.10890865, 0
389, 3048062381, 0.87574744, -0.08585754, 0.3527786, -0.31818843, -0.5905378, 0.09918555, -0.23910427, 0
390, 3048079048, 0.8775627, -0.08543304, 0.3530574, -0.3129491, -0.1490058, -0.17101178, -0.3756771, 0
391, 3048095715, 0.87894607, -0.085211456, 0.35339108, -0.30872223, -0.019116616, -0.2500887, -0.28821564, 0
392, 3048112382, 0.87968534, -0.08480277, 0.3539796, -0.30604392, -0.43761265, -0.016534707, -0.04352665, 0
393, 3048129049, 0.88051355, -0.084585264, 0.35371387, -0.3040228, -1.152104, 0.31675562, 0.23838425, 0
394, 3048145716, 0.8822969, -0.08450063, 0.3509745, -0.3020437, -1.5964274, 0.33349133, 0.67889404, 0
395, 3048162383, 0.885169, -0.083810665, 0.34558308, -0.30004296, -1.3495712, 0.073578455, 1.1769161, 0
396, 3048179050, 0.8886877, -0.082170285, 0.33890325, -0.29770604, -0.58218306, -0.35374117, 1.4786215, 0
397, 3048195717, 0.89221793, -0.08011443, 0.33308044, -0.29425892, 0.34468067, -0.4266175, 1.5674076, 0
398, 3048212384, 0.8953691, -0.078942336, 0.32901895, -0.28953546, 0.7946753, -0.3186682, 1.2699442, 0
399, 3048229051, 0.8979902, -0.07858508, 0.326104, -0.28477335, 0.9386856, -0.032704473, 0.91667175, 0
400, 3048245718, 0.90039545, -0.07939436, 0.32331374, -0.2800974, 0.84047824, 0.14314389, 0.59478664, 0
401, 3048262385, 0.90301615, -0.080931835, 0.31971824, -0.27530718, 0.7524036, 0.15657859, 0.09020901, 0
402, 3048279052, 0.9059936, -0.082679346, 0.3150268, -0.27036956, 0.7498998, -0.07058439, -0.30113316, 0
403, 3048295719, 0.9091694, -0.08338622, 0.3095303, -0.26580217, 1.0138083, -0.20706727, -0.6292782, 0
404, 3048312386, 0.9125124, -0.08333249, 0.30365446, -0.26109862, 1.07939, -0.16718674, -0.68568516, 0
405, 3048329053, 0.9159871, -0.08292907, 0.29692075, -0.2567689, 0.9299861, 0.3549716, -0.86679745, 0
406, 3048345720, 0.91972923, -0.08408612, 0.2881483, -0.25298184, 0.7475372, 0.6436603, -0.9198303, 0
407, 3048362387, 0.9236798, -0.08724831, 0.27717257, -0.24976096, 1.05304, 0.54170936, -1.0099392, 0
408, 3048379054, 0.9274794, -0.09273292, 0.2664789, -0.24530287, 1.8587525, -0.07260992, -0.9017019, 0
409, 3048395721, 0.93066734, -0.09951932, 0.25691193, -0.2407333, 1.9704531, -0.41281262, -0.6226015, 0
410, 3048412388, 0.93337476, -0.10690324, 0.24739258, -0.2370276, 1.508128, -0.45767352, -0.42002392, 0
411, 3048429055, 0.93608475, -0.1144128, 0.23639107, -0.23404387, 1.0359273, -0.34636027, -0.42294693, 0
412, 3048445722, 0.9391124, -0.120646305, 0.2236863, -0.23125468, 1.1659312, -0.6526417, -0.4279747, 0
413, 3048462389, 0.94237375, -0.12529464, 0.21193573, -0.22653505, 1.9664972, -1.0680223, -0.20750523, 0
414, 3048479056, 0.94533795, -0.12859781, 0.20414037, -0.21937978, 2.4838173, -1.2192813, -0.09003067, 0
415, 3048495723, 0.9475773, -0.13181499, 0.20043863, -0.21106455, 1.9883028, -0.6677836, -0.0816164, 0
416, 3048512390, 0.94934946, -0.13601613, 0.19824222, -0.20232868, 1.1044993, -0.49790227, -0.06501961, 0
417, 3048529057, 0.9510898, -0.14055748, 0.19521695, -0.19381404, 0.68352026, -0.39194885, -0.18822765, 0
418, 3048545724, 0.95291865, -0.14467081, 0.19070913, -0.18614078, 0.6440795, -0.10493252, -0.42005634, 0
419, 3048562391, 0.9549156, -0.14743005, 0.18459645, -0.17979646, 0.6737984, -0.056056716, -0.5112667, 0
420, 3048579058, 0.95722145, -0.14818287, 0.17693016, -0.17454703, 0.62087876, 0.105111435, -0.58870316, 0
421, 3048595725, 0.9598435, -0.14697412, 0.16748576, -0.17043862, 0.7541827, 0.20360465, -0.71277046, 0
422, 3048612392, 0.9625834, -0.14437924, 0.1564252, -0.16769286, 1.0546074, 0.45613608, -0.7354078, 0
423, 3048629059, 0.9651209, -0.14082593, 0.1450178, -0.16637719, 1.8406346, 0.5001937, -0.50115204, 0
424, 3048645726, 0.96665245, -0.14189343, 0.1389655, -0.16167839, 4.5161214, 1.125105, 1.0561533, 0
425, 3048662393, 0.9667186, -0.14554343, 0.14022562, -0.15687834, 2.612243, -0.6540187, 1.9573603, 0
426, 3048679060, 0.96643513, -0.15034142, 0.1420491, -0.15239549, 1.8414787, 0.41774514, 0.8450756, 0
427, 3048695727, 0.96617246, -0.1552916, 0.14399329, -0.14718291, 1.6260748, 0.2816309, 0.48375893, 0
428, 3048712394, 0.96575177, -0.15991493, 0.14730494, -0.14161152, 1.6832122, 0.4925042, 0.085048676, 0
429, 3048729061, 0.96502125, -0.16496347, 0.15126511, -0.13653454, 0.7193652, 0.8018795, -0.40641022, 0
430, 3048745728, 0.9642192, -0.17116363, 0.15435427, -0.13099986, -0.0016110814, 0.7344694, -0.40799046, 0
431, 3048762395, 0.9636663, -0.17781112, 0.15609133, -0.12396758, -0.066110104, -0.051539294, 0.34657574, 0
432, 3048779062, 0.9632318, -0.18391748, 0.15768951, -0.11616701, 0.34422818, -0.5357883, 1.0100346, 0
433, 3048795729, 0.96276563, -0.18914425, 0.16026305, -0.10781741, 0.21254696, -0.6733446, 1.1345749, 0
434, 3048812396, 0.96217227, -0.19439666, 0.16357876, -0.098377824, -0.22047418, -0.7990443, 0.9552345, 0
435, 3048829063, 0.96152776, -0.2002239, 0.16627027, -0.08792434, -0.66015434, -1.2649957, 0.7288065, 0
436, 3048845730, 0.96106803, -0.20577405, 0.16749416, -0.07715572, -0.543231, -1.5871899, 0.51932335, 0
437, 3048862397, 0.9608783, -0.2099285, 0.16818193, -0.06602696, -0.19683747, -1.6184251, 0.27150536, 0
438, 3048879064, 0.96096236, -0.21208629, 0.16898979, -0.05490935, -0.22653641, -1.3544612, -0.08623314, 0
439, 3048895731, 0.9612743, -0.21293518, 0.16931497, -0.044099126, -0.5286964, -0.8315118, -0.4818306, 0
440, 3048912398, 0.9616502, -0.2134281, 0.16896783, -0.033597052, -0.44634196, -0.5313709, -0.670558, 0
441, 3048929065, 0.96204036, -0.21360064, 0.1682023, -0.023728015, -0.43027988, -0.39182973, -0.6926813, 0
442, 3048945732, 0.9625171, -0.21338911, 0.16677019, -0.014692402, -0.61998916, -0.29045096, -0.72404385, 0
443, 3048962399, 0.9630858, -0.21297048, 0.16453417, -0.0062989546, -0.7344683, -0.14373705, -0.7095289, 0
444, 3048979066, 0.9637417, -0.21237384, 0.16155204, 0.0014358237, -0.6796799, -0.12349292, -0.6410265, 0
445, 3048995733, 0.9645874, -0.21140411, 0.15751499, 0.008392956, -0.6302256, -0.14095017, -0.44131088, 0
446, 3049012400, 0.9657507, -0.20947762, 0.1524326, 0.014518803, -0.14190803, -0.20058209, 0.15238857, 0
447, 3049029067, 0.96659964, -0.20810488, 0.14806269, 0.021371542, 1.0450491, 0.84959936, 0.581789, 0
448, 3049045734, 0.96590614, -0.21056437, 0.14797068, 0.028186562, 1.7851456, -0.33741, 2.6612997, 0
449, 3049062401, 0.9647879, -0.21338038, 0.150308, 0.032595806, 1.065363, 0.11153408, 2.1301537, 0
450, 3049079068, 0.963434, -0.21661277, 0.15357746, 0.035910465, 0.0042915605, -0.044337146, 1.1976471, 0
451, 3049095735, 0.9622817, -0.21908769, 0.15655987, 0.038797904, -0.47515547, -0.09223396, 0.3366518, 0
452, 3049112402, 0.96117365, -0.22128731, 0.15927444, 0.04254953, -0.8016774, -0.01966847, -0.25848484, 0
453, 3049129069, 0.95972943, -0.22453822, 0.1618725, 0.04797055, -0.79342604, -0.053650707, -0.5365963, 0
454, 3049145736, 0.95780927, -0.22934037, 0.16454369, 0.05414556, -0.8119953, -0.676168, -0.03842926, 0
455, 3049162403, 0.95597696, -0.23380941, 0.16652802, 0.0609243, -1.1143243, -1.4526074, 0.22220707, 0
456, 3049179070, 0.95460916, -0.23687102, 0.16688736, 0.069021076, -1.1622788, -1.8750864, 0.099500656, 0
457, 3049195737, 0.9537498, -0.23843406, 0.1655489, 0.07814108, -1.0011144, -1.865033, -0.06545067, 0
458, 3049212404, 0.95328367, -0.23882578, 0.16297501, 0.08748354, -0.86476636, -1.6460384, -0.16040707, 0
459, 3049229071, 0.9531388, -0.23812886, 0.15966901, 0.096585505, -0.71329546, -1.3021355, -0.21259594, 0
460, 3049245738, 0.95318174, -0.23666498, 0.15623334, 0.10501111, -0.6111012, -0.8367058, -0.30097008, 0
461, 3049262405, 0.9529415, -0.23564267, 0.15351307, 0.113184325, -0.6317717, -0.4137151, -0.372859, 0
462, 3049279072, 0.95230305, -0.2357371, 0.15149535, 0.12082096, -0.832656, -0.3603865, -0.41877937, 0
463, 3049295739, 0.951572, -0.23648642, 0.14937024, 0.12757482, -1.1654259, -0.3798967, -0.47603035, 0
464, 3049312406, 0.9510903, -0.23684463, 0.14665776, 0.13351135, -1.2601901, -0.44923198, -0.4278164, 0
465, 3049329073, 0.95104307, -0.23588389, 0.14363213, 0.13873541, -1.1281623, -0.501718, -0.3641901, 0
466, 3049345740, 0.95132136, -0.2336648, 0.1406598, 0.1435458, -1.1107677, -0.51075166, -0.36820507, 0
467, 3049362407, 0.95193845, -0.23037587, 0.13761216, 0.14766528, -1.0827509, -0.53928983, -0.36792183, 0
468, 3049379074, 0.95302457, -0.22595823, 0.13420196, 0.15059489, -0.966639, -0.56836885, -0.11211777, 0
469, 3049395741, 0.9544372, -0.22063752, 0.13047594, 0.15279624, -0.78123546, -0.3257386, 0.08222103, 0
470, 3049412408, 0.9558184, -0.21524125, 0.12734617, 0.1544906, -0.26532453, 0.10761523, 0.38429165, 0
471, 3049429075, 0.95615506, -0.21291967, 0.12592179, 0.15677412, 0.22744477, 1.4535724, 0.7247734, 0
472, 3049445742, 0.95587796, -0.21281171, 0.12718108, 0.15759303, -0.2143763, -0.18488075, 1.6296768, 0
473, 3049462409, 0.95577425, -0.21256453, 0.12779567, 0.15805799, -0.98328984, -0.45648924, 0.87028503, 0
474, 3049479076, 0.9559758, -0.21121469, 0.12730704, 0.15903912, -0.604584, -0.9603976, 0.978384, 0
475, 3049495743, 0.95639914, -0.20891869, 0.12639111, 0.16025227, -0.026361676, -0.8006377, 1.2917175, 0
476, 3049512410, 0.9570218, -0.20649995, 0.12428064, 0.1613176, 0.21894771, -0.33493418, 1.282403, 0
477, 3049529077, 0.95761, -0.20502213, 0.12077648, 0.1623696, 0.4031686, 0.280916, 0.98536396, 0
478, 3049545744, 0.9579988, -0.2049296, 0.116500616, 0.16331425, 0.79441726, 0.8037766, 0.87539196, 0
479, 3049562411, 0.9578874, -0.20673655, 0.11241579, 0.16454855, 1.1163701, 1.0025555, 0.9296293, 0
480, 3049579078, 0.9572034, -0.21000893, 0.10947664, 0.16635755, 1.3634174, 0.94746035, 1.0757113, 0
481, 3049595745, 0.9561793, -0.21368408, 0.10783371, 0.16862465, 1.3737882, 0.76543343, 1.0244665, 0
482, 3049612412, 0.95509285, -0.2164776, 0.10774308, 0.17125545, 1.3887995, 0.8949844, 0.8921871, 0
483, 3049629079, 0.95375127, -0.21862738, 0.10991183, 0.17458996, 1.325987, 1.2720062, 0.5187788, 0
484, 3049645746, 0.9516614, -0.2219608, 0.11457706, 0.17874031, 0.97909504, 1.8604088, -0.049829483, 0
485, 3049662413, 0.94843864, -0.22783999, 0.12084437, 0.18425938, 0.35312673, 2.0210242, -0.29876804, 0
486, 3049679080, 0.944748, -0.23530652, 0.12712827, 0.18953185, 0.76088357, 0.87599444, 0.40952682, 0
487, 3049695747, 0.94194615, -0.2409319, 0.13194747, 0.19308287, 0.55478984, 0.25032803, 0.27785778, 0
488, 3049712414, 0.9399816, -0.244394, 0.1345418, 0.19648558, 0.6966259, 0.03275627, 0.055231094, 0
489, 3049729081, 0.9387464, -0.24642603, 0.13516572, 0.19940265, 0.95388883, 0.19621263, -0.19187927, 0
490, 3049745748, 0.9382136, -0.24764223, 0.13442232, 0.2009005, 1.0968087, 0.32888502, -0.28515053, 0
491, 3049762415, 0.9378265, -0.24851246, 0.13280995, 0.20269783, 1.1723815, 0.5974568, -0.4391594, 0
492, 3049779082, 0.93747914, -0.24899183, 0.13145484, 0.20459108, 1.1667109, 0.8665535, -0.41500854, 0
493, 3049795749, 0.9370247, -0.2492415, 0.13063729, 0.20687981, 0.85505474, 1.1492028, -0.60719585, 0
494, 3049812416, 0.9364917, -0.24947038, 0.13007355, 0.20935723, 0.48818034, 1.2383866, -0.8596649, 0
495, 3049829083, 0.936237, -0.24934746, 0.12910707, 0.21123292, 0.1428331, 1.3973167, -1.0822964, 0
496, 3049845750, 0.936735, -0.24837711, 0.1269561, 0.21147177, -0.24238785, 1.5893729, -1.3252668, 0
497, 3049862417, 0.9383833, -0.24565642, 0.12287283, 0.20974693, -0.5784009, 1.569951, -1.4413042, 0
498, 3049879084, 0.94151175, -0.24005713, 0.11589353, 0.20615202, -0.7892723, 1.4966695, -1.4923306, 0
499, 3049895751, 0.9440136, -0.23584169, 0.10697808, 0.20438805, 0.47453344, 4.2877097, -1.3375998, 0
500, 3049912418, 0.94364214, -0.23866138, 0.105162635, 0.20377125, 2.621622, 2.9288754, 2.2587175, 0
501, 3049929085, 0.94284546, -0.24174197, 0.10766611, 0.20251676, 0.8510495, 2.3976028, 1.1864872, 0
502, 3049945752, 0.9414593, -0.2453389, 0.11145674, 0.202589, 0.98423827, 2.3240888, 0.47702885, 0
503, 3049962419, 0.9396851, -0.24943449, 0.117718436, 0.20228304, 0.9642711, 2.666673, 0.55778503, 0
504, 3049979086, 0.9377315, -0.25460654, 0.124689445, 0.20072237, -0.011128263, 2.35217, 0.053373337, 0
505, 3049995753, 0.9357944, -0.26077887, 0.13027951, 0.19827345, -0.5540476, 2.068609, -0.6091614, 0
506, 3050012420, 0.93421763, -0.26675186, 0.13448946, 0.19492349, -0.5830122, 1.6677281, -0.8375149, 0
507, 3050029087, 0.93316114, -0.27170733, 0.1378684, 0.1907342, -0.4756901, 1.4504527, -1.0389662, 0
508, 3050045754, 0.9325463, -0.2756222, 0.14082056, 0.18590672, -0.54950905, 1.1977801, -1.1529655, 0
509, 3050062421, 0.9320924, -0.27897713, 0.14343986, 0.18111384, -0.55184656, 1.0935098, -1.1715021, 0
510, 3050079088, 0.93146974, -0.28246352, 0.14613274, 0.17670822, -0.4139233, 0.9753378, -0.8731327, 0
511, 3050095755, 0.9306157, -0.28616655, 0.14916325, 0.17267144, -0.48203564, 0.87442267, -0.47373295, 0
512, 3050112422, 0.92963135, -0.2899442, 0.15242769, 0.16877674, -0.56364715, 0.7578448, -0.108511925, 0
513, 3050129089, 0.92858404, -0.29351535, 0.15604042, 0.1650258, -0.5710024, 0.66740966, 0.17514992, 0
514, 3050145756, 0.9273025, -0.29706544, 0.1602493, 0.16181606, -0.53828514, 0.6581636, 0.44274044, 0
515, 3050162423, 0.925864, -0.30051243, 0.1649902, 0.15889667, -0.5571282, 0.58599466, 0.6932802, 0
516, 3050179090, 0.9244693, -0.30344638, 0.17004427, 0.15608883, -0.6680245, 0.40093732, 0.94339275, 0
517, 3050195757, 0.92332333, -0.30546087, 0.17500159, 0.1534412, -0.7322982, 0.2818038, 1.1175728, 0
518, 3050212424, 0.9223936, -0.30683786, 0.17946123, 0.1511158, -0.7496685, 0.34671843, 1.2551422, 0
519, 3050229091, 0.92154366, -0.30831853, 0.18308382, 0.14892633, -0.6369678, 0.3943703, 1.358324, 0
520, 3050245758, 0.92075723, -0.31006742, 0.18594033, 0.14660235, -0.5069915, 0.343836, 1.4646769, 0
521, 3050262425, 0.9201775, -0.31162596, 0.18814377, 0.14410475, -0.43255153, 0.0908578, 1.6083498, 0
522, 3050279092, 0.9200292, -0.31225768, 0.18959232, 0.14176695, -0.12152444, -0.18418339, 1.9214382, 0
523, 3050295759, 0.9203986, -0.3117258, 0.19008672, 0.13986637, 0.21205032, -0.21461579, 2.2293673, 0
524, 3050312426, 0.921039, -0.31062847, 0.18967824, 0.13863999, 0.6659725, -0.06634423, 2.4433727, 0
525, 3050329093, 0.9215899, -0.3097212, 0.18907298, 0.13783297, 1.2029437, 0.29610124, 2.399104, 0
526, 3050345760, 0.92181027, -0.3093405, 0.18910913, 0.13716274, 1.5146644, 0.53325254, 2.116685, 0
527, 3050362427, 0.92172235, -0.30922988, 0.19012515, 0.13659821, 1.2598419, 0.4419725, 1.5158243, 0
528, 3050379094, 0.92168564, -0.30876312, 0.19135037, 0.13619038, 0.7682838, 0.27552375, 0.81869507, 0
529, 3050395761, 0.9221011, -0.3073756, 0.191965, 0.13565083, 0.3566745, 0.14390859, 0.15001297, 0
530, 3050412428, 0.92339206, -0.3052029, 0.19029792, 0.1341153, -0.40089664, 0.10789887, -0.5678196, 0
531, 3050429095, 0.92590266, -0.30219826, 0.1847764, 0.13130108, -0.68466824, 0.010238682, -0.8675413, 0
532, 3050445762, 0.9299203, -0.29675245, 0.17605476, 0.12725048, -0.12523721, -0.16683498, -0.70696735, 0
533, 3050462429, 0.9350726, -0.28812718, 0.16596113, 0.12280415, 0.48703092, -0.09759693, -0.4016819, 0
534, 3050479096, 0.93965274, -0.27890345, 0.15751153, 0.12024041, 1.819942, 0.6414435, -0.045205116, 0
535, 3050495763, 0.94211847, -0.27292442, 0.15381339, 0.11945062, 3.051768, 1.9140716, 0.5275173, 0
536, 3050512430, 0.941677, -0.27270037, 0.1571984, 0.119036466, 3.970091, 1.5519025, 2.1388063, 0
537, 3050529097, 0.9395166, -0.27542692, 0.16555728, 0.11849561, 3.0563483, 1.6940304, 1.7887163, 0
538, 3050545764, 0.93632746, -0.28001004, 0.17593057, 0.11804967, 2.1167438, 0.9882509, 1.4369068, 0
539, 3050562431, 0.9331867, -0.28470808, 0.18579586, 0.11655828, 0.8819554, 0.6575271, 0.08427715, 0
540, 3050579098, 0.93035346, -0.28919685, 0.19407012, 0.114658214, -0.038112983, 0.4368867, -1.2501383, 0
541, 3050595765, 0.9281802, -0.29269066, 0.20051493, 0.11229009, -0.7021485, 0.24106488, -2.1004682, 0
542, 3050612432, 0.9270725, -0.29424617, 0.20484103, 0.10953476, -1.1726456, 0.02153905, -2.5675344, 0
543, 3050629099, 0.9272357, -0.29338518, 0.20694213, 0.106470734, -1.5526828, -0.1412783, -2.7513413, 0
544, 3050645766, 0.9288157, -0.28995332, 0.20655656, 0.10278625, -1.8098304, -0.208821, -2.7003527, 0
545, 3050662433, 0.9313361, -0.2846832, 0.20445302, 0.09884155, -1.4719535, 0.018186802, -2.505105, 0
546, 3050679100, 0.9336734, -0.27959466, 0.20236816, 0.09554907, -0.80829597, 0.31654173, -2.117638, 0
547, 3050695767, 0.9354389, -0.275528, 0.2012449, 0.09241676, -0.45672783, 0.28569493, -1.3932972, 0
548, 3050712434, 0.9369588, -0.27196783, 0.20043992, 0.0892603, -0.41222963, 0.04566325, -0.63264275, 0
549, 3050729101, 0.9385884, -0.26812148, 0.19926915, 0.08635089, -0.2042306, -0.10185441, 0.057489395, 0
550, 3050745768, 0.9402911, -0.263921, 0.19804828, 0.0835294, -0.107474975, 0.074662045, 0.37488556, 0
551, 3050762435, 0.941812, -0.2600306, 0.19720621, 0.08053435, -0.18601161, 0.35158542, 0.48343754, 0
552, 3050779102, 0.9429515, -0.2570351, 0.19696093, 0.07735394, -0.25934967, 0.5431394, 0.5150614, 0
553, 3050795769, 0.9436792, -0.25484616, 0.19746561, 0.07437802, -0.19750543, 0.48465186, 0.657835, 0
554, 3050812436, 0.94415605, -0.253106, 0.19840597, 0.071719036, -0.21265, 0.33457342, 0.8185377, 0
555, 3050829103, 0.94457453, -0.25167182, 0.1991958, 0.06901592, -0.3053093, 0.31470937, 0.7979498, 0
556, 3050845770, 0.9449332, -0.25059238, 0.19981663, 0.06618276, -0.41242364, 0.28260353, 0.58164597, 0
557, 3050862437, 0.945143, -0.24983507, 0.20057006, 0.06372368, -0.32802716, 0.14032188, 0.6086588, 0
558, 3050879104, 0.9453976, -0.24841945, 0.2017296, 0.061790206, -0.29373714, -0.18565455, 0.98563385, 0
559, 3050895771, 0.9460396, -0.24571945, 0.20245992, 0.06035591, -0.32207838, -0.25280768, 1.4656506, 0
560, 3050912438, 0.94711715, -0.24224457, 0.20197839, 0.059105758, -0.020255638, 0.077327885, 1.6340513, 0
561, 3050929105, 0.9484237, -0.23895419, 0.2001946, 0.057598993, 0.2974687, 0.4195528, 1.6886349, 0
562, 3050945772, 0.9498711, -0.23644377, 0.19691165, 0.055378806, 0.7532826, 0.45601428, 1.7942877, 0
563, 3050962439, 0.9513765, -0.23467194, 0.1924391, 0.05273372, 1.4500016, 0.39741117, 1.9088907, 0
564, 3050979106, 0.9526153, -0.23332815, 0.18856747, 0.050262384, 2.230967, 0.4858555, 1.8031921, 0
565, 3050995773, 0.9532479, -0.23272982, 0.1867117, 0.04791632, 2.075474, 0.6874226, 1.4105711, 0
566, 3051012440, 0.9534493, -0.23264359, 0.18646242, 0.045222223, 1.527841, 0.7013148, 0.9990139, 0
567, 3051029107, 0.9537066, -0.23192778, 0.18679196, 0.04199885, 1.0390677, 0.62679684, 0.5802536, 0
568, 3051045774, 0.95425844, -0.22979727, 0.18738455, 0.038377013, 0.890609, 0.73967767, 0.15226555, 0
569, 3051062441, 0.9549095, -0.22715016, 0.18808112, 0.03432586, 0.75654763, 0.8681468, -0.16380787, 0
570, 3051079108, 0.95553434, -0.2246603, 0.18870246, 0.029584704, 0.7001856, 0.877995, -0.32375336, 0
571, 3051095775, 0.9560876, -0.22264357, 0.18902908, 0.02441867, 0.59151584, 0.78277725, -0.3432579, 0
572, 3051112442, 0.9566243, -0.22093403, 0.18894953, 0.018923623, 0.5381339, 0.9196898, -0.5775881, 0
573, 3051129109, 0.9570451, -0.21985161, 0.18858248, 0.012986084, 0.49656868, 0.9743265, -0.88649845, 0
574, 3051145776, 0.9573099, -0.21938823, 0.18810713, 0.0066419, 0.26114482, 0.8657048, -1.272788, 0
575, 3051162443, 0.9574542, -0.21957715, 0.18726593, 7.9955906E-4, 0.07438824, 0.5276677, -1.4942245, 0
576, 3051179110, 0.95770246, -0.21948181, 0.18604824, -0.0046177795, 0.03939673, 0.19971664, -1.6227875, 0
577, 3051195777, 0.95831704, -0.21814978, 0.18424325, -0.009758754, -0.0873169, 0.16711763, -1.5672493, 0
578, 3051212444, 0.9595022, -0.21519889, 0.18117891, -0.014873967, -0.23626336, 0.403212, -1.4528675, 0
579, 3051229111, 0.96097934, -0.21149646, 0.1772538, -0.019258076, 0.41331905, 0.77398884, -1.1126709, 0
580, 3051245778, 0.96201843, -0.20834614, 0.17496489, -0.022394937, 1.6465969, 1.0972916, -0.3388796, 0
581, 3051262445, 0.961983, -0.2066113, 0.17687371, -0.024861382, 2.4714286, 1.5753577, 0.4262228, 0
582, 3051279112, 0.9606316, -0.20770866, 0.18250638, -0.027156107, 2.1626208, 1.9503003, 0.5423384, 0
583, 3051295779, 0.9583488, -0.21171811, 0.1893803, -0.029664492, 1.3465675, 2.0326755, 0.16134548, 0
584, 3051312446, 0.95571667, -0.2171272, 0.19600925, -0.03230995, 0.74885803, 1.8033257, -0.3929863, 0
585, 3051329113, 0.95318145, -0.2223658, 0.2019234, -0.03503333, 0.16362154, 1.5260912, -0.9541731, 0
586, 3051345780, 0.95115185, -0.22628477, 0.20668106, -0.03728529, -0.4821285, 1.0985224, -1.2154436, 0
587, 3051362447, 0.95002484, -0.22796106, 0.20974709, -0.038655803, -0.7751741, 0.6210628, -1.1208735, 0
588, 3051379114, 0.94983774, -0.22744289, 0.211093, -0.038980715, -0.85293585, 0.48703474, -0.869195, 0
589, 3051395781, 0.9501206, -0.22588435, 0.21162993, -0.038231283, -0.4551096, 0.7631338, -0.42586422, 0
590, 3051412448, 0.95031774, -0.22420678, 0.21277684, -0.0368137, 0.02059493, 1.0488275, 0.23436737, 0
591, 3051429115, 0.9501268, -0.22295816, 0.21513608, -0.03559412, 0.12721352, 1.3495871, 0.7029314, 0
592, 3051445782, 0.9495836, -0.22253549, 0.21805155, -0.034989264, -0.12408568, 1.5934491, 1.0318031, 0
593, 3051462449, 0.94884235, -0.22301823, 0.22082032, -0.034660798, -0.18561164, 1.4961123, 1.1886816, 0
594, 3051479116, 0.94796, -0.22429067, 0.2233336, -0.034487013, -0.20382705, 1.1838955, 1.2536268, 0
595, 3051495783, 0.9468835, -0.22645123, 0.22571881, -0.034415487, -0.47056025, 0.7561353, 1.2164154, 0
596, 3051512450, 0.9458457, -0.22899294, 0.22747415, -0.03457948, -0.88553953, 0.29776865, 1.3612375, 0
597, 3051529117, 0.9451744, -0.23106584, 0.22813077, -0.03481401, -1.0105788, -0.07448077, 1.5306139, 0
598, 3051545784, 0.94494915, -0.23271188, 0.22737192, -0.034932204, -1.0017214, -0.32869703, 1.5918245, 0
599, 3051562451, 0.94504285, -0.23469761, 0.22497477, -0.03462894, -0.86868846, -0.578791, 1.7224312, 0
600, 3051579118, 0.94546723, -0.23719403, 0.2206994, -0.033534188, -0.47264227, -1.1550435, 2.0787792, 0
601, 3051595785, 0.94641095, -0.23901288, 0.21492802, -0.031413943, 0.35987127, -1.8213838, 2.5289803, 0
602, 3051612452, 0.94762045, -0.23960368, 0.20935532, -0.027886447, 1.0117217, -1.9317952, 2.4870129, 0
603, 3051629119, 0.94861495, -0.23978801, 0.20516372, -0.023261314, 1.1838877, -1.5574926, 2.0349321, 0
604, 3051645786, 0.94913065, -0.2404031, 0.20257239, -0.017991547, 0.87419736, -1.1463729, 1.4038, 0
605, 3051662453, 0.94947267, -0.24092992, 0.20077138, -0.012131299, 0.2909467, -1.0152084, 0.9145651, 0
606, 3051679120, 0.9501113, -0.2404561, 0.19859056, -0.0057578497, -0.072821304, -0.94960666, 0.49996567, 0
607, 3051695787, 0.9510889, -0.23888235, 0.19587365, 7.873848E-4, -0.044217903, -0.7028778, 0.18738365, 0
608, 3051712454, 0.9522263, -0.23657607, 0.1929963, 0.007148791, 0.1375083, -0.6211186, 0.10159874, 0
609, 3051729121, 0.9533363, -0.23411287, 0.19019514, 0.012988482, 0.283646, -0.4859051, -0.097724915, 0
610, 3051745788, 0.9542864, -0.23208563, 0.18747391, 0.018135246, 0.40589896, -0.36530286, -0.34444427, 0
611, 3051762455, 0.9549519, -0.23086454, 0.18503669, 0.023056226, 0.49549916, -0.2534856, -0.70733356, 0
612, 3051779122, 0.9553405, -0.23036861, 0.18298748, 0.02778787, 0.3517629, -0.14212854, -1.0931349, 0
613, 3051795789, 0.9557177, -0.22995964, 0.18081982, 0.03206739, 0.15993078, -0.15343449, -1.393219, 0
614, 3051812456, 0.95641476, -0.22873403, 0.17793618, 0.03594461, 0.05657113, -0.22316472, -1.6916904, 0
615, 3051829123, 0.9575051, -0.22664478, 0.17398839, 0.039318614, -0.054935575, -0.14940143, -1.9773211, 0
616, 3051845790, 0.9589503, -0.22420393, 0.16845965, 0.042073216, -0.25892323, 0.042324524, -2.156376, 0
617, 3051862457, 0.960863, -0.22108105, 0.16102631, 0.044019256, -0.14677548, 0.05772211, -1.9166555, 0
618, 3051879124, 0.96335393, -0.21619415, 0.15215404, 0.0453913, 0.06691151, 0.13666308, -1.6150503, 0
619, 3051895791, 0.9662775, -0.20924433, 0.14265163, 0.046657138, 0.54616344, 0.4657581, -1.1308651, 0
620, 3051912458, 0.96820575, -0.20345947, 0.13678743, 0.049727015, 2.582106, 2.3388085, 0.15648079, 0
621, 3051929125, 0.96875477, -0.1995933, 0.13778357, 0.05190716, 1.8147752, 1.2857236, 1.713501, 0
622, 3051945792, 0.96848685, -0.1981138, 0.14101434, 0.053861417, 0.8461669, 2.0621269, 0.9966774, 0
623, 3051962459, 0.9675341, -0.19920182, 0.14529283, 0.05557118, 0.5712766, 1.8612002, 0.8834677, 0
624, 3051979126, 0.9661004, -0.20199648, 0.15070066, 0.056023687, 0.40195096, 1.5303744, 0.8285284, 0
625, 3051995793, 0.9644601, -0.20566529, 0.1563884, 0.05534605, -0.2827735, 1.3273444, 0.19361973, 0
626, 3052012460, 0.96277654, -0.20989613, 0.16152993, 0.053989343, -0.73600024, 1.1085986, -0.24758816, 0
627, 3052029127, 0.96127874, -0.21408027, 0.16552065, 0.05213089, -1.0442247, 0.86951, -0.5174589, 0
628, 3052045794, 0.9600858, -0.21777645, 0.16824509, 0.050042734, -1.0436009, 0.68884057, -0.60300636, 0
629, 3052062461, 0.9591455, -0.22097573, 0.1701041, 0.04770734, -0.9668243, 0.59168917, -0.6131983, 0
630, 3052079128, 0.95844525, -0.22379471, 0.17107645, 0.045094684, -0.8159069, 0.55225134, -0.5154562, 0
631, 3052095795, 0.9578462, -0.22676513, 0.1712182, 0.042362265, -0.8298826, 0.6234015, -0.42911816, 0
632, 3052112462, 0.9575402, -0.22940932, 0.17017657, 0.039111175, -0.85355026, 0.62666976, -0.19676685, 0
633, 3052129129, 0.9579005, -0.23072074, 0.16724257, 0.03501943, -0.645512, 0.7031454, 0.103242874, 0
634, 3052145796, 0.95897204, -0.23065072, 0.16213533, 0.029783493, 0.11834866, 0.62951654, 0.8195181, 0
635, 3052162463, 0.9607228, -0.22907288, 0.1549378, 0.023094535, 1.2483317, 0.4777976, 1.8628607, 0
636, 3052179130, 0.9623525, -0.22795182, 0.14719442, 0.01584297, 2.278453, 0.9681504, 2.2606506, 0
637, 3052195797, 0.9629755, -0.22992247, 0.14052092, 0.0083472505, 2.731579, 1.3335606, 2.186388, 0
638, 3052212464, 0.96218234, -0.23617004, 0.13575828, 6.9001317E-4, 2.6109831, 1.4314536, 1.7361727, 0
639, 3052229131, 0.9601601, -0.24560124, 0.13314302, -0.006890049, 2.1903522, 1.031584, 0.9426575, 0
640, 3052245798, 0.95762706, -0.25562087, 0.1319254, -0.014357673, 1.7469015, 0.46842816, 0.3542595, 0
641, 3052262465, 0.9554502, -0.26348945, 0.13118532, -0.02191621, 1.3572346, 0.12950541, -0.30894756, 0
642, 3052279132, 0.953987, -0.26860172, 0.13005622, -0.02913984, 0.9459767, 0.1893548, -1.1904202, 0
643, 3052295799, 0.9530167, -0.27251476, 0.12720595, -0.036269546, 0.6305228, 0.65591395, -2.265077, 0
644, 3052312466, 0.9519104, -0.27756697, 0.121971905, -0.044134878, 0.670575, 1.0937061, -3.0741534, 0
645, 3052329133, 0.9504332, -0.2841486, 0.11438956, -0.053417437, 0.94793564, 1.0964736, -3.2473302, 0
646, 3052345800, 0.9485759, -0.29190293, 0.10474479, -0.0634604, 0.92583174, 0.82845086, -3.1275105, 0
647, 3052362467, 0.94634104, -0.30038098, 0.093725644, -0.07367126, 0.9609265, 0.6823215, -3.044908, 0
648, 3052379134, 0.9438582, -0.3091061, 0.08182355, -0.083019406, 0.685914, 0.44786867, -3.2074971, 0
649, 3052395801, 0.94169223, -0.31617916, 0.068954535, -0.09216155, 0.47881448, 0.25668305, -3.3285851, 0
650, 3052412468, 0.93972754, -0.32180756, 0.055215213, -0.10151507, 0.27686846, 0.29104483, -3.5100455, 0
651, 3052429135, 0.9375211, -0.32743898, 0.04093015, -0.11029283, 0.008508971, 0.42472658, -3.900856, 0
652, 3052445802, 0.9350888, -0.33293968, 0.024830371, -0.118934534, -0.45251977, 0.33475804, -3.9879122, 0
653, 3052462469, 0.9324837, -0.33775508, 0.0058688354, -0.1279183, -0.44629976, 0.28956875, -3.8575282, 0
654, 3052479136, 0.92978454, -0.34140164, -0.015090952, -0.13682087, -0.1850308, 0.15077849, -3.3707876, 0
655, 3052495803, 0.9271687, -0.3434822, -0.03717266, -0.14490815, -0.124636844, 0.1653437, -3.182784, 0
656, 3052512470, 0.9243039, -0.3443428, -0.061392765, -0.15271884, -0.21098322, -0.10794201, -2.6992645, 0
657, 3052529137, 0.921006, -0.34391946, -0.08782556, -0.160487, -0.04701324, -0.3361246, -2.0663776, 0
658, 3052545804, 0.9175491, -0.34208736, -0.11478608, -0.16705069, 0.0409421, -0.53286004, -1.3653288, 0
659, 3052562471, 0.91405696, -0.33896106, -0.14135733, -0.17211956, 0.028339766, -0.22873758, -1.1267157, 0
660, 3052579138, 0.9100219, -0.33548608, -0.1682976, -0.17603152, -0.05729643, -0.07489673, -0.9509678, 0
661, 3052595805, 0.9040645, -0.3342954, -0.19655587, -0.17967081, -0.08171589, 0.14635114, -0.5038309, 0
662, 3052612472, 0.89627576, -0.33592644, -0.22462854, -0.1827219, -0.09032047, 0.0826904, 0.36253262, 0
663, 3052629139, 0.8876654, -0.33865684, -0.25117823, -0.18512936, -0.24953054, 0.14093252, 1.107502, 0
664, 3052645806, 0.8794259, -0.3402716, -0.27532673, -0.18714277, -0.44759074, 0.26521534, 1.611042, 0
665, 3052662473, 0.8724678, -0.33941504, -0.29635632, -0.18913564, -0.55189526, 0.40598425, 2.0193682, 0
666, 3052679140, 0.8669897, -0.33541095, -0.31499106, -0.19133992, -1.0501935, -0.05878726, 2.690463, 0
667, 3052695807, 0.8630302, -0.3274504, -0.3319413, -0.19435038, -1.432376, -0.1702791, 2.7324715, 0
668, 3052712474, 0.8599544, -0.31658867, -0.3478145, -0.19818449, -1.4289002, -0.17969503, 2.424777, 0
669, 3052729141, 0.8570657, -0.3046537, -0.36325905, -0.2016663, -1.2204123, -0.40101978, 2.3365068, 0
670, 3052745808, 0.85385376, -0.29251927, -0.3786672, -0.20488824, -0.8902479, -0.39348942, 2.2386122, 0
671, 3052762475, 0.84989405, -0.2820708, -0.3941816, -0.20673443, -0.14160529, -0.21586278, 2.106309, 0
672, 3052779142, 0.8456095, -0.27351397, -0.40923408, -0.20655245, 0.1620773, -0.8211761, 2.0775337, 0
673, 3052795809, 0.84181494, -0.26312134, -0.4238202, -0.20613912, 0.07976328, -1.0958663, 2.148407, 0
674, 3052812476, 0.8373923, -0.25166544, -0.43833002, -0.20810391, 0.3534169, -0.5267682, 2.257864, 0
675, 3052829143, 0.83265287, -0.23919007, -0.45313734, -0.21010853, 0.07493048, -1.1951177, 2.4812946, 0
676, 3052845810, 0.8279686, -0.22498506, -0.46850416, -0.21060684, -0.17488056, -1.4096826, 2.716342, 0
677, 3052862477, 0.8232986, -0.20840509, -0.48448437, -0.20981726, -0.66740876, -1.5803323, 3.0549307, 0
678, 3052879144, 0.81876546, -0.18916337, -0.5006195, -0.20789975, -1.0274631, -1.788288, 3.3650951, 0
679, 3052895811, 0.8146593, -0.16766149, -0.51608807, -0.20463318, -1.4036359, -2.189246, 3.5756884, 0
680, 3052912478, 0.8112896, -0.14510147, -0.52993363, -0.19981803, -1.6424881, -2.7587574, 3.5477715, 0
681, 3052929145, 0.8088738, -0.12313375, -0.5414012, -0.19351453, -1.7917438, -3.3208454, 3.2946815, 0
682, 3052945812, 0.80757475, -0.10349275, -0.55004954, -0.18590231, -1.7230359, -3.598973, 3.0342827, 0
683, 3052962479, 0.8074129, -0.0876914, -0.5558505, -0.1772762, -1.4920808, -3.7157433, 2.9045153, 0
684, 3052979146, 0.8082345, -0.076389894, -0.55913246, -0.16820969, -1.302296, -3.6654494, 2.6196213, 0
685, 3052995813, 0.80981725, -0.06936217, -0.5603535, -0.15934476, -1.1877286, -3.5724165, 2.2075253, 0
686, 3053012480, 0.81225026, -0.06572029, -0.55978066, -0.15025961, -0.96521074, -3.546489, 1.8281174, 0
687, 3053029147, 0.81565064, -0.06484537, -0.55743444, -0.14063348, -0.61813134, -3.34122, 1.3620815, 0
688, 3053045814, 0.8199718, -0.06595299, -0.55337304, -0.13067718, -0.26681054, -3.0295863, 1.0043392, 0
689, 3053062481, 0.8249636, -0.06839171, -0.54790753, -0.12065135, 0.07455498, -2.7100062, 0.7067394, 0
690, 3053079148, 0.8303731, -0.07165739, -0.5414228, -0.110493965, 0.46547645, -2.434691, 0.42169857, 0
691, 3053095815, 0.8359599, -0.07549559, -0.5342674, -0.100157745, 0.8262206, -2.2475288, 0.10103035, 0
692, 3053112482, 0.84149206, -0.07935114, -0.52677757, -0.090010226, 1.1451114, -2.037969, -0.1723547, 0
693, 3053129149, 0.8467379, -0.082894474, -0.5193583, -0.080203585, 1.3648561, -1.8112813, -0.4350834, 0
694, 3053145816, 0.8515739, -0.08608681, -0.51227885, -0.07059159, 1.6296211, -1.5956963, -0.5729313, 0
695, 3053162483, 0.8559686, -0.08894728, -0.50562537, -0.06124548, 1.7974458, -1.3257052, -0.5869932, 0
696, 3053179150, 0.8599448, -0.09139123, -0.4993903, -0.052474603, 1.9212583, -1.1138886, -0.5995312, 0
697, 3053195817, 0.8636062, -0.09324514, -0.49346867, -0.04449971, 2.0548522, -0.96285826, -0.5520468, 0
698, 3053212484, 0.8671003, -0.09458791, -0.48764348, -0.037361324, 2.2490406, -0.82712907, -0.46998692, 0
699, 3053229151, 0.8706049, -0.095991895, -0.4815318, -0.031010456, 2.5434706, -0.60695153, -0.41660976, 0
700, 3053245818, 0.8741186, -0.09813744, -0.4750186, -0.02539446, 2.7650192, -0.5041646, -0.6414099, 0
701, 3053262485, 0.87764174, -0.10182626, -0.46791822, -0.020753987, 3.4038239, -0.13960782, -0.6418524, 0
702, 3053279152, 0.881067, -0.10739478, -0.46031457, -0.01731444, 3.947933, 0.06753254, -0.60681057, 0
703, 3053295819, 0.8840392, -0.11407008, -0.45303154, -0.015077764, 4.1415143, -0.069358304, -0.77487373, 0
704, 3053312486, 0.886123, -0.12092802, -0.44718266, -0.013863673, 3.8676834, -0.5371887, -1.4219017, 0
705, 3053329153, 0.8870489, -0.12769398, -0.4434714, -0.013162695, 3.6195009, -1.023167, -1.8849435, 0
706, 3053345820, 0.886771, -0.13451499, -0.4420473, -0.011785658, 3.5439448, -1.3335427, -1.6780748, 0
707, 3053362487, 0.8857147, -0.14034954, -0.4424255, -0.008542932, 3.5001326, -1.5663118, -0.9974947, 0
708, 3053379154, 0.884229, -0.14367022, -0.4444029, -0.0024286322, 3.3853064, -1.5586834, -0.38260365, 0
709, 3053395821, 0.8826038, -0.14266366, -0.4478855, 0.0076267533, 3.256154, -1.5827762, 0.327363, 0
710, 3053412488, 0.8810905, -0.13583529, -0.45248133, 0.022163227, 3.161983, -1.3251858, 0.9677954, 0
711, 3053429155, 0.8797479, -0.12348783, -0.4573061, 0.040834125, 3.1316245, -0.64441276, 1.3221359, 0
712, 3053445822, 0.87834543, -0.10708277, -0.46160954, 0.06293629, 2.8386905, 0.2174543, 1.259757, 0
713, 3053462489, 0.87645227, -0.08840203, -0.46518505, 0.08730021, 2.3406532, 0.83775973, 0.9031553, 0
714, 3053479156, 0.8738187, -0.06912224, -0.46798274, 0.112503216, 1.69077, 1.5013229, 0.32256222, 0
715, 3053495823, 0.8704849, -0.05142098, -0.46996528, 0.13691832, 1.0519322, 2.0882049, -0.23755455, 0
716, 3053512490, 0.8667046, -0.037020348, -0.47126478, 0.15926048, 0.47559422, 2.4092145, -0.80749893, 0
717, 3053529157, 0.86269397, -0.026932858, -0.47227633, 0.17885979, 0.10505891, 2.5385985, -1.2449703, 0
718, 3053545824, 0.8584472, -0.021140395, -0.47358444, 0.19580944, -0.011798131, 2.3891537, -1.5408754, 0
719, 3053562491, 0.85389364, -0.01836133, -0.47552273, 0.21073371, 0.034083266, 2.1177683, -1.63657, 0
720, 3053579158, 0.84910816, -0.01650659, -0.47783372, 0.22454369, 0.1855077, 1.9950498, -1.4939051, 0
721, 3053595825, 0.84417874, -0.014134294, -0.48030192, 0.23764332, 0.32053077, 2.1727839, -1.3070517, 0
722, 3053612492, 0.83903676, -0.010121601, -0.48291504, 0.25041902, 0.32253656, 2.3205643, -1.0145502, 0
723, 3053629159, 0.83365244, -0.0034825439, -0.48567706, 0.26292777, 0.26549584, 2.4197361, -0.7266941, 0
724, 3053645826, 0.82794577, 0.0059555797, -0.4886471, 0.27512935, 0.12725733, 2.5212903, -0.59125423, 0
725, 3053662493, 0.82193434, 0.017212728, -0.4917373, 0.28692153, -0.05151616, 2.4059253, -0.66290665, 0
726, 3053679160, 0.81600463, 0.029450394, -0.49465957, 0.2976289, -0.28441262, 2.2638836, -0.6375313, 0
727, 3053695827, 0.8103475, 0.042546675, -0.49709925, 0.3072802, -0.5235527, 1.9165102, -0.55758953, 0
728, 3053712494, 0.80495924, 0.056743715, -0.4989066, 0.31609315, -0.7180327, 1.5625219, -0.4156456, 0
729, 3053729161, 0.7999544, 0.07229765, -0.49989584, 0.3239632, -0.8250127, 1.3905177, -0.12078476, 0
730, 3053745828, 0.79542726, 0.088730544, -0.49999186, 0.33080575, -0.8254452, 1.3144267, 0.22918606, 0
731, 3053762495, 0.79164886, 0.10501493, -0.49932998, 0.33605856, -0.76699096, 1.4081523, 0.64511585, 0
732, 3053779162, 0.7888059, 0.12010487, -0.49839926, 0.33905783, -0.6312529, 1.415627, 1.0654774, 0
733, 3053795829, 0.7869724, 0.13321555, -0.49761727, 0.3395684, -0.32626542, 1.2756071, 1.4143152, 0
734, 3053812496, 0.7861517, 0.14363968, -0.49742758, 0.33749172, 0.07163769, 1.1081605, 1.6015759, 0
735, 3053829163, 0.78619015, 0.15056631, -0.49840555, 0.33290914, 0.57932234, 0.8218045, 1.6304197, 0
736, 3053845830, 0.78699875, 0.15349784, -0.5007686, 0.32604313, 1.1472446, 0.42077476, 1.5287647, 0
737, 3053862497, 0.7883324, 0.1525075, -0.5043948, 0.31758663, 1.6927123, -0.073662385, 1.3522215, 0
738, 3053879164, 0.78984785, 0.14788322, -0.50899166, 0.30854496, 2.1425898, -0.5149444, 1.0720491, 0
739, 3053895831, 0.7912076, 0.14024039, -0.5142164, 0.29984415, 2.457585, -0.87357104, 0.76971054, 0
740, 3053912498, 0.7923522, 0.13062769, -0.519508, 0.2919378, 2.5110595, -0.9510606, 0.4451828, 0
741, 3053929165, 0.7931571, 0.120341614, -0.52451015, 0.28515014, 2.5038636, -0.9762645, 0.120731354, 0
742, 3053945832, 0.7932738, 0.110925205, -0.5289768, 0.28035268, 2.4942625, -1.1118577, -0.108343124, 0
743, 3053962499, 0.79259825, 0.10386796, -0.53256446, 0.27816647, 2.4273875, -1.1626818, -0.2673788, 0
744, 3053979166, 0.79125494, 0.100396246, -0.5349741, 0.27864128, 2.249871, -1.0621305, -0.3055935, 0
745, 3053995833, 0.78940797, 0.10128868, -0.53603834, 0.28149676, 1.9755564, -0.9223907, -0.27588844, 0
746, 3054012500, 0.78710735, 0.10665703, -0.5357437, 0.28647336, 1.7487428, -0.7515694, -0.14021587, 0
747, 3054029167, 0.7844044, 0.115495406, -0.5343327, 0.29302034, 1.417949, -0.5399645, -0.021074295, 0
748, 3054045834, 0.78122723, 0.12632643, -0.5324885, 0.30030543, 1.1953281, -0.485258, 0.17908382, 0
749, 3054062501, 0.7775501, 0.13805285, -0.5306667, 0.30781806, 0.93307674, -0.48091775, 0.41726685, 0
750, 3054079168, 0.77366686, 0.14964443, -0.5291816, 0.31466603, 0.67857504, -0.48901075, 0.69510937, 0
751, 3054095835, 0.7701337, 0.16000588, -0.5278948, 0.3203455, 0.42889187, -0.52762717, 1.0359306, 0
752, 3054112502, 0.76776046, 0.16732556, -0.5263845, 0.3247572, 0.24800462, -0.5646163, 1.2766733, 0
753, 3054129169, 0.7670703, 0.17007409, -0.5244071, 0.3281418, 0.1594519, -0.7621169, 1.1932516, 0
754, 3054145836, 0.7677432, 0.16808063, -0.52272165, 0.33027786, 0.13989408, -0.73102605, 0.87709236, 0
755, 3054162503, 0.76931155, 0.16263422, -0.5217947, 0.3308203, 0.2198746, -0.6928257, 0.59014416, 0
756, 3054179170, 0.7713929, 0.15562464, -0.5214093, 0.3299521, 0.48821712, -0.6976505, 0.4813261, 0
757, 3054195837, 0.7735927, 0.14865461, -0.5211109, 0.32848385, 0.59644836, -0.67596096, 0.34812832, 0
758, 3054212504, 0.775505, 0.14249396, -0.520827, 0.3271522, 0.7975452, -0.64562416, 0.18683529, 0
759, 3054229171, 0.7768795, 0.13801998, -0.520466, 0.32638267, 0.85431343, -0.6142638, 0.15074825, 0
760, 3054245838, 0.7778612, 0.13559878, -0.519605, 0.3264316, 0.8102698, -0.57933867, 0.11627388, 0
761, 3054262505, 0.778649, 0.13496223, -0.5181404, 0.32714418, 0.6309894, -0.39015326, -0.058529854, 0
762, 3054279172, 0.7792794, 0.13511272, -0.51651627, 0.32814762, 0.4033651, -0.15930836, -0.18146038, 0
763, 3054295839, 0.77995306, 0.13541709, -0.5149085, 0.32894784, 0.1964585, -0.052090812, -0.27217484, 0
764, 3054312506, 0.7809359, 0.13569476, -0.5131967, 0.3291761, 0.0792083, 0.074731, -0.31582355, 0
765, 3054329173, 0.7822099, 0.13575609, -0.5113924, 0.32893392, 0.070784315, 0.19603293, -0.34474277, 0
766, 3054345840, 0.7836214, 0.13520704, -0.50978076, 0.32830176, 0.12395939, 0.49633265, -0.24616432, 0
767, 3054362507, 0.7853316, 0.13445123, -0.5083883, 0.3266808, 0.2897803, 0.6744986, -0.10746288, 0
768, 3054379174, 0.7872958, 0.13449547, -0.50690114, 0.32423693, 0.51630557, 0.49802038, 0.16848373, 0
769, 3054395841, 0.7892043, 0.13584311, -0.505219, 0.32165, 0.6600552, 0.17464755, 0.13988018, 0
770, 3054412508, 0.7908949, 0.13842216, -0.5035964, 0.31893083, 0.73982966, -0.21257266, -0.07927418, 0
771, 3054429175, 0.7922657, 0.14171118, -0.50229573, 0.31612295, 0.7874361, -0.65379345, -0.296216, 0
772, 3054445842, 0.7932161, 0.1453166, -0.50139105, 0.31352824, 0.7144545, -1.0620387, -0.31133175, 0
773, 3054462509, 0.7936688, 0.14902413, -0.5005964, 0.311908, 0.7529072, -1.37957, -0.16873741, 0
774, 3054479176, 0.7936604, 0.15296365, -0.49948093, 0.3118107, 0.73351276, -1.5382311, 0.03719616, 0
775, 3054495843, 0.7933644, 0.1573851, -0.49758855, 0.313385, 0.51020586, -1.4573375, 0.2232809, 0
776, 3054512510, 0.79288536, 0.16218077, -0.4950036, 0.3162333, 0.045430798, -1.1542913, 0.18668175, 0
777, 3054529177, 0.79240966, 0.16650191, -0.49227086, 0.3194297, -0.42786995, -0.785391, 0.1541872, 0
778, 3054545844, 0.7922338, 0.16958667, -0.48981386, 0.32200953, -0.861022, -0.44583124, 0.09931183, 0
779, 3054562511, 0.79261035, 0.17084303, -0.4877937, 0.32348204, -1.0837843, -0.25465345, 0.24991798, 0
780, 3054579178, 0.7935888, 0.17049004, -0.48596612, 0.32401952, -1.1314373, -0.26999336, 0.5058279, 0
781, 3054595845, 0.79504824, 0.1688701, -0.48426452, 0.323838, -1.1691602, -0.18861252, 0.6382408, 0
782, 3054612512, 0.7967019, 0.16634578, -0.4828886, 0.3231343, -1.2813996, -0.3040145, 0.71382046, 0
783, 3054629179, 0.7983709, 0.1637133, -0.48169225, 0.32214296, -1.5644057, -0.33465612, 0.71587276, 0
784, 3054645846, 0.80012965, 0.16067791, -0.4805681, 0.32098436, -1.8836492, -0.21646246, 0.69836426, 0
785, 3054662513, 0.80229616, 0.15645994, -0.47956488, 0.31915602, -2.3345213, -0.07031528, 0.49963188, 0
786, 3054679180, 0.8050604, 0.15141946, -0.47827822, 0.31654668, -2.5504544, -0.14127997, 0.5579462, 0
787, 3054695847, 0.80826056, 0.14617059, -0.47594988, 0.31436053, -2.70402, -0.36509612, 0.8021126, 0
788, 3054712514, 0.81182337, 0.14160772, -0.4721071, 0.31306043, -2.8882608, -0.39928365, 0.7952719, 0
789, 3054729181, 0.81570166, 0.13752742, -0.46731493, 0.31198642, -3.366026, -0.013300921, 0.4505968, 0
790, 3054745848, 0.819907, 0.13324857, -0.4625749, 0.30987662, -3.6142976, 0.14873312, 0.4923973, 0
791, 3054762515, 0.8242459, 0.1291938, -0.45812377, 0.306679, -3.8683927, -0.15333357, 0.8018627, 0
792, 3054779182, 0.8286595, 0.12629846, -0.45312855, 0.3033951, -4.0489664, -0.68375653, 1.2506914, 0
793, 3054795849, 0.833269, 0.12479046, -0.44669592, 0.30092308, -4.406865, -1.1474825, 2.011263, 0
794, 3054812516, 0.8384895, 0.12495989, -0.43793616, 0.29922292, -4.683556, -1.250755, 2.8447104, 0
795, 3054829183, 0.8442884, 0.12740517, -0.42688763, 0.297849, -4.8010373, -1.068798, 3.6106424, 0
796, 3054845850, 0.8503939, 0.13128689, -0.41444466, 0.29636374, -4.9585676, -0.704064, 4.032755, 0
797, 3054862517, 0.85673493, 0.13520911, -0.40171707, 0.29385203, -5.260342, -0.38472548, 4.3650465, 0
798, 3054879184, 0.8641375, 0.13679333, -0.38863507, 0.28899616, -5.302166, 0.086075954, 5.0762625, 0
799, 3054895851, 0.87272584, 0.1353342, -0.37454423, 0.28240556, -4.6680994, -0.024456117, 5.777383, 0
800, 3054912518, 0.88213754, 0.13157186, -0.3592886, 0.27465555, -3.836185, -0.098638505, 6.1450434, 0
801, 3054929185, 0.8919918, 0.12637252, -0.34272167, 0.2663162, -2.9879856, -0.08037817, 6.4449234, 0
802, 3054945852, 0.90209377, 0.12036511, -0.32467112, 0.25754532, -1.9468827, 0.16828716, 6.776602, 0
803, 3054962519, 0.9121543, 0.11368371, -0.3053118, 0.24867077, -0.7799212, 0.33261812, 6.673542, 0
804, 3054979186, 0.9217076, 0.10681113, -0.2853145, 0.2400913, 0.07827245, 0.40987483, 6.5316525, 0
805, 3054995853, 0.9307252, 0.099793345, -0.2643881, 0.23214772, 1.0768099, 0.72244084, 6.5427322, 0
806, 3055012520, 0.93913835, 0.09230277, -0.24259892, 0.22504902, 1.7069569, 0.97407997, 6.305792, 0
807, 3055029187, 0.9467485, 0.085325144, -0.21985924, 0.21920499, 2.3319194, 0.81094086, 5.89032, 0
808, 3055045854, 0.95342815, 0.080312975, -0.1961952, 0.21455535, 2.6568704, 1.0886085, 5.7018538, 0
809, 3055062521, 0.9594072, 0.076865025, -0.1712917, 0.21045324, 3.239904, 1.6358823, 5.327775, 0
810, 3055079188, 0.9647083, 0.07351332, -0.14593291, 0.20649225, 3.842396, 2.183165, 4.655573, 0
811, 3055095855, 0.96943855, 0.06885929, -0.12084357, 0.20210364, 4.572405, 2.487574, 3.8265076, 0
812, 3055112522, 0.973527, 0.06279698, -0.096149415, 0.19763295, 5.0795107, 2.3239021, 2.6884317, 0
813, 3055129189, 0.97705466, 0.055169202, -0.07164524, 0.19284514, 5.694416, 2.3978949, 1.398263, 0
814, 3055145856, 0.979978, 0.045895867, -0.047609653, 0.18780774, 5.9797325, 2.0184665, 0.08431816, 0
815, 3055162523, 0.9821763, 0.03589082, -0.023743887, 0.1829751, 6.2989254, 1.4378994, -1.4125204, 0
816, 3055179190, 0.9836066, 0.024883201, 2.5974866E-4, 0.17860816, 6.499095, 1.3719496, -3.292614, 0
817, 3055195857, 0.98424774, 0.012127047, 0.023840064, 0.17476556, 6.2623463, 0.84637225, -4.905475, 0
818, 3055212524, 0.98405874, -3.0410395E-4, 0.046814688, 0.17157686, 5.7345967, 0.044115715, -6.354169, 0
819, 3055229191, 0.98308665, -0.011224075, 0.06914333, 0.16921982, 4.7327514, -0.7457272, -7.524683, 0
820, 3055245858, 0.9815532, -0.019061347, 0.090069495, 0.1675689, 3.6587236, -1.2908685, -8.404338, 0
821, 3055262525, 0.979779, -0.02349396, 0.1083154, 0.16658543, 2.363519, -1.7210976, -8.804745, 0
822, 3055279192, 0.97808594, -0.023544386, 0.12361329, 0.16587727, 1.4995224, -2.1392243, -8.785093, 0
823, 3055295859, 0.9765969, -0.0205799, 0.1362103, 0.16517803, 0.95872486, -1.7279855, -8.765713, 0
824, 3055312526, 0.9753054, -0.017354708, 0.14608613, 0.16473888, 0.3110213, -1.0864815, -8.521143, 0
825, 3055329193, 0.9742827, -0.014690507, 0.15316582, 0.16461997, -0.2942512, -0.99155927, -7.924737, 0
826, 3055345860, 0.9736063, -0.011733705, 0.15735368, 0.16490857, -0.7338844, -0.85793006, -6.927434, 0
827, 3055362527, 0.9733505, -0.007535262, 0.15907502, 0.1650122, -0.78873706, -0.61176395, -5.7926598, 0
828, 3055379194, 0.97336704, -0.0017801707, 0.15968281, 0.16448975, -0.66732204, -0.14667997, -4.826638, 0
829, 3055395861, 0.97342885, 0.004369579, 0.16009505, 0.16367213, -0.65903383, 0.34992507, -4.1697807, 0
830, 3055412528, 0.9734429, 0.009257628, 0.16057894, 0.16290917, -0.7703925, 0.69379896, -3.5262632, 0
831, 3055429195, 0.97340745, 0.011689516, 0.16117693, 0.16237351, -0.76684713, 0.97444093, -3.2255306, 0
832, 3055445862, 0.9733453, 0.012037851, 0.16192469, 0.16197601, -0.6414147, 0.3548243, -3.2339568, 0
833, 3055462529, 0.9733064, 0.013215899, 0.16267216, 0.16136834, -0.73286265, -0.39454967, -3.3940878, 0
834, 3055479196, 0.97341096, 0.017434023, 0.16245155, 0.16055709, -0.7522921, -1.0442352, -3.301077, 0
835, 3055495863, 0.9736185, 0.025094923, 0.16108051, 0.1596632, -0.64039814, -1.1109009, -3.0403948, 0
836, 3055512530, 0.97378606, 0.034612816, 0.15909997, 0.15884511, -0.20315528, -0.89367044, -2.7883892, 0
837, 3055529197, 0.9738163, 0.0444514, 0.15686564, 0.1584335, 0.0878682, -0.48681045, -2.4801087, 0
838, 3055545864, 0.9737713, 0.05306086, 0.1542271, 0.15865016, -0.033422228, -6.3975E-4, -2.3552084, 0
839, 3055562531, 0.97375643, 0.05992627, 0.15090077, 0.15949409, -0.120485105, -0.04142712, -2.184515, 0
840, 3055579198, 0.9738286, 0.06557431, 0.14681819, 0.16063702, -0.3188009, 0.0666141, -2.133563, 0
841, 3055595865, 0.97404516, 0.06981486, 0.14208049, 0.16179244, -0.28204408, 0.16874717, -2.2996778, 0
842, 3055612532, 0.97438335, 0.072232775, 0.13711542, 0.16297494, -0.071014985, 0.33956552, -2.6838698, 0
843, 3055629199, 0.9748002, 0.07337169, 0.1319766, 0.16421096, 0.002620857, 0.32617646, -3.2230744, 0
844, 3055645866, 0.97536117, 0.073144175, 0.1261117, 0.16558407, -0.21662027, 0.5376702, -3.966879, 0
845, 3055662533, 0.97618586, 0.071155205, 0.118477605, 0.16722114, -0.35985982, 0.4351384, -4.358108, 0
846, 3055679200, 0.97722846, 0.06914521, 0.109100804, 0.16835114, -0.06239884, 0.18304063, -4.5110583, 0
847, 3055695867, 0.9783014, 0.067574024, 0.09858281, 0.16924417, 0.44213796, 0.31299588, -4.6633754, 0
848, 3055712534, 0.9793272, 0.066207364, 0.08684636, 0.17027713, 0.58976996, 0.405111, -4.491756, 0
849, 3055729201, 0.9802795, 0.064607434, 0.0737698, 0.17157468, 0.691658, 0.8341344, -4.3310823, 0
850, 3055745868, 0.98117083, 0.06228034, 0.05935549, 0.17292675, 0.8259653, 0.84130263, -4.016875, 0
851, 3055762535, 0.9819825, 0.05928798, 0.044689823, 0.17378142, 1.4983618, 1.1440012, -4.010767, 0
852, 3055779202, 0.98266584, 0.054740295, 0.029956356, 0.17457353, 2.224528, 1.3044379, -4.485085, 0
853, 3055795869, 0.98318124, 0.046957627, 0.014282238, 0.17591888, 2.666354, 1.5277094, -4.949032, 0
854, 3055812536, 0.98349506, 0.036848426, -0.0038309395, 0.17710689, 2.893721, 1.0335023, -4.9784827, 0
855, 3055829203, 0.9833602, 0.02687573, -0.025278127, 0.17788589, 2.759907, 0.3398613, -4.157141, 0
856, 3055845870, 0.9826849, 0.01866423, -0.0481788, 0.17793974, 3.4222379, 0.628527, -3.0589466, 0
857, 3055862537, 0.9814359, 0.012179218, -0.07083411, 0.17781919, 3.6394057, 0.789854, -2.1115723, 0
858, 3055879204, 0.979769, 0.0052464595, -0.09226437, 0.17752297, 4.3274174, 1.8263066, -1.7524242, 0
859, 3055895871, 0.9777012, -0.0047980323, -0.113220446, 0.17680584, 4.672663, 2.5269423, -1.7052374, 0
860, 3055912538, 0.9750043, -0.016290862, -0.13603438, 0.17492159, 4.1187844, 1.8067169, -1.3415651, 0
861, 3055929205, 0.97164404, -0.026409311, -0.16100334, 0.17114325, 3.7492175, 1.3945574, -1.0272131, 0
862, 3055945872, 0.96761775, -0.03511973, -0.1867789, 0.16612628, 4.3853908, 1.660584, -0.022788048, 0
863, 3055962539, 0.9628109, -0.041624345, -0.21286932, 0.16109353, 4.32509, 1.4152818, 1.2106161, 0
864, 3055979206, 0.9572837, -0.04696174, -0.23896883, 0.15588006, 3.6786401, 1.2894156, 1.2561054, 0
865, 3055995873, 0.9509145, -0.05143435, -0.26533604, 0.15071423, 3.487559, 0.8952004, 1.8373442, 0
866, 3056012540, 0.94375277, -0.05482089, -0.29188475, 0.14536366, 3.5237584, 0.8046127, 2.833973, 0
867, 3056029207, 0.9360325, -0.057485476, -0.31776112, 0.13988833, 4.173497, 0.77755266, 4.183584, 0
868, 3056045874, 0.92778707, -0.058687642, -0.34259367, 0.13563997, 4.180959, 0.31984577, 4.862056, 0
869, 3056062541, 0.9187558, -0.057680864, -0.36709923, 0.1334197, 3.0885222, -0.47423482, 4.427622, 0
870, 3056079208, 0.9089038, -0.052620746, -0.3916124, 0.13329124, 2.4569948, -0.27756363, 4.619589, 0
871, 3056095875, 0.89808524, -0.04613442, -0.41630593, 0.13418527, 1.6417139, 0.66830677, 4.2742414, 0
872, 3056112542, 0.8864258, -0.042303454, -0.44118375, 0.13348621, 1.4402795, 1.7353064, 4.3807135, 0
873, 3056129209, 0.8740217, -0.04298065, -0.46623558, 0.12986428, 1.3698528, 1.2399356, 4.640444, 0
874, 3056145876, 0.86102206, -0.044942964, -0.49091533, 0.12500066, 1.1363953, 0.06902524, 5.576539, 0
875, 3056162543, 0.8475413, -0.044938546, -0.5145713, 0.12195295, 0.6462354, -0.82339704, 5.985055, 0
876, 3056179210, 0.83365095, -0.042929336, -0.5371333, 0.12113212, -0.12684941, -1.0021663, 5.670824, 0
877, 3056195877, 0.8195785, -0.039247207, -0.5585257, 0.121661514, -1.0746319, -0.98322535, 5.036866, 0
878, 3056212544, 0.8055414, -0.034009658, -0.5786304, 0.12302474, -1.728494, -1.1325998, 4.45063, 0
879, 3056229211, 0.79155135, -0.027280536, -0.5974702, 0.1254336, -2.40713, -2.04658, 4.4839153, 0
880, 3056245878, 0.77814186, -0.017152099, -0.6140551, 0.1309173, -2.9936373, -2.7502801, 4.705676, 0
881, 3056262545, 0.7653071, -0.0039481493, -0.6282183, 0.14011808, -3.440213, -2.8232646, 4.5104046, 0
882, 3056279212, 0.75313437, 0.010578712, -0.6398616, 0.15249802, -5.066969, -2.899609, 4.465474, 0
883, 3056295879, 0.7548464, 0.024396187, -0.6337727, 0.16716991, -20.654476, -4.0912127, 12.23613, 0
884, 3056312546, 0.77589333, 0.01474544, -0.61029196, 0.15911525, -35.846294, 1.9686011, 5.610347, 0
885, 3056329213, 0.78510654, -0.011900556, -0.6019677, 0.14526764, -13.536297, -3.4605124, -2.461843, 0
886, 3056345880, 0.7843558, -0.02553011, -0.60375476, 0.14005809, -4.755137, -1.9348567, -0.5982065, 0
887, 3056362547, 0.7810121, -0.026609387, -0.60853285, 0.1378466, -0.728511, -1.1461401, 0.06218052, 0
888, 3056379214, 0.776941, -0.016922552, -0.6141574, 0.13743709, -0.002604373, -1.8006657, 0.8436613, 0
889, 3056395881, 0.77238715, -0.0023389924, -0.61926275, 0.14116636, -1.3674178, -1.4025443, 1.5527391, 0
890, 3056412548, 0.76890534, 0.010321184, -0.6221164, 0.1471427, -3.009732, -0.46358523, 2.5321007, 0
891, 3056429215, 0.77007365, 0.018238895, -0.6194284, 0.15153927, -3.9608808, 0.38205853, 2.5919676, 0
892, 3056445882, 0.7761473, 0.020549502, -0.6114168, 0.15278877, -4.251325, 0.83194816, 2.1736622, 0
893, 3056462549, 0.7851184, 0.019130465, -0.6002994, 0.15121433, -4.0603156, 0.7141137, 2.062995, 0
894, 3056479216, 0.7950855, 0.016448867, -0.58799803, 0.147745, -3.6295333, 0.33369473, 2.3038158, 0
895, 3056495883, 0.8047349, 0.0118299825, -0.57639915, 0.14151905, -3.4004626, 1.2756417, 2.0291605, 0
896, 3056512550, 0.81326365, 0.0031559644, -0.5668486, 0.13144149, -3.3857734, 0.64130765, 2.455677, 0
897, 3056529217, 0.82130975, -0.007072186, -0.55755705, 0.12055024, -3.491416, -0.5111537, 3.51583, 0
898, 3056545884, 0.8298344, -0.015272309, -0.54635906, 0.11240629, -3.652599, -1.1439165, 4.2763824, 0
899, 3056562551, 0.83915454, -0.020033175, -0.5327336, 0.10777406, -3.7761629, -0.91991633, 4.6644506, 0
900, 3056579218, 0.849235, -0.021565896, -0.5169009, 0.10559313, -3.5869365, -0.5131997, 5.0897818, 0
901, 3056595885, 0.8596348, -0.021227388, -0.49973065, 0.10415514, -3.3060775, -0.23360956, 5.0775566, 0
902, 3056612552, 0.8698115, -0.019725565, -0.48211813, 0.10297033, -2.9258258, -0.6608266, 5.475422, 0
903, 3056629219, 0.87990195, -0.01679892, -0.46360058, 0.10279537, -2.4105487, -0.88926274, 6.1865005, 0
904, 3056645886, 0.89021933, -0.012536505, -0.44338143, 0.103764996, -1.694133, -0.66727424, 6.699751, 0
905, 3056662553, 0.90078604, -0.007469195, -0.42131826, 0.10498246, -0.84243685, -0.51317984, 7.1684055, 0
906, 3056679220, 0.9116566, -0.0028054118, -0.39706236, 0.105912924, 0.30243537, 0.04707543, 7.062742, 0
907, 3056695887, 0.92248577, -4.7931215E-4, -0.37129867, 0.10563519, 1.4620179, 0.271362, 6.446945, 0
908, 3056712554, 0.9326683, -8.968464E-4, -0.3453572, 0.10420731, 2.317757, 0.0759402, 5.674694, 0
909, 3056729221, 0.9419989, -0.0033923665, -0.319521, 0.10263986, 3.2013385, -0.27345422, 5.2038507, 0
910, 3056745888, 0.95064145, -0.0058434485, -0.29304355, 0.101854086, 4.0635457, -0.42653963, 4.934596, 0
911, 3056762555, 0.9587723, -0.0060297586, -0.26507077, 0.10226887, 4.803151, -0.45747083, 4.312357, 0
912, 3056779222, 0.966163, -0.0029093665, -0.23597823, 0.10409972, 5.281714, -0.23271984, 3.266612, 0
913, 3056795889, 0.9726213, 0.0015603802, -0.20698124, 0.105669275, 5.405448, 0.6155763, 2.2672672, 0
914, 3056812556, 0.9780689, 0.0041784397, -0.1793018, 0.105909005, 5.350015, 0.94639164, 1.6461086, 0
915, 3056829223, 0.9825757, 0.0046804054, -0.15317903, 0.105171345, 5.407141, 0.95035046, 1.4184093, 0
916, 3056845890, 0.98631644, 0.0043367473, -0.12826295, 0.103496045, 5.343537, 0.91676146, 0.98766136, 0
917, 3056862557, 0.9893929, 0.0031387873, -0.1044586, 0.10090633, 5.149944, 1.4617454, 0.20069408, 0
918, 3056879224, 0.99184096, -1.1410122E-4, -0.08225367, 0.097404495, 5.059762, 1.8164544, -0.61522675, 0
919, 3056895891, 0.99379045, -0.0057850117, -0.06121496, 0.09274475, 5.0647464, 1.9207088, -1.6455383, 0
920, 3056912558, 0.9952275, -0.011585662, -0.041063197, 0.08777005, 5.0063295, 0.66956425, -2.4421496, 0
921, 3056929225, 0.9961675, -0.014525548, -0.02167357, 0.083496876, 4.881398, -0.10724109, -3.0281644, 0
922, 3056945892, 0.9966217, -0.016334848, -0.002512304, 0.080461815, 4.652875, 0.07214384, -3.5944524, 0
923, 3056962559, 0.99655586, -0.020196922, 0.016501268, 0.078728944, 3.9609303, 0.49820986, -3.8722382, 0
924, 3056979226, 0.9959541, -0.027212245, 0.03561334, 0.077899426, 3.6315818, 0.55757236, -4.3928943, 0
925, 3056995893, 0.9947695, -0.0364256, 0.05444358, 0.0783885, 3.1998649, -0.13704291, -4.9178047, 0
926, 3057012560, 0.99314344, -0.04524127, 0.07256008, 0.07972646, 2.5684602, -0.64430815, -5.6631155, 0
927, 3057029227, 0.9911695, -0.053260565, 0.08981274, 0.081741855, 1.8263993, -0.80300313, -6.5974445, 0
928, 3057045894, 0.9889563, -0.06037282, 0.1057511, 0.084494814, 0.95469403, -0.72665906, -7.2909827, 0
929, 3057062561, 0.98664814, -0.06727377, 0.11947408, 0.087907284, -0.12564251, -0.62585056, -7.740476, 0
930, 3057079228, 0.98447084, -0.074030824, 0.13025743, 0.091496676, -1.0287981, -0.7936234, -7.7166276, 0
931, 3057095895, 0.9826833, -0.079527505, 0.13806881, 0.094592944, -1.3746141, -1.0185465, -7.3901477, 0
932, 3057112562, 0.9814534, -0.082118936, 0.1434721, 0.09707443, -1.5364236, -1.3483701, -6.6348705, 0
933, 3057129229, 0.98077714, -0.080753356, 0.1476823, 0.09872542, -1.2706169, -1.1670557, -5.86823, 0
934, 3057145896, 0.98028535, -0.07737081, 0.1519531, 0.09983159, -1.2153602, -0.6422105, -5.5003014, 0
935, 3057162563, 0.979827, -0.07435505, 0.15564689, 0.10092705, -1.4869624, -0.4039498, -5.1410546, 0
936, 3057179230, 0.97952205, -0.07251205, 0.15741917, 0.102467984, -1.7176421, -0.4255322, -4.5134573, 0
937, 3057195897, 0.9793893, -0.07131005, 0.15752342, 0.10440238, -1.4114006, -0.36262816, -3.711205, 0
938, 3057212564, 0.97932225, -0.06994904, 0.15727895, 0.10630275, -1.0827825, -0.16588762, -3.1960416, 0
939, 3057229231, 0.9791939, -0.06873644, 0.15745755, 0.107997276, -1.032233, 0.115239225, -3.1693568, 0
940, 3057245898, 0.97895485, -0.06840186, 0.15763476, 0.11009852, -1.265061, 0.120490246, -3.1641464, 0
941, 3057262565, 0.97873473, -0.06863416, 0.1570891, 0.11266083, -1.4985801, 0.085329086, -3.0432591, 0
942, 3057279232, 0.97866476, -0.06898949, 0.15574603, 0.11489487, -1.4640222, 0.27405992, -3.0423365, 0
943, 3057295899, 0.9787761, -0.06923564, 0.15370722, 0.11653224, -1.3210912, 0.36269054, -3.298584, 0
944, 3057312566, 0.978987, -0.06998705, 0.15084976, 0.11803663, -1.3399768, 0.39815027, -3.7035685, 0
945, 3057329233, 0.97932875, -0.07129548, 0.1467007, 0.11963573, -1.5233389, 0.2560301, -3.8167024, 0
946, 3057345900, 0.97994006, -0.07177941, 0.14135702, 0.1207689, -1.2950759, 0.06086551, -3.6497202, 0
947, 3057362567, 0.9808178, -0.070682056, 0.13542008, 0.121094085, -0.9759226, -0.0036150985, -3.7192836, 0
948, 3057379234, 0.98179334, -0.068948746, 0.12915601, 0.12103005, -0.7121423, -0.05421692, -4.1148667, 0
949, 3057395901, 0.9827639, -0.067681015, 0.12232161, 0.12097028, -0.061160464, -0.47532365, -4.7411733, 0
950, 3057412568, 0.9835643, -0.066958584, 0.115259625, 0.121799186, 0.7640229, -1.0659184, -5.589929, 0
951, 3057429235, 0.9840936, -0.06668245, 0.107654065, 0.124602504, 1.0919242, -1.8047793, -6.148205, 0
952, 3057445902, 0.98442394, -0.066129774, 0.09916498, 0.12924716, 1.6159406, -2.3095288, -6.4945135, 0
953, 3057462569, 0.984584, -0.06408481, 0.09008621, 0.13555036, 2.0184743, -2.6797512, -6.611767, 0
954, 3057479236, 0.9846167, -0.059701826, 0.0811176, 0.14278567, 2.9241173, -2.2118285, -6.984915, 0
955, 3057495903, 0.98435986, -0.054711103, 0.07326598, 0.15058656, 3.8418994, -1.1599965, -7.5056562, 0
956, 3057512570, 0.9836263, -0.051142048, 0.065279335, 0.16001314, 3.7478032, -0.31722915, -7.396633, 0
957, 3057529237, 0.9824063, -0.048778307, 0.054793704, 0.17174996, 3.350718, -0.096303925, -7.163759, 0
958, 3057545904, 0.980912, -0.046655238, 0.039900508, 0.18451244, 2.7469053, -0.30207703, -6.5454893, 0
959, 3057562571, 0.97936445, -0.042630635, 0.020167155, 0.19652754, 3.1409786, 0.42534587, -5.5424747, 0
960, 3057579238, 0.97766775, -0.036980454, -0.0026408837, 0.2068651, 4.073575, 1.8804834, -4.528612, 0
961, 3057595905, 0.9756177, -0.031068148, -0.025775075, 0.21573694, 4.419668, 2.6094885, -3.6311083, 0
962, 3057612572, 0.9731185, -0.025298964, -0.04851394, 0.223715, 4.359585, 2.6508842, -3.1168413, 0
963, 3057629239, 0.9699957, -0.018696114, -0.07278115, 0.2312223, 4.4328823, 2.3018944, -2.1262336, 0
964, 3057645906, 0.9657079, -0.008872977, -0.100959584, 0.23903652, 3.557245, 1.904607, -0.4059925, 0
965, 3057662573, 0.96016043, 0.0043487325, -0.13199413, 0.24627742, 3.4700918, 2.8764877, 1.201396, 0
966, 3057679240, 0.9539064, 0.017588686, -0.16243555, 0.25173372, 3.53071, 4.583154, 2.6042967, 0
967, 3057695907, 0.947713, 0.026797686, -0.1905243, 0.2546063, 3.9725628, 5.4361854, 3.483242, 0
968, 3057712574, 0.9413183, 0.032233097, -0.21802749, 0.25563005, 3.4714375, 4.2033753, 3.8421383, 0
969, 3057729241, 0.93380684, 0.037613157, -0.24737504, 0.25572953, 2.6418803, 2.502118, 4.706232, 0
970, 3057745908, 0.9255468, 0.045294862, -0.27623764, 0.25496313, 2.3220525, 2.3654068, 5.6459236, 0
971, 3057762575, 0.9168572, 0.052923378, -0.30358142, 0.25379542, 1.6905742, 2.9264014, 6.0746984, 0
972, 3057779242, 0.9085743, 0.0570638, -0.32901758, 0.25096977, 2.0063968, 3.6730013, 7.0550823, 0
973, 3057795909, 0.9009837, 0.05822465, -0.35260743, 0.24598382, 2.2092505, 2.9605317, 7.0371933, 0
974, 3057812576, 0.8939469, 0.057541877, -0.37453732, 0.23931463, 2.689262, 1.839011, 6.359127, 0
975, 3057829243, 0.8859439, 0.057606593, -0.3967314, 0.23321871, 2.1142519, -0.20403218, 5.822852, 0
976, 3057845910, 0.87519234, 0.061400115, -0.42107153, 0.23015024, 1.0964379, -1.533532, 5.917962, 0
977, 3057862577, 0.8631636, 0.06746203, -0.44470453, 0.2294281, 0.40557766, -1.0287194, 6.7845974, 0
978, 3057879244, 0.8513335, 0.072294615, -0.46598083, 0.22993137, -0.6804848, -0.27945915, 6.9021053, 0
979, 3057895911, 0.84049875, 0.073769376, -0.485241, 0.22948398, -1.4288665, -0.06547533, 5.934616, 0
980, 3057912578, 0.83052874, 0.07330742, -0.5028822, 0.22794567, -1.6506888, -0.25695965, 5.546664, 0
981, 3057929245, 0.8206259, 0.07292214, -0.51956093, 0.22652538, -1.9527236, -0.49657762, 4.6638823, 0
982, 3057945912, 0.81001925, 0.07327794, -0.53635764, 0.22543651, -2.2383566, -0.8991622, 3.8568287, 0
983, 3057962579, 0.798556, 0.07531024, -0.5533003, 0.22471559, -2.6839936, -1.4125246, 3.7683706, 0
984, 3057979246, 0.78665334, 0.07977834, -0.5691832, 0.2254866, -3.34776, -2.192379, 4.24734, 0
985, 3057995913, 0.77475417, 0.08771046, -0.58255893, 0.22954267, -4.0153303, -3.0580022, 4.60812, 0
986, 3058012580, 0.76327616, 0.09862198, -0.5926277, 0.23765004, -5.1106067, -3.5638287, 4.4200954, 0
987, 3058029247, 0.75698686, 0.108504295, -0.5950639, 0.24718124, -12.427785, -3.4130347, 6.5001354, 0
988, 3058045914, 0.7664893, 0.09676953, -0.59074885, 0.2326965, -30.291552, 0.81936854, 4.666786, 0
989, 3058062581, 0.77605575, 0.071196884, -0.5880942, 0.21637005, -12.753603, -6.564528, 4.247514, 0
990, 3058079248, 0.7792989, 0.063752666, -0.5837709, 0.21872872, -5.177826, -7.155018, 0.44443703, 0
991, 3058095915, 0.78074867, 0.06794424, -0.57799536, 0.2274606, -3.8792953, -2.1015334, 0.6268921, 0
992, 3058112582, 0.78134334, 0.07433472, -0.5737547, 0.23406093, -3.586936, -0.7166561, 0.5436964, 0
993, 3058129249, 0.7821385, 0.08003245, -0.5705055, 0.23744403, -4.488574, -1.3204737, 1.9827547, 0
994, 3058145916, 0.784791, 0.08351216, -0.5653124, 0.23990141, -5.621637, -1.8319328, 3.6922045, 0
995, 3058162583, 0.7903413, 0.08304316, -0.5566988, 0.24197619, -6.1651187, -1.3754158, 4.241287, 0
996, 3058179250, 0.79872406, 0.07888343, -0.5450827, 0.24228862, -6.106009, -0.6461119, 4.0340376, 0
997, 3058195917, 0.8087262, 0.07277128, -0.5318553, 0.24041298, -5.7903132, -0.43149242, 3.9146338, 0
998, 3058212584, 0.81896955, 0.06546836, -0.51863194, 0.23669699, -5.374078, -0.37008816, 3.7745352, 0
999, 3058229251, 0.8290377, 0.05785557, -0.505533, 0.23192106, -4.9337792, -0.944972, 4.4573174, 0
1000, 3058245918, 0.83913094, 0.051943097, -0.49102834, 0.22815359, -4.570791, -1.5089589, 5.8609514, 0
1001, 3058262585, 0.8494819, 0.048659135, -0.47401202, 0.2265549, -4.3486395, -1.4796175, 6.7740135, 0
1002, 3058279252, 0.86035424, 0.047240358, -0.45422617, 0.22636098, -3.83614, -0.9924694, 7.487238, 0
1003, 3058295919, 0.8716741, 0.046704695, -0.43191576, 0.2268336, -3.02636, -0.5839961, 8.080458, 0
1004, 3058312586, 0.8833716, 0.045546994, -0.40750673, 0.22698084, -2.222096, 0.6028704, 8.310652, 0
1005, 3058329253, 0.8953901, 0.04104264, -0.38221997, 0.22472566, -1.2760417, 1.6106197, 7.957617, 0
1006, 3058345920, 0.9074913, 0.03297836, -0.35650253, 0.21972586, 0.2598736, 1.8629411, 7.62097, 0
1007, 3058362587, 0.91913897, 0.023769744, -0.32996315, 0.21388009, 2.0843177, 1.6142809, 7.4820366, 0
1008, 3058379254, 0.92998207, 0.016246967, -0.3020493, 0.20889597, 3.5040116, 1.3450875, 7.0646496, 0
1009, 3058395921, 0.93993104, 0.01213018, -0.27238265, 0.20540674, 4.771754, 1.2993584, 6.376274, 0
1010, 3058412588, 0.9488158, 0.0118461875, -0.24140602, 0.20330569, 5.611839, 1.4894946, 5.4165974, 0
1011, 3058429255, 0.95648015, 0.012594752, -0.21106736, 0.20109606, 5.784735, 2.623778, 4.206749, 0
1012, 3058445922, 0.96305907, 0.010350626, -0.18321937, 0.19708532, 5.930376, 2.95764, 3.2205524, 0
1013, 3058462589, 0.9687028, 0.004454904, -0.15780492, 0.19155876, 6.4233046, 2.8094053, 2.2074337, 0
1014, 3058479256, 0.9733471, -0.0033192243, -0.13432194, 0.18585972, 6.7199464, 2.1329334, 1.1776857, 0
1015, 3058495923, 0.97718436, -0.010162212, -0.1111101, 0.18073085, 7.2531343, 1.7505895, 0.100691795, 0
1016, 3058512590, 0.98027337, -0.015215925, -0.08724501, 0.1766998, 6.980308, 1.6481222, -1.183505, 0
1017, 3058529257, 0.98261666, -0.018266816, -0.06287007, 0.17372337, 6.539978, 1.6404033, -2.3089662, 0
1018, 3058545924, 0.98428184, -0.020653656, -0.03775084, 0.17128709, 6.35159, 1.9533817, -3.4106169, 0
1019, 3058562591, 0.98523325, -0.023941837, -0.012276707, 0.16909502, 5.808399, 1.9728059, -4.3685703, 0
1020, 3058579258, 0.9854545, -0.029003285, 0.012336017, 0.16699615, 5.0089126, 1.731334, -5.0270796, 0
1021, 3058595925, 0.9850413, -0.03559891, 0.035092395, 0.1649135, 3.9455655, 1.347441, -5.4623, 0
1022, 3058612592, 0.9840829, -0.043853704, 0.056231797, 0.1627814, 3.624571, 1.3268039, -5.923333, 0
1023, 3058629259, 0.98254657, -0.05305203, 0.07655956, 0.16102242, 3.2569654, 1.0840136, -6.3544636, 0
1024, 3058645926, 0.98047894, -0.06313261, 0.09559939, 0.1598056, 2.3523622, 0.62545574, -6.525209, 0
1025, 3058662593, 0.9779923, -0.07265363, 0.11391283, 0.15899125, 1.7546521, 0.18126708, -6.8816166, 0
1026, 3058679260, 0.97509784, -0.08204807, 0.13123402, 0.15884487, 0.77388614, -0.2156697, -7.433524, 0
1027, 3058695927, 0.9719424, -0.091644764, 0.14670399, 0.15940249, -0.18854178, -0.79008543, -7.7916174, 0
1028, 3058712594, 0.9688309, -0.10024818, 0.15961726, 0.16075166, -0.5171476, -1.5475072, -7.8249173, 0
1029, 3058729261, 0.9662643, -0.10554864, 0.16974235, 0.16242608, -0.8639742, -2.0890095, -7.5036745, 0
1030, 3058745928, 0.96462315, -0.10665921, 0.17722565, 0.16345948, -1.0873946, -2.099808, -7.025743, 0
1031, 3058762595, 0.9639531, -0.10325581, 0.18237436, 0.1639335, -1.1620917, -2.068692, -6.22031, 0
1032, 3058779262, 0.9641751, -0.09574551, 0.18537755, 0.16381767, -1.163319, -1.6201887, -5.3233314, 0
1033, 3058795929, 0.96493584, -0.085918725, 0.18729675, 0.16259909, -1.2280085, -1.0487549, -4.6204877, 0
1034, 3058812596, 0.965723, -0.075910896, 0.18905221, 0.16086519, -1.1288092, -0.5495022, -4.0356855, 0
1035, 3058829263, 0.9664146, -0.06671318, 0.19062375, 0.15892312, -0.9389015, -0.36067623, -3.5072184, 0
1036, 3058845930, 0.96699554, -0.05865516, 0.19166645, 0.15730575, -1.0084989, -0.34776643, -3.0686312, 0
1037, 3058862597, 0.9675982, -0.0511485, 0.19197811, 0.15583304, -0.9546238, -0.5131938, -2.573731, 0
1038, 3058879264, 0.96831346, -0.042982895, 0.19165505, 0.15424576, -0.47804224, -0.7230435, -2.2060313, 0
1039, 3058895931, 0.9689935, -0.03432305, 0.19121021, 0.15269008, -0.2592481, -0.35506138, -2.1146665, 0
1040, 3058912598, 0.96956915, -0.027340302, 0.19027448, 0.1516112, -0.47664964, -0.18898296, -1.9851041, 0
1041, 3058929265, 0.9701515, -0.022020876, 0.18829632, 0.15122062, -0.45729956, -0.30463326, -1.5496416, 0
1042, 3058945932, 0.97080225, -0.017023733, 0.18539459, 0.15127376, -0.14644994, -0.37276664, -1.0709543, 0
1043, 3058962599, 0.9713884, -0.012034468, 0.18238918, 0.15164323, -0.05583063, -0.020911258, -0.86561394, 0
1044, 3058979266, 0.9718434, -0.0080852555, 0.17954929, 0.15237737, -0.13429497, 0.22099578, -0.7725353, 0
1045, 3058995933, 0.972266, -0.0043945694, 0.17677446, 0.15307575, -0.12351471, 0.06986793, -0.5278492, 0
1046, 3059012600, 0.97269803, 8.6379005E-5, 0.17419472, 0.15335229, -0.14102584, 0.14084479, -0.49681377, 0
1047, 3059029267, 0.9731037, 0.0046840236, 0.17160924, 0.15362097, -0.45541927, 0.32228377, -0.5679083, 0
1048, 3059045934, 0.9735128, 0.008603104, 0.16878594, 0.15398729, -0.6173278, 0.31170034, -0.82209873, 0
1049, 3059062601, 0.97392535, 0.0116498, 0.16587366, 0.15434197, -0.62681705, 0.14960225, -1.1968384, 0
1050, 3059079268, 0.97431564, 0.014540935, 0.16315788, 0.15452865, -0.686936, 0.0063602915, -1.818191, 0
1051, 3059095935, 0.9747571, 0.01682227, 0.16014425, 0.15466525, -0.6901241, -0.06937424, -2.6341577, 0
1052, 3059112602, 0.9752336, 0.017753424, 0.15679811, 0.15498492, -0.23554187, -0.11260538, -3.6999106, 0
1053, 3059129269, 0.975667, 0.017115613, 0.15317172, 0.15595214, -0.052922614, -0.34923187, -4.9234905, 0
1054, 3059145936, 0.9760634, 0.015133828, 0.14865717, 0.15803258, -0.16392697, -0.7528842, -6.012048, 0
1055, 3059162603, 0.97643656, 0.012443432, 0.14289099, 0.16124804, 0.08210734, -0.8056605, -6.952371, 0
1056, 3059179270, 0.9768435, 0.00985723, 0.13534242, 0.1654206, 0.25228667, -0.86097753, -7.3536053, 0
1057, 3059195937, 0.977497, 0.009081066, 0.124735124, 0.169883, 0.37345338, -1.193676, -7.0853243, 0
1058, 3059212604, 0.9783816, 0.01077705, 0.11174179, 0.17369157, 1.4582523, -0.8429078, -7.1057844, 0
1059, 3059229271, 0.97919893, 0.01296971, 0.09751451, 0.1774652, 2.7437353, -0.3319838, -7.4021053, 0
1060, 3059245938, 0.9795439, 0.013816472, 0.08171559, 0.18337707, 2.830878, -0.108370155, -7.049595, 0
1061, 3059262605, 0.9794663, 0.013506528, 0.06356077, 0.19085364, 2.7861466, 0.3498427, -6.6588144, 0
1062, 3059279272, 0.9789735, 0.010563571, 0.043099497, 0.19910705, 2.6139388, 1.7458563, -6.2645707, 0
1063, 3059295939, 0.97810143, 0.0035336278, 0.020821434, 0.20705904, 3.3362842, 2.5669823, -5.7896757, 0
1064, 3059312606, 0.9770516, -0.0034916012, -0.0024804974, 0.21296388, 4.5581346, 2.1544242, -4.7644954, 0
1065, 3059329273, 0.97551376, -0.006552205, -0.026601057, 0.21822958, 4.890025, 1.7116661, -3.5900836, 0
1066, 3059345940, 0.9732261, -0.0055010924, -0.051722165, 0.22389144, 4.4350395, 2.3470433, -2.881197, 0
1067, 3059362607, 0.9701844, -0.0070859455, -0.079412274, 0.22888295, 3.6353421, 4.0759506, -2.5689077, 0
1068, 3059379274, 0.96627957, -0.01759352, -0.11200671, 0.23119397, 3.3305724, 4.5029325, -1.817203, 0
1069, 3059395941, 0.9612722, -0.033754576, -0.14862727, 0.2296263, 3.9840086, 3.6305056, -0.28970432, 0
1070, 3059412608, 0.95495117, -0.049890492, -0.18670051, 0.22522025, 4.5859447, 3.2787893, 1.5210438, 0
1071, 3059429275, 0.94778883, -0.06350707, -0.22330542, 0.21863161, 4.4458675, 3.0701945, 2.6871195, 0
1072, 3059445942, 0.93990564, -0.0745726, -0.25789747, 0.21096689, 3.7105002, 2.7412555, 3.3065796, 0
1073, 3059462609, 0.9313902, -0.08296205, -0.2910417, 0.20230252, 3.2828267, 1.6416118, 4.6314325, 0
1074, 3059479276, 0.9227418, -0.08506202, -0.3216591, 0.19454914, 3.233584, 1.1021804, 6.3639126, 0
1075, 3059495943, 0.91417617, -0.08224759, -0.34905612, 0.18888845, 2.7429636, 1.4568968, 7.1689034, 0
1076, 3059512610, 0.9058397, -0.07852379, -0.37358335, 0.18364632, 2.0180354, 2.2142985, 6.930435, 0
1077, 3059529277, 0.8978465, -0.07788941, -0.39589134, 0.17628606, 1.8221085, 2.676936, 6.425865, 0
1078, 3059545944, 0.8903747, -0.08034464, -0.4159956, 0.16651464, 2.2592516, 1.730929, 6.3367405, 0
1079, 3059562611, 0.8828005, -0.080925845, -0.43496203, 0.15787369, 2.0336232, -0.5515483, 6.102256, 0
1080, 3059579278, 0.8738314, -0.07426028, -0.45494202, 0.15470482, 0.5171236, -2.8594248, 6.1901855, 0
1081, 3059595945, 0.8634117, -0.05936619, -0.47538406, 0.15813841, -0.6262355, -2.1716537, 6.84461, 0
1082, 3059612612, 0.8521303, -0.043232113, -0.49509224, 0.16398299, -2.0544171, -0.11052291, 6.241047, 0
1083, 3059629279, 0.84078586, -0.03162175, -0.5139531, 0.16713254, -3.2159996, 0.7616728, 5.8233747, 0
1084, 3059645946, 0.8302638, -0.024403896, -0.53124696, 0.16686839, -3.7064672, 0.30501187, 5.3137865, 0
1085, 3059662613, 0.82056916, -0.019163832, -0.54674894, 0.16542813, -3.8033447, -0.5306714, 5.2460785, 0
1086, 3059679280, 0.8114674, -0.013313337, -0.5605951, 0.16455449, -4.023672, -1.3122118, 5.250472, 0
1087, 3059695947, 0.80267406, -0.0068068174, -0.57318217, 0.16471767, -4.321819, -1.830869, 4.871705, 0
1088, 3059712614, 0.79419106, -6.1385334E-4, -0.5845774, 0.16592613, -4.767275, -2.3036919, 4.3118362, 0
1089, 3059729281, 0.7865428, 0.005173059, -0.593795, 0.16950805, -5.3297296, -3.1176353, 4.2818375, 0
1090, 3059745948, 0.78077036, 0.010817128, -0.599175, 0.1768387, -6.823863, -3.6108594, 4.688594, 0
1091, 3059762615, 0.78086036, 0.013759621, -0.5963736, 0.1854943, -12.51806, -2.18554, 5.8373814, 0
1092, 3059779282, 0.78823334, 4.7975034E-4, -0.5894397, 0.1767779, -19.489388, 1.2359403, 2.2521152, 0
1093, 3059795949, 0.79380757, -0.018871183, -0.5855476, 0.16324629, -11.383194, -3.1589727, 0.772151, 0
1094, 3059812616, 0.7953789, -0.026825974, -0.5842603, 0.1590424, -6.795383, -4.5042415, 0.34904575, 0
1095, 3059829283, 0.7965594, -0.02433816, -0.58205587, 0.16159716, -4.878929, -2.2581725, 0.8263502, 0
1096, 3059845950, 0.798446, -0.017957095, -0.578899, 0.1644365, -4.9347754, -0.4302418, 0.9234028, 0
1097, 3059862617, 0.8020943, -0.013798048, -0.5739613, 0.1643924, -5.384674, -0.5744984, 2.5594082, 0
1098, 3059879284, 0.8080605, -0.012448373, -0.5658653, 0.1633448, -5.882052, -0.8431137, 3.74679, 0
1099, 3059895951, 0.81608915, -0.014246076, -0.5547663, 0.16134402, -5.866541, -0.76830536, 3.895032, 0
1100, 3059912618, 0.8251414, -0.017573431, -0.5421159, 0.15794124, -5.587648, -0.71703035, 3.6936646, 0
1101, 3059929285, 0.83454853, -0.020896591, -0.52847844, 0.15428813, -5.2001576, -0.94287956, 3.7942295, 0
1102, 3059945952, 0.84395015, -0.022890382, -0.5139673, 0.15186808, -4.895179, -1.4945774, 4.460704, 0
1103, 3059962619, 0.85345227, -0.023083858, -0.49828136, 0.1510091, -4.8828835, -1.4412653, 5.42797, 0
1104, 3059979286, 0.8634853, -0.02254805, -0.48075417, 0.150871, -4.7624273, -1.1844362, 6.364313, 0
1105, 3059995953, 0.87394196, -0.021864418, -0.46146998, 0.15097883, -4.481974, -1.2116433, 7.1883526, 0
1106, 3060012620, 0.8847768, -0.019507442, -0.43991244, 0.15254009, -3.7965746, -1.5521243, 8.224754, 0
1107, 3060029287, 0.8960926, -0.015833337, -0.4154121, 0.155571, -2.633299, -0.5687467, 8.576265, 0
1108, 3060045954, 0.90765464, -0.013639878, -0.3885732, 0.15808156, -1.1856107, 0.5664608, 8.465727, 0
1109, 3060062621, 0.9192171, -0.013978049, -0.3596675, 0.15964198, 0.34831366, 0.8964208, 8.306232, 0
1110, 3060079288, 0.9302415, -0.01728509, -0.3294616, 0.16065131, 1.6177559, 1.2875959, 7.68577, 0
1111, 3060095955, 0.9403316, -0.022788597, -0.2986277, 0.16149445, 3.0333405, 1.0468345, 7.1322994, 0
1112, 3060112622, 0.94940025, -0.028217766, -0.2667854, 0.16331047, 4.283961, 0.7552001, 6.262121, 0
1113, 3060129289, 0.95741, -0.030406015, -0.2335314, 0.16705288, 5.091147, 0.86804914, 5.1274014, 0
1114, 3060145956, 0.964367, -0.029338313, -0.199581, 0.1711866, 5.610209, 2.0250113, 3.5848446, 0
1115, 3060162623, 0.97019684, -0.027602905, -0.1665093, 0.1738761, 5.587867, 2.8037589, 2.0771322, 0
1116, 3060179290, 0.9748427, -0.027721351, -0.1352336, 0.17500666, 5.928029, 2.775044, 1.3526154, 0
1117, 3060195957, 0.97841537, -0.027583612, -0.10536775, 0.17561835, 6.119327, 1.6642815, 0.844409, 0
1118, 3060212624, 0.98101425, -0.025126792, -0.07654384, 0.17641594, 5.7778363, 1.0838315, 0.13090515, 0
1119, 3060229291, 0.9827961, -0.020393709, -0.04767974, 0.17726924, 6.016788, 1.257851, -0.26241112, 0
1120, 3060245958, 0.98384047, -0.015447771, -0.018642075, 0.17740823, 5.711791, 1.9268446, -0.9081173, 0
1121, 3060262625, 0.9843715, -0.013560904, 0.00940907, 0.1753345, 5.304978, 2.4899483, -1.6931381, 0
1122, 3060279292, 0.9844216, -0.017602567, 0.035103925, 0.1713879, 4.7606378, 2.445103, -2.5848832, 0
1123, 3060295959, 0.98386294, -0.027201135, 0.057904165, 0.16710114, 4.61298, 1.456716, -3.2949672, 0
1124, 3060312626, 0.9826172, -0.03863182, 0.07927702, 0.16336529, 5.1597533, 0.46378016, -3.9890852, 0
1125, 3060329293, 0.98070836, -0.04832216, 0.100412376, 0.16061006, 4.606868, -0.096319474, -4.879829, 0
1126, 3060345960, 0.9782826, -0.05603456, 0.12067532, 0.15894245, 3.3832273, -0.35233396, -5.683171, 0
1127, 3060362627, 0.9755796, -0.062399965, 0.13962688, 0.15766041, 2.6756008, -0.36380672, -6.6138783, 0
1128, 3060379294, 0.9726823, -0.068187945, 0.15694878, 0.15687086, 2.0757663, -0.66827613, -7.444236, 0
1129, 3060395961, 0.9696881, -0.073300704, 0.17249809, 0.15677509, 1.5566947, -1.1615252, -8.034015, 0
1130, 3060412628, 0.96675414, -0.07680774, 0.18597843, 0.15780021, 0.9187285, -1.7864482, -8.026049, 0
1131, 3060429295, 0.96417165, -0.076824315, 0.19733353, 0.1597879, 0.30456662, -1.9958556, -7.3794026, 0
1132, 3060445962, 0.96209264, -0.07298407, 0.20664375, 0.16233063, -0.1266639, -1.7106042, -6.54438, 0
1133, 3060462629, 0.9604426, -0.0673304, 0.21397378, 0.16502595, -0.66174054, -0.93415165, -5.767097, 0
1134, 3060479296, 0.9589813, -0.062625386, 0.21970867, 0.16781855, -0.9069779, 0.03912625, -5.2550306, 0
1135, 3060495963, 0.95754814, -0.060304075, 0.2247011, 0.17022374, -0.8678323, 0.4362836, -4.8261085, 0
1136, 3060512630, 0.9562436, -0.059905235, 0.2290236, 0.17192943, -1.2089936, 0.44741148, -4.223492, 0
1137, 3060529297, 0.95517325, -0.06020221, 0.23259075, 0.17298368, -1.3148109, 0.23912404, -3.7047133, 0
1138, 3060545964, 0.9543237, -0.060151685, 0.2357097, 0.1734668, -1.2336323, 0.11939621, -3.5032568, 0
1139, 3060562631, 0.9537505, -0.05984954, 0.23820083, 0.17332098, -1.2669411, 0.03138605, -3.365147, 0
1140, 3060579298, 0.9535134, -0.059551023, 0.2393941, 0.1730848, -1.2263378, -0.1157675, -3.0964437, 0
1141, 3060595965, 0.95356184, -0.05945529, 0.23919196, 0.17312984, -1.250482, -0.21600983, -2.734476, 0
1142, 3060612632, 0.9538494, -0.059083603, 0.23822106, 0.1730125, -0.7384664, -0.29206485, -2.3558626, 0
1143, 3060629299, 0.9542602, -0.05771049, 0.23706725, 0.17279406, -0.7099839, -0.009004834, -1.9060531, 0
1144, 3060645966, 0.9548081, -0.05606866, 0.2354924, 0.17246105, -0.7695092, 0.18397056, -1.6381893, 0
1145, 3060662633, 0.95529824, -0.055202268, 0.233736, 0.17241625, -0.52538943, 0.27064088, -1.6260986, 0
1146, 3060679300, 0.9556361, -0.055302605, 0.23197654, 0.17288701, -0.5375492, 0.27575544, -1.4623947, 0
1147, 3060695967, 0.9560183, -0.055872947, 0.2296591, 0.17368297, -0.79745525, 0.3786794, -1.2128258, 0
1148, 3060712634, 0.95658773, -0.05652452, 0.22681594, 0.17407273, -0.6740175, 0.33270863, -1.1420021, 0
1149, 3060729301, 0.9572868, -0.05685743, 0.2236286, 0.17424442, -0.49495804, 0.2349766, -1.1519995, 0
1150, 3060745968, 0.9580661, -0.05699742, 0.22014464, 0.17435223, -0.65534693, 0.43766913, -1.2388353, 0
1151, 3060762635, 0.9589292, -0.057355348, 0.21625978, 0.17435259, -0.6479293, 0.4737004, -1.4086771, 0
1152, 3060779302, 0.95986855, -0.05777532, 0.21213853, 0.17410791, -0.6455356, 0.54679483, -1.6473904, 0
1153, 3060795969, 0.960928, -0.058220617, 0.20778385, 0.17336506, -0.72346896, 0.4936588, -2.058113, 0
1154, 3060812636, 0.9621223, -0.05933294, 0.20290732, 0.17213586, -0.7883016, 0.5600637, -2.7872543, 0
1155, 3060829303, 0.9633928, -0.06214812, 0.19712703, 0.17074753, -0.61224884, 0.40179393, -3.7314143, 0
1156, 3060845970, 0.9646798, -0.06630151, 0.1902977, 0.16966334, -0.56362456, -0.123822935, -4.4367676, 0
1157, 3060862637, 0.96609944, -0.070298485, 0.18218574, 0.16887964, -0.7276864, -0.57459754, -4.937748, 0
1158, 3060879304, 0.967779, -0.07326814, 0.17285195, 0.16780785, -0.56109124, -0.71895134, -5.443333, 0
