DeviceTag:,Xsens DOT 2,,,,,,,,,,,,,,,,,
FirmwareVersion:,1.3.0,,,,,,,,,,,,,,,,,
AppVersion:,2020.1.1,,,,,,,,,,,,,,,,,
Measurement Mode:,Sensor fusion Mode - Extended (Quaternion),,,,,,,,,,,,,,,,,
StartTime:,2020-08-03 15:35:33.439 +0200,,,,,,,,,,,,,,,,,
© Xsens Technologies B. V. 2005-2020,,,,,,,,,,,,,,,,,,,
PacketCounter,SampleTimeFine,Quat_W,Quat_X,Quat_Y,Quat_Z,FreeAcc_X,FreeAcc_Y,FreeAcc_Z,Status
1, 4003017026, 0.84653884, -0.4115191, 0.060736492, -0.3321706, -0.015450277, -0.0103278635, 0.19695663, 0
2, 4003033693, 0.8463912, -0.41183212, 0.060801946, -0.332147, -0.015614782, 0.012993255, 0.11953449, 0
3, 4003050360, 0.8463484, -0.41198984, 0.06099612, -0.3320248, -0.025945943, -0.024815302, 0.18912888, 0
4, 4003067027, 0.84629583, -0.41216603, 0.061167337, -0.3319086, -0.03513663, -0.021424387, 0.14869404, 0
5, 4003083694, 0.8462441, -0.4123524, 0.061357476, -0.33177397, -0.018534476, -0.030499237, 0.16834354, 0
6, 4003100361, 0.8461996, -0.41246423, 0.061518468, -0.33171877, -0.033742353, -0.07528408, 0.19956112, 0
7, 4003117028, 0.8461257, -0.41263905, 0.061648, -0.33166537, 0.004586318, -0.04127815, 0.14690208, 0
8, 4003133695, 0.84599966, -0.41293815, 0.061804924, -0.33158574, 0.008019086, -0.056892764, 0.15350437, 0
9, 4003150362, 0.8458918, -0.41318998, 0.06192567, -0.3315249, -0.00847617, -0.078955725, 0.2053957, 0
10, 4003167029, 0.84580314, -0.41338682, 0.062043704, -0.33148322, 0.023092631, -0.060337324, 0.22331524, 0
11, 4003183696, 0.8457463, -0.41348913, 0.06210684, -0.33148903, 0.026142187, -0.009771093, 0.1966505, 0
12, 4003200363, 0.84566444, -0.41364372, 0.062213443, -0.33148512, 0.042957347, 0.0074635446, 0.20059681, 0
13, 4003217030, 0.8455795, -0.41377762, 0.062298175, -0.33151898, 0.04023127, -0.004071959, 0.1912489, 0
14, 4003233697, 0.84552217, -0.4138426, 0.062346734, -0.3315749, 0.038898353, -0.023247136, 0.26437664, 0
15, 4003250364, 0.84553146, -0.4138045, 0.062344134, -0.33159924, 0.072965354, 0.013176983, 0.23668289, 0
16, 4003267031, 0.84546936, -0.41373858, 0.06240915, -0.33182716, 0.053146575, 0.019172719, 0.22904396, 0
17, 4003283698, 0.84544355, -0.413772, 0.06243922, -0.33184576, 0.061196283, -0.018425962, 0.23455334, 0
18, 4003300365, 0.8462456, -0.41381526, 0.061494906, -0.3299182, 0.04657345, -0.023201538, 0.19507694, 0
19, 4003317032, 0.8472334, -0.4138855, 0.060310528, -0.32750475, 0.027359383, -0.009815125, 0.22297287, 0
20, 4003333699, 0.84663016, -0.41363683, 0.06112337, -0.32922384, 0.010996893, -0.039161034, 0.21460342, 0
21, 4003350366, 0.8466294, -0.41354734, 0.06124574, -0.32931513, 0.02415605, -0.05558365, 0.1679964, 0
22, 4003367033, 0.8464085, -0.41346356, 0.0616608, -0.32991022, -0.022365488, -0.057410643, 0.12867832, 0
23, 4003383700, 0.8461425, -0.41341117, 0.06213223, -0.3305694, -0.029227393, -0.105237275, 0.16287136, 0
24, 4003400367, 0.8461771, -0.41344237, 0.06222105, -0.33042517, -0.061681528, -0.11561453, 0.19296265, 0
25, 4003417034, 0.84604895, -0.41355035, 0.06252444, -0.3305605, -0.06584496, -0.13161181, 0.20920277, 0
26, 4003433701, 0.84609145, -0.41392776, 0.06260639, -0.32996354, -0.09404615, -0.13307068, 0.29804134, 0
27, 4003450368, 0.84566647, -0.4145033, 0.06332685, -0.33019292, -0.12475532, -0.15079927, 0.35049725, 0
28, 4003467035, 0.8448458, -0.41508526, 0.064807706, -0.33127362, -0.051980842, -0.14247185, 0.42207718, 0
29, 4003483702, 0.84463066, -0.41551796, 0.06578057, -0.33108768, 0.036411155, 0.015660658, 0.3394699, 0
30, 4003500369, 0.8443286, -0.41576865, 0.067080535, -0.33128276, 0.021837663, -0.023047091, 0.32945633, 0
31, 4003517036, 0.8445136, -0.4155016, 0.06815252, -0.33092764, 0.12381902, -0.12256467, 0.3596487, 0
32, 4003533703, 0.8454336, -0.41455558, 0.06876744, -0.32963464, 0.2523981, 0.008960411, 0.23974228, 0
33, 4003550370, 0.8461634, -0.4134568, 0.06988291, -0.32890674, 0.2796351, 0.018389082, 0.30527782, 0
34, 4003567037, 0.84682053, -0.41205266, 0.07121767, -0.32869133, 0.25560316, -0.050647367, 0.33800602, 0
35, 4003583704, 0.84755206, -0.4104971, 0.07233162, -0.32850918, 0.32798505, 0.015499506, 0.20258427, 0
36, 4003600371, 0.8485046, -0.40926534, 0.07296052, -0.32744625, 0.4022925, 0.09275385, 0.29981804, 0
37, 4003617038, 0.8487346, -0.4084215, 0.074251115, -0.32761368, 0.418764, 0.036785986, 0.46156502, 0
38, 4003633705, 0.8489926, -0.40789223, 0.07532053, -0.32735997, 0.49470437, -0.011123346, 0.6263037, 0
39, 4003650372, 0.8494092, -0.4072732, 0.07620324, -0.32684517, 0.5232535, -0.17896123, 0.66246986, 0
40, 4003667039, 0.8498609, -0.40660504, 0.07703487, -0.32630754, 0.53866947, -0.2595095, 0.53180027, 0
41, 4003683706, 0.85044694, -0.405709, 0.07740478, -0.32580805, 0.46587542, -0.34033513, 0.21923923, 0
42, 4003700373, 0.85121703, -0.40465567, 0.0773312, -0.32512406, 0.51705074, -0.17798829, 0.01951027, 0
43, 4003717040, 0.85205895, -0.40364385, 0.07699377, -0.3242552, 0.293655, -0.06267437, -0.26188183, 0
44, 4003733707, 0.85276526, -0.40293303, 0.07670432, -0.3233498, 0.18873718, 0.06965468, -0.4814253, 0
45, 4003750374, 0.8535864, -0.4021847, 0.07646777, -0.3221688, 0.051192626, 0.15438196, -0.5221958, 0
46, 4003767041, 0.8541717, -0.4020581, 0.07665079, -0.3207292, -0.19594347, 0.099649675, -0.61269474, 0
47, 4003783708, 0.8546991, -0.40234682, 0.07714372, -0.3188382, -0.40072268, 0.04559888, -0.5292711, 0
48, 4003800375, 0.8554452, -0.40242192, 0.0776877, -0.3166024, -0.63561887, 0.0010632512, -0.58769035, 0
49, 4003817042, 0.8565981, -0.4018688, 0.077807255, -0.31414923, -0.8355391, 0.18017738, -0.68811893, 0
50, 4003833709, 0.8578603, -0.40119177, 0.07767469, -0.31159213, -0.85812306, 0.1486274, -0.4801998, 0
51, 4003850376, 0.85920197, -0.4002443, 0.07756834, -0.30913082, -0.6569402, 0.011690845, -0.33861256, 0
52, 4003867043, 0.8606332, -0.39910042, 0.077649355, -0.3065979, -0.57818556, -0.031996552, -0.20209503, 0
53, 4003883710, 0.86199605, -0.3978954, 0.07807008, -0.30421942, -0.49904865, -0.14208652, -0.24877834, 0
54, 4003900377, 0.8630973, -0.39715052, 0.07901446, -0.3018172, -0.5793551, -0.38780504, 0.02936554, 0
55, 4003917044, 0.8641902, -0.3962044, 0.080421686, -0.2995529, -0.47134742, -0.6506102, 0.30223083, 0
56, 4003933711, 0.86529, -0.39507043, 0.08234657, -0.29734492, -0.54592115, -0.7057021, 0.25062847, 0
57, 4003950378, 0.8664654, -0.3937553, 0.084314056, -0.29510683, -0.7754053, -0.46121854, 0.26747417, 0
58, 4003967045, 0.86738056, -0.39294845, 0.08630501, -0.29290995, -0.55427426, -0.2260724, 0.15437222, 0
59, 4003983712, 0.8682485, -0.3921081, 0.08809873, -0.29092413, -0.25370994, -0.021516697, 0.17686749, 0
60, 4004000379, 0.86902624, -0.39162612, 0.08960904, -0.28878176, -0.17656724, -0.31552207, 0.4869175, 0
61, 4004017046, 0.8699936, -0.39099082, 0.091099605, -0.2862524, 0.15790397, -0.70808727, 0.55168915, 0
62, 4004033713, 0.8715728, -0.38901174, 0.092367135, -0.28372803, 0.23215592, -0.6468807, 0.4177475, 0
63, 4004050380, 0.87351257, -0.38619953, 0.09324647, -0.28130665, 0.22056577, -0.49345893, 0.4019184, 0
64, 4004067047, 0.8756361, -0.3827712, 0.093336314, -0.27935302, 0.3980317, 0.026457228, 0.1621666, 0
65, 4004083714, 0.87750465, -0.37985253, 0.09232506, -0.2778055, 0.5272122, 0.43194348, 0.13728237, 0
66, 4004100381, 0.8787627, -0.37847137, 0.09075074, -0.27622825, 0.5395944, 0.32194492, 0.1408081, 0
67, 4004117048, 0.8802103, -0.37672442, 0.08874985, -0.27465338, 0.38644603, 0.10028333, 0.35639286, 0
68, 4004133715, 0.8821634, -0.37374339, 0.08575312, -0.27340817, 0.15780495, 0.13200273, 0.3885584, 0
69, 4004150382, 0.8844501, -0.36984047, 0.0814257, -0.27265048, 0.23685494, 0.25450483, 0.2945633, 0
70, 4004167049, 0.8866991, -0.36588034, 0.07607796, -0.27223256, 0.4187775, 0.20682593, 0.41060734, 0
71, 4004183716, 0.88906837, -0.36126956, 0.07042814, -0.2721835, 0.4862192, 0.031094229, 0.3467741, 0
72, 4004200383, 0.8915497, -0.35616678, 0.06497933, -0.272148, 0.33900076, -0.089709386, 0.50922585, 0
73, 4004217050, 0.8940692, -0.35058403, 0.05954574, -0.27237403, 0.14019509, 0.2743807, 0.2320795, 0
74, 4004233717, 0.8961642, -0.34557956, 0.054197125, -0.2730009, 0.09496032, 0.7512293, -0.17168045, 0
75, 4004250384, 0.8975164, -0.34200093, 0.04906492, -0.2740337, 0.09539611, 0.729325, -0.08852291, 0
76, 4004267051, 0.89828783, -0.33954185, 0.04429452, -0.2753733, 0.20405409, 0.22238176, 0.30850506, 0
77, 4004283718, 0.89899695, -0.336927, 0.04015617, -0.27690136, 0.3655838, -0.17159536, 0.6390543, 0
78, 4004300385, 0.89971846, -0.33388683, 0.036720064, -0.27871153, 0.14576785, -0.096087776, 0.5130625, 0
79, 4004317052, 0.90022236, -0.3313423, 0.033910226, -0.28047195, 0.07776521, 0.31010813, 0.22679996, 0
80, 4004333719, 0.900524, -0.3292342, 0.03160215, -0.2822494, 0.07857562, 0.35362902, -0.05243969, 0
81, 4004350386, 0.90070397, -0.3271577, 0.029653315, -0.28429374, 0.055900756, -0.06357178, 0.2582922, 0
82, 4004367053, 0.9008372, -0.32518977, 0.028141057, -0.28627628, 0.087448776, -0.3794385, 0.7494736, 0
83, 4004383720, 0.90131676, -0.3226077, 0.027005555, -0.28779367, -0.05519194, -0.16535868, 0.64927006, 0
84, 4004400387, 0.9017816, -0.3204526, 0.026031783, -0.28883338, -0.3615454, 0.19069009, 0.23099995, 0
85, 4004417054, 0.90181464, -0.31978625, 0.025139533, -0.28954715, -0.47185016, 0.45374292, 0.17206001, 0
86, 4004433721, 0.9017448, -0.31943122, 0.023999, -0.29025236, -0.46643117, 0.16184103, 0.34439468, 0
87, 4004450388, 0.9018268, -0.31855187, 0.022330517, -0.29109603, -0.31468225, -0.06003245, 0.5623932, 0
88, 4004467055, 0.9020631, -0.3173487, 0.020000685, -0.29184675, -0.14703366, -0.13155638, 0.48785305, 0
89, 4004483722, 0.9021488, -0.3170484, 0.017788595, -0.29205087, 0.18586895, -0.0991794, 0.5377798, 0
90, 4004500389, 0.90208673, -0.3176055, 0.016347716, -0.29172158, 0.25090325, -0.49712723, 0.7178364, 0
91, 4004517056, 0.9018591, -0.3187045, 0.015647817, -0.29126433, 0.23002374, -0.35380915, 0.7635994, 0
92, 4004533723, 0.90143615, -0.32025203, 0.015224093, -0.29089865, 0.028352646, -0.11175849, 0.6798172, 0
93, 4004550390, 0.9009571, -0.3217775, 0.014700311, -0.29072613, -0.22858669, -0.17123753, 0.53241634, 0
94, 4004567057, 0.9004603, -0.32296577, 0.013606091, -0.29100105, -0.20087117, -0.14261289, 0.24745846, 0
95, 4004583724, 0.8996917, -0.324537, 0.012105882, -0.29169565, 0.09294547, -0.21780197, 0.06141472, 0
96, 4004600391, 0.8986596, -0.32674304, 0.010588607, -0.2924725, 0.33773032, -0.4778329, 0.22443104, 0
97, 4004617058, 0.897659, -0.32894912, 0.009152576, -0.29312003, 0.23066153, -0.73887753, 0.26807594, 0
98, 4004633725, 0.89668334, -0.33138317, 0.008032566, -0.29339722, 0.29605344, -0.80329996, 0.2095108, 0
99, 4004650392, 0.89578, -0.333805, 0.007261385, -0.29343152, 0.42589855, -0.806622, 0.100250244, 0
100, 4004667059, 0.8952795, -0.33511585, 0.0066844174, -0.29347837, 0.20470077, -0.92182755, 0.49560928, 0
101, 4004683726, 0.8951033, -0.3351528, 0.005957481, -0.29398894, 0.022402333, -1.00532, 0.13634872, 0
102, 4004700393, 0.8947343, -0.33558652, 0.00522613, -0.29463077, 0.2927571, -0.6577072, -0.23125744, 0
103, 4004717060, 0.8940786, -0.33719203, 0.0047784825, -0.2947959, 0.28239825, -0.66092443, -0.09795952, 0
104, 4004733727, 0.89310986, -0.33981118, 0.0048156944, -0.2947241, 0.14798072, -0.7288648, 0.11524391, 0
105, 4004750394, 0.89235044, -0.34184247, 0.0049765324, -0.2946727, 0.04984909, -0.45354667, 0.15892601, 0
106, 4004767061, 0.89157677, -0.3437251, 0.0051682782, -0.29482144, 0.004318459, -0.2712781, 0.008867264, 0
107, 4004783728, 0.89044565, -0.34556234, 0.005138434, -0.29608953, 0.2301482, -0.33204302, -0.31334305, 0
108, 4004800395, 0.88872886, -0.3487424, 0.005198849, -0.29751477, 0.011314379, -1.0909115, 0.11374664, 0
109, 4004817062, 0.8881283, -0.34940577, 0.00495743, -0.29853246, 0.1854036, -1.7981071, 0.8057976, 0
110, 4004833729, 0.8889623, -0.3465935, 0.004608785, -0.2993323, 0.3839536, -1.6447988, 0.94293594, 0
111, 4004850396, 0.8899413, -0.34310502, 0.0048587625, -0.30043638, 0.6551012, -1.191221, 0.49498844, 0
112, 4004867063, 0.8907544, -0.33995545, 0.005024898, -0.30160204, 0.96347696, -0.4109869, -0.10905838, 0
113, 4004883730, 0.89068496, -0.33953062, 0.005506431, -0.3022767, 1.0745443, -0.50200695, -0.2502327, 0
114, 4004900397, 0.8901697, -0.34067205, 0.0067940457, -0.30248427, 1.0016053, -1.0439909, 0.39238167, 0
115, 4004917064, 0.88967174, -0.34175044, 0.008828773, -0.3026796, 1.0326809, -1.3682127, 0.63521004, 0
116, 4004933731, 0.889256, -0.34248763, 0.0116972495, -0.30297112, 1.2050884, -1.1652231, 0.62252045, 0
117, 4004950398, 0.8891038, -0.3422529, 0.014638428, -0.30355465, 1.2391951, -0.9252869, 0.44766808, 0
118, 4004967065, 0.88875514, -0.34209213, 0.01744477, -0.30460647, 1.3506018, -0.78377163, -0.107616425, 0
119, 4004983732, 0.8879429, -0.34321445, 0.020395026, -0.305528, 1.3793207, -0.86455214, -0.04063034, 0
120, 4005000399, 0.8871518, -0.34459972, 0.023441428, -0.30604827, 1.2208796, -1.0422087, 0.2545786, 0
121, 4005017066, 0.88635015, -0.3458981, 0.026546296, -0.30665234, 1.3097262, -1.0800828, 0.06371403, 0
122, 4005033733, 0.88517725, -0.34798652, 0.029995218, -0.3073582, 1.4935, -1.1105814, 0.026967049, 0
123, 4005050400, 0.88390684, -0.3502306, 0.033768572, -0.30807355, 1.3904449, -1.2888664, 0.26692867, 0
124, 4005067067, 0.8830231, -0.35136482, 0.03742418, -0.3088932, 1.1152248, -1.2101275, 0.5354624, 0
125, 4005083734, 0.8824174, -0.35105124, 0.04074837, -0.31055522, 1.0847582, -1.0022637, 0.33501625, 0
126, 4005100401, 0.88159, -0.35056525, 0.043841053, -0.31302282, 1.1459024, -0.84107727, 0.25291252, 0
127, 4005117068, 0.88059527, -0.35003534, 0.04674655, -0.31598133, 1.1509297, -0.8601449, 0.27787304, 0
128, 4005133735, 0.87972695, -0.34924278, 0.04940077, -0.31886008, 0.87470347, -0.9708502, 0.3452673, 0
129, 4005150402, 0.8788196, -0.34769306, 0.05193809, -0.32263052, 0.69670606, -0.98355824, 0.38283825, 0
130, 4005167069, 0.87795764, -0.34537768, 0.05410297, -0.32707778, 0.614892, -0.8909629, 0.23410034, 0
131, 4005183736, 0.87701494, -0.34266803, 0.0559004, -0.33211562, 0.45355645, -0.8500759, 0.33129692, 0
132, 4005200403, 0.876111, -0.33909443, 0.057295024, -0.33788165, 0.3529077, -0.8262521, 0.4183197, 0
133, 4005217070, 0.87526643, -0.33478746, 0.058360457, -0.34412572, 0.42638394, -0.67426234, 0.34796238, 0
134, 4005233737, 0.8742694, -0.33046234, 0.05924153, -0.35062823, 0.5193571, -0.45379522, 0.14472294, 0
135, 4005250404, 0.872967, -0.32669532, 0.060103647, -0.35719532, 0.4497814, -0.1233445, 0.018912315, 0
136, 4005267071, 0.8713526, -0.32340774, 0.06074466, -0.3639567, 0.3635307, 0.06670677, -0.030719757, 0
137, 4005283738, 0.86957514, -0.32009527, 0.06113171, -0.3710032, 0.22403604, 0.0117762275, 0.16130352, 0
138, 4005300405, 0.8677071, -0.3163739, 0.061344437, -0.37845933, 0.035941944, -0.05977072, 0.21438313, 0
139, 4005317072, 0.8657777, -0.31215224, 0.06161029, -0.3862593, 0.033093944, -0.103577465, 0.056385994, 0
140, 4005333739, 0.86375064, -0.30753693, 0.06180739, -0.39438292, 0.14244358, -0.0021792513, -0.048119545, 0
141, 4005350406, 0.86154693, -0.30247828, 0.062050607, -0.40298364, 0.449104, -0.12062637, -0.009027481, 0
142, 4005367073, 0.8592314, -0.2971181, 0.06223378, -0.41179052, 0.549447, 0.23128115, -0.097076416, 0
143, 4005383740, 0.8563794, -0.2930716, 0.06261465, -0.42048204, 0.57687765, 0.5679697, -0.37843513, 0
144, 4005400407, 0.8529378, -0.29088873, 0.06345388, -0.42878535, 0.4831756, 0.5186163, -0.47992706, 0
145, 4005417074, 0.84919804, -0.28995848, 0.064838335, -0.4365604, 0.28435224, 0.17009135, -0.39887142, 0
146, 4005433741, 0.8455027, -0.28898355, 0.06665038, -0.44404268, 0.15242606, 0.0719287, -0.1664238, 0
147, 4005450408, 0.841838, -0.28731376, 0.068991505, -0.45166612, 0.3739489, -0.2037752, 0.17210674, 0
148, 4005467075, 0.8379569, -0.2853875, 0.07219262, -0.45953542, 0.65494543, -0.15068394, 0.036943436, 0
149, 4005483742, 0.8338201, -0.28400278, 0.07639066, -0.46717584, 0.93738616, 0.20548016, -0.20238304, 0
150, 4005500409, 0.82928705, -0.28295943, 0.081610866, -0.47493058, 1.0200292, 0.32745475, -0.20301342, 0
151, 4005517076, 0.8239155, -0.28228042, 0.088038445, -0.483459, 0.91539663, 0.26618248, -0.098246574, 0
152, 4005533743, 0.8177065, -0.28153393, 0.0951041, -0.49300325, 0.7805314, 0.33219457, -0.117723465, 0
153, 4005550410, 0.8107978, -0.28033653, 0.102337874, -0.50353503, 0.5837229, 0.23614189, -0.033057213, 0
154, 4005567077, 0.80323255, -0.27820057, 0.10953493, -0.5151954, 0.5934369, 0.2753483, -0.075725555, 0
155, 4005583744, 0.794732, -0.27558464, 0.116928294, -0.52800024, 0.6049813, 0.34370592, -0.07944298, 0
156, 4005600411, 0.7850274, -0.27256244, 0.12493827, -0.542065, 0.55748516, 0.331465, -0.012460709, 0
157, 4005617078, 0.7739005, -0.2688823, 0.13335863, -0.55767196, 0.4214535, 0.32889172, 0.027639389, 0
158, 4005633745, 0.76127064, -0.26441866, 0.14186127, -0.5748282, 0.2923983, 0.44675076, -0.062487602, 0
159, 4005650412, 0.747082, -0.25916383, 0.1502296, -0.5934106, 0.2631646, 0.5432904, -0.15016556, 0
160, 4005667079, 0.73133767, -0.25298104, 0.15842353, -0.6132291, 0.3929893, 0.6816917, -0.2759056, 0
161, 4005683746, 0.71395075, -0.24636512, 0.16619597, -0.634003, 0.47690585, 0.91899186, -0.46285725, 0
162, 4005700413, 0.69474006, -0.24059846, 0.17405653, -0.65509945, 0.2845609, 0.87534857, -0.6257343, 0
163, 4005717080, 0.6743386, -0.23497055, 0.18157646, -0.6760833, 0.11077727, 0.7506354, -0.61093044, 0
164, 4005733747, 0.6531619, -0.22942026, 0.1889202, -0.6964605, -0.42886135, 0.66718894, -0.3373003, 0
165, 4005750414, 0.6313868, -0.22328328, 0.19616827, -0.7162511, -1.0795785, 0.5463666, 0.17549896, 0
166, 4005767081, 0.609173, -0.21565524, 0.2028647, -0.73569655, -0.95587873, 0.9603511, 0.23132896, 0
167, 4005783748, 0.5868058, -0.20649989, 0.20802338, -0.75481474, -0.49726033, 1.4432129, 0.18336868, 0
168, 4005800415, 0.5643465, -0.19728963, 0.21320398, -0.77274597, -0.8854976, 1.650027, 0.32365322, 0
169, 4005817082, 0.54233795, -0.18718483, 0.21740371, -0.7896641, -1.2316533, 1.633939, 0.56756306, 0
170, 4005833749, 0.520994, -0.17686452, 0.22092804, -0.8052808, -1.2487499, 1.7617714, 0.3340702, 0
171, 4005850416, 0.50053215, -0.16680901, 0.22425117, -0.8193632, -0.88087296, 1.8194733, 0.3060007, 0
172, 4005867083, 0.4811416, -0.1578175, 0.22827592, -0.83155805, -0.9773343, 1.8548435, 0.4625206, 0
173, 4005883750, 0.46268696, -0.14923468, 0.2328458, -0.8422796, -1.4433019, 1.7189459, 0.7400656, 0
174, 4005900417, 0.4453626, -0.14013724, 0.23645788, -0.85211736, -1.6567155, 1.8895774, 0.7905607, 0
175, 4005917084, 0.42947015, -0.13090771, 0.23865095, -0.8610844, -1.4189944, 1.9212418, 0.5362148, 0
176, 4005933751, 0.4149999, -0.121993236, 0.24010062, -0.86904925, -1.2902561, 1.7882754, 0.42138863, 0
177, 4005950418, 0.40187716, -0.11360746, 0.24185845, -0.8758395, -1.3140043, 1.6932323, 0.7154398, 0
178, 4005967085, 0.39012057, -0.105473384, 0.24350859, -0.8816956, -1.3378915, 1.673029, 0.9944496, 0
179, 4005983752, 0.37978533, -0.097690575, 0.24526584, -0.8866039, -1.2584945, 1.4520416, 0.9540968, 0
180, 4006000419, 0.3706853, -0.090985656, 0.24817134, -0.89035225, -0.513423, 1.0913382, 0.33386326, 0
181, 4006017086, 0.36242068, -0.08617492, 0.2523119, -0.8930655, -0.31854665, 0.8934682, -0.024228096, 0
182, 4006033753, 0.35503277, -0.08304458, 0.25651848, -0.8951289, -0.63895535, 0.87086344, -0.09228802, 0
183, 4006050420, 0.34831697, -0.080461495, 0.2591222, -0.89725095, -1.2022121, 1.0715551, 0.2839527, 0
184, 4006067087, 0.34202838, -0.07775367, 0.2591385, -0.8999004, -1.6054281, 0.9829781, 0.75236034, 0
185, 4006083754, 0.3359406, -0.07503479, 0.2574825, -0.90289474, -1.5221552, 0.70820576, 0.5975437, 0
186, 4006100421, 0.33039838, -0.073912635, 0.25621185, -0.90539026, -0.76673913, 0.28341976, -0.04434204, 0
187, 4006117088, 0.32548764, -0.075342916, 0.25684956, -0.9068692, -0.86346966, 0.112096444, -0.5768862, 0
188, 4006133755, 0.32079214, -0.07893845, 0.25936761, -0.9075195, -1.5927371, 0.38371357, -0.30056667, 0
189, 4006150422, 0.31592068, -0.08379332, 0.26182765, -0.90808666, -2.0215337, 0.49765858, 0.13334846, 0
190, 4006167089, 0.31064844, -0.08948047, 0.26327568, -0.90894383, -2.2363648, 0.4911191, 0.31749249, 0
191, 4006183756, 0.30518526, -0.096062414, 0.26356462, -0.9100384, -1.9940715, 0.03072824, 0.3486023, 0
192, 4006200423, 0.29940388, -0.104195595, 0.2638748, -0.91097367, -1.6665634, -0.11340289, -0.09999943, 0
193, 4006217090, 0.2932509, -0.11398799, 0.26472685, -0.91155493, -1.5968828, -0.1869983, 0.15754128, 0
194, 4006233757, 0.28663632, -0.124472216, 0.26493692, -0.9122264, -1.6129283, -0.17781386, 0.35141945, 0
195, 4006250424, 0.27965793, -0.13443089, 0.26399374, -0.9132522, -1.544677, -0.22793214, 0.62953186, 0
196, 4006267091, 0.27269724, -0.14295681, 0.26141363, -0.914803, -1.2117738, -0.2551274, 1.0129833, 0
197, 4006283758, 0.26546514, -0.15068966, 0.2586906, -0.9164618, -0.60694647, -0.0018531459, 0.66022396, 0
198, 4006300425, 0.25800386, -0.1596178, 0.25674847, -0.9176267, 0.7384838, -0.24129632, -0.43709564, 0
199, 4006317092, 0.25008544, -0.17032933, 0.25731182, -0.91773534, 0.6061178, -0.21184787, -0.5855379, 0
200, 4006333759, 0.24219353, -0.18125437, 0.25962967, -0.9171064, -0.24773645, -0.10363888, 0.9554653, 0
201, 4006350426, 0.23524201, -0.19077727, 0.26153457, -0.91644275, -0.5001823, 0.10387521, 1.5577993, 0
202, 4006367093, 0.22966203, -0.19894715, 0.2620637, -0.9159695, 0.2628172, -0.07100333, 0.587965, 0
203, 4006383760, 0.22483188, -0.2073574, 0.26356035, -0.91487265, 0.78397244, -0.3666483, -0.19745922, 0
204, 4006400427, 0.22050193, -0.21594949, 0.2661675, -0.91318226, 0.67329824, -0.07136003, -0.03317833, 0
205, 4006417094, 0.21675889, -0.22328892, 0.26769337, -0.9118663, 0.41798985, 0.0016364501, 0.6075678, 0
206, 4006433761, 0.21334787, -0.2293762, 0.26759952, -0.9111871, 0.2873143, -0.021799833, 0.50033, 0
207, 4006450428, 0.21015014, -0.23420589, 0.26684365, -0.9109233, 0.060175724, -0.06970159, 0.2853098, 0
208, 4006467095, 0.20764591, -0.23807, 0.26579547, -0.91080236, 0.029120497, -0.045624834, 0.37741947, 0
209, 4006483762, 0.20571394, -0.2411417, 0.26478025, -0.91072834, -0.033446256, -0.12411177, 0.40290737, 0
210, 4006500429, 0.20401524, -0.24372496, 0.26421314, -0.91058743, -0.10425633, -0.24378642, 0.22760773, 0
211, 4006517096, 0.20241347, -0.24594569, 0.26420534, -0.9103501, 0.018133383, -0.14256378, 0.030873299, 0
212, 4006533763, 0.20087129, -0.24786295, 0.2649044, -0.9099685, 0.053241793, -0.02002472, -0.10090637, 0
213, 4006550430, 0.19928119, -0.24937744, 0.26560274, -0.9097009, 0.057138853, -0.03336702, -0.12344074, 0
214, 4006567097, 0.19747245, -0.25067452, 0.26644048, -0.9094936, -0.08342012, -0.20717324, -0.083024025, 0
215, 4006583764, 0.19560328, -0.25182298, 0.26742527, -0.90929127, -0.16437338, -0.30611703, -0.06100273, 0
216, 4006600431, 0.19370258, -0.25296974, 0.26887506, -0.90895224, -0.12061508, -0.27701104, -0.20262623, 0
217, 4006617098, 0.19169927, -0.25406486, 0.2708187, -0.9084943, -0.07826105, -0.10947212, 0.03499031, 0
218, 4006633765, 0.1899118, -0.2549926, 0.27245045, -0.90812176, -0.12289608, 0.09969689, 0.28415108, 0
219, 4006650432, 0.18849161, -0.25561807, 0.2734892, -0.90792954, -0.23330416, 0.0097823795, 0.3121767, 0
220, 4006667099, 0.18714198, -0.2559254, 0.27455154, -0.90780157, -0.30387878, 0.056477085, 0.18415928, 0
221, 4006683766, 0.18601164, -0.25592735, 0.27547282, -0.9077542, -0.25094682, 0.1835214, 0.39155197, 0
222, 4006700433, 0.18520316, -0.25557816, 0.27613077, -0.907818, -0.20730273, 0.21171974, 0.5769453, 0
223, 4006717100, 0.18477586, -0.2550177, 0.27669597, -0.90789074, -0.064413026, 0.23081906, 0.53930664, 0
224, 4006733767, 0.18468508, -0.25443944, 0.27742916, -0.90784764, -0.06509413, 0.18037884, 0.4277954, 0
225, 4006750434, 0.1846192, -0.25404742, 0.27840918, -0.9076708, -0.10254819, 0.16566949, 0.3821268, 0
226, 4006767101, 0.18453562, -0.25397223, 0.27933952, -0.90742296, -0.013580983, 0.15562746, 0.42966843, 0
227, 4006783768, 0.18448038, -0.25428355, 0.2798325, -0.90719503, -0.09050096, 0.17378512, 0.29783916, 0
228, 4006800435, 0.18442032, -0.25477883, 0.27992356, -0.9070403, -0.17489101, -0.08611957, 0.14311695, 0
229, 4006817102, 0.18415658, -0.25554854, 0.27993014, -0.9068752, -0.4242264, -0.11616837, 0.09224129, 0
230, 4006833769, 0.18406665, -0.25636953, 0.2794235, -0.9068182, -0.40197033, 0.024136772, 0.53450966, 0
231, 4006850436, 0.18423884, -0.25697985, 0.27799702, -0.90704864, -0.3101315, 0.07170893, 0.5671587, 0
232, 4006867103, 0.18431357, -0.25747573, 0.27643323, -0.9073707, -0.18675256, -0.06611038, 0.34020805, 0
233, 4006883770, 0.18415824, -0.25814193, 0.27530766, -0.90755516, -0.09149894, -0.08701692, 0.22934914, 0
234, 4006900437, 0.18378194, -0.2591225, 0.27467546, -0.9075435, -0.10767239, -0.016197732, 0.32011414, 0
235, 4006917104, 0.18321633, -0.26023793, 0.2742362, -0.90747154, -0.11750389, 0.12961844, 0.34289265, 0
236, 4006933771, 0.18261726, -0.26139715, 0.2739168, -0.9073558, -0.06926169, 0.20292929, 0.19415283, 0
237, 4006950438, 0.18207042, -0.26256147, 0.2734049, -0.9072837, 0.033174127, 0.18172257, 0.17759895, 0
238, 4006967105, 0.1817018, -0.26367113, 0.27259296, -0.9072801, 0.094096325, 0.26139662, 0.2653017, 0
239, 4006983772, 0.18154156, -0.26457128, 0.27142408, -0.90740067, 0.09480671, 0.26310387, 0.16747189, 0
240, 4007000439, 0.18145998, -0.2653499, 0.27029556, -0.90752643, 0.15916368, 0.12533578, -0.0778141, 0
241, 4007017106, 0.18143947, -0.26642904, 0.26951107, -0.9074477, 0.24852712, 0.026210861, -0.21912956, 0
242, 4007033773, 0.18131286, -0.2676199, 0.26918307, -0.9072199, 0.122127704, 0.20460066, -0.09043121, 0
243, 4007050440, 0.18116024, -0.2687885, 0.26870131, -0.9070476, 0.1372512, 0.24041824, -0.13533974, 0
244, 4007067107, 0.18089062, -0.27005374, 0.2682469, -0.9068602, 0.17303278, 0.09322706, -0.3222456, 0
245, 4007083774, 0.1803241, -0.2716116, 0.2683289, -0.9064834, 0.15450637, 0.043038286, -0.5102577, 0
246, 4007100441, 0.17946465, -0.2735596, 0.26865435, -0.90597177, 0.22467634, 0.05710851, -0.5474024, 0
247, 4007117108, 0.17814949, -0.27600566, 0.26913297, -0.90534705, 0.07709442, 0.20633204, -0.5416107, 0
248, 4007133775, 0.17650354, -0.2787249, 0.2696806, -0.9046733, -0.15380326, 0.25373235, -0.32549763, 0
249, 4007150442, 0.17474255, -0.28134838, 0.2698872, -0.9041412, -0.22226715, 0.19074926, -0.11898804, 0
250, 4007167109, 0.17301412, -0.28382224, 0.26946625, -0.9038259, -0.22979361, 0.051844753, -0.21380138, 0
251, 4007183776, 0.17119364, -0.2860074, 0.26913273, -0.90358305, -0.4026343, 0.16440158, 0.03214264, 0
252, 4007200443, 0.1696711, -0.28762496, 0.26842606, -0.90356696, -0.2898823, 0.23934916, 0.44852352, 0
253, 4007217110, 0.16829284, -0.28886202, 0.26737794, -0.90374094, -0.106811926, 0.15451045, 0.13311386, 0
254, 4007233777, 0.16680567, -0.29012862, 0.2667912, -0.9037842, -0.0043580835, -0.115457684, -0.25937843, 0
255, 4007250444, 0.16526043, -0.29163295, 0.26676252, -0.90359247, 0.06864801, -0.008059765, -0.09496498, 0
256, 4007267111, 0.16376293, -0.29315093, 0.26668155, -0.9033977, -0.08310374, 0.21773903, 0.27817726, 0
257, 4007283778, 0.1625781, -0.29443768, 0.266003, -0.9033933, -0.040806927, 0.0751538, 0.36480618, 0
258, 4007300445, 0.16160415, -0.29572448, 0.2649527, -0.90345645, 0.09307046, -0.24736921, 0.027358055, 0
259, 4007317112, 0.16057229, -0.29704422, 0.26469845, -0.90328187, -0.042706005, -0.11184412, 0.20778942, 0
260, 4007333779, 0.15968339, -0.29804903, 0.2645238, -0.90315956, -0.09459518, 0.18140009, 0.4230652, 0
261, 4007350446, 0.15898784, -0.2987284, 0.26362255, -0.9033215, 0.08697627, 0.19513947, 0.2669897, 0
262, 4007367113, 0.15828675, -0.29934725, 0.26284543, -0.90346605, 0.10910206, 0.12477728, 0.109241486, 0
263, 4007383780, 0.15756153, -0.2998022, 0.26239502, -0.90357304, 0.07183458, 0.13738288, 0.17979145, 0
264, 4007400447, 0.15678631, -0.29999855, 0.26189473, -0.9037878, 0.063097455, 0.1295767, 0.3540945, 0
265, 4007417114, 0.15621886, -0.29989657, 0.2613037, -0.90409106, 0.01991277, 0.24500903, 0.494318, 0
266, 4007433781, 0.15588842, -0.29940835, 0.26047426, -0.904549, 0.01967931, 0.1579291, 0.52684784, 0
267, 4007450448, 0.15558277, -0.29874077, 0.26007658, -0.90493673, 0.015946308, 0.08611502, 0.3927641, 0
268, 4007467115, 0.15537888, -0.29795298, 0.26003683, -0.9052428, -0.027557751, 0.08766765, 0.38237, 0
269, 4007483782, 0.15535536, -0.29707757, 0.26008803, -0.90551984, -0.031131862, 0.17745264, 0.4165764, 0
270, 4007500449, 0.15557598, -0.29625168, 0.2599412, -0.9057947, 0.027966723, 0.079826005, 0.25293446, 0
271, 4007517116, 0.15586585, -0.29548857, 0.259785, -0.90603894, 0.0057123764, -0.071585275, 0.22624493, 0
272, 4007533783, 0.1560652, -0.2948555, 0.25976393, -0.90621674, 0.039374266, -0.02611869, 0.31606865, 0
273, 4007550450, 0.15625492, -0.29428914, 0.25958365, -0.9064197, 0.059255883, -0.026306134, 0.32361317, 0
274, 4007567117, 0.15643065, -0.29375193, 0.25928372, -0.9066497, 0.08730858, -0.003719004, 0.2817135, 0
275, 4007583784, 0.15656279, -0.2932727, 0.25905585, -0.9068469, 0.07277258, 0.08345672, 0.30323982, 0
276, 4007600451, 0.15674932, -0.29268202, 0.25864214, -0.9071236, 0.06393445, 0.040707912, 0.28329277, 0
277, 4007617118, 0.15699342, -0.29208803, 0.25828162, -0.9073755, 0.109879866, -0.006309547, 0.19686127, 0
278, 4007633785, 0.15731512, -0.2915772, 0.25793368, -0.9075833, 0.097819045, 0.0037556603, 0.15590954, 0
279, 4007650452, 0.15770237, -0.2912443, 0.25758892, -0.90772086, 0.07015351, 0.03694412, 0.1898241, 0
280, 4007667119, 0.15805179, -0.29103214, 0.2572108, -0.9078352, 0.0013066009, 0.06314495, 0.18214893, 0
281, 4007683786, 0.15825374, -0.29083008, 0.25689617, -0.9079541, -0.01691384, 0.09279464, 0.17402172, 0
282, 4007700453, 0.15837058, -0.2906308, 0.2566082, -0.90807873, 0.010349348, 0.10393947, 0.1904192, 0
283, 4007717120, 0.15845332, -0.29041967, 0.2563748, -0.9081977, 0.021258317, 0.14178804, 0.23918915, 0
284, 4007733787, 0.15857284, -0.29017052, 0.25606003, -0.9083454, -0.02966056, 0.18121453, 0.3555584, 0
285, 4007750454, 0.15877958, -0.2898585, 0.25575075, -0.90849596, -0.06658996, 0.13333096, 0.3188486, 0
286, 4007767121, 0.15905936, -0.28944585, 0.2555931, -0.9086229, -0.00620553, 0.114553936, 0.28324318, 0
287, 4007783788, 0.15943006, -0.28897193, 0.25539625, -0.90876424, 0.078420356, 0.112092055, 0.27758217, 0
288, 4007800455, 0.15993428, -0.28838563, 0.25504082, -0.90896153, 0.09685263, 0.11493967, 0.31235504, 0
289, 4007817122, 0.1605555, -0.2877114, 0.25449565, -0.90921855, 0.13167596, 0.07371002, 0.29399586, 0
290, 4007833789, 0.16138987, -0.2873094, 0.25382635, -0.909385, 0.19560108, -0.1633622, 0.20190907, 0
291, 4007850456, 0.16222808, -0.28719136, 0.25384164, -0.9092689, 0.0025587205, -0.23936751, 0.11358833, 0
292, 4007867123, 0.16302922, -0.2871761, 0.25429952, -0.9090024, -0.055264946, -0.18223922, 0.06028843, 0
293, 4007883790, 0.16355273, -0.28743282, 0.2548253, -0.9086799, -0.24053048, 0.05563785, 0.23457432, 0
294, 4007900457, 0.16376182, -0.2877246, 0.25474095, -0.90857357, -0.29390043, 0.1971839, 0.55976963, 0
295, 4007917124, 0.1637945, -0.28787634, 0.25402564, -0.90871984, -0.22869511, 0.09539061, 0.68258095, 0
296, 4007933791, 0.16394523, -0.28807586, 0.25345093, -0.90878993, -0.21261172, -0.41433674, 0.5637684, 0
297, 4007950458, 0.16408776, -0.28855923, 0.25436142, -0.9083563, -0.5878087, -0.33140758, 0.5308199, 0
298, 4007967125, 0.16443607, -0.28903666, 0.25590003, -0.90770924, -0.6998142, 0.117522165, 0.7682476, 0
299, 4007983792, 0.16504996, -0.28929636, 0.256648, -0.9073038, -0.44061524, 0.3966965, 0.76790905, 0
300, 4008000459, 0.16576709, -0.28918278, 0.25627857, -0.90731376, -0.1393111, 0.24824417, 0.84341526, 0
301, 4008017126, 0.16660923, -0.28882757, 0.25512832, -0.90759677, 0.27824906, 0.110597365, 0.5337868, 0
302, 4008033793, 0.1670907, -0.2887518, 0.25415605, -0.90780526, 0.72145736, -0.038449984, -0.213768, 0
303, 4008050460, 0.1667962, -0.28940687, 0.2542052, -0.90763694, 0.82106, 0.12120311, -0.30908012, 0
304, 4008067127, 0.16625892, -0.29001993, 0.2535089, -0.90773463, 0.944452, 0.27176917, -0.113220215, 0
305, 4008083794, 0.16594255, -0.29042035, 0.25171015, -0.9081648, 0.9500899, 0.08868005, 0.011623383, 0
306, 4008100461, 0.16590007, -0.2906464, 0.24985544, -0.9086123, 0.81565017, 0.028241085, 0.026391983, 0
307, 4008117128, 0.16603135, -0.29092714, 0.24839184, -0.9088997, 0.67727995, 0.18159251, 0.10064888, 0
308, 4008133795, 0.16645873, -0.2913585, 0.24725522, -0.9089933, 0.3854872, 0.35097, 0.26175213, 0
309, 4008150462, 0.16722621, -0.2917276, 0.24606934, -0.90905595, 0.046174787, 0.40749377, 0.33142185, 0
310, 4008167129, 0.16832457, -0.2918038, 0.24464107, -0.90921414, -0.0909289, 0.40124527, 0.20788097, 0
311, 4008183796, 0.16977228, -0.2915542, 0.24288702, -0.9094953, -0.17037152, 0.31506804, 0.14995956, 0
312, 4008200463, 0.17158246, -0.2911606, 0.2410243, -0.90977716, -0.26110962, 0.27006194, 0.13161755, 0
313, 4008217130, 0.17373793, -0.29045385, 0.23912553, -0.91009516, -0.3377137, 0.25518104, 0.24952984, 0
314, 4008233797, 0.17608888, -0.2893447, 0.23709361, -0.91052794, -0.31379375, 0.23793666, 0.20945072, 0
315, 4008250464, 0.1782324, -0.28815675, 0.23577507, -0.91083, -0.11450412, -0.08840094, -0.012142181, 0
316, 4008267131, 0.18009618, -0.28760478, 0.23603758, -0.9105698, -0.042128086, -0.57601315, 0.21238136, 0
317, 4008283798, 0.18188377, -0.28762633, 0.23814115, -0.90965956, -0.52498055, -0.7492752, 0.0020008087, 0
318, 4008300465, 0.18309359, -0.28859785, 0.24185102, -0.9081292, -1.2231579, -0.22603281, -0.12561798, 0
319, 4008317132, 0.1839139, -0.2891171, 0.24522555, -0.90689236, -1.5581003, 0.3875098, 0.75428677, 0
320, 4008333799, 0.18547297, -0.28872633, 0.24628909, -0.9064109, -1.4645684, 0.66614634, 1.7440023, 0
321, 4008350466, 0.18831229, -0.28740433, 0.24579728, -0.9063791, -1.3718837, 0.2668196, 1.7750244, 0
322, 4008367133, 0.19179446, -0.28573394, 0.24524346, -0.9063272, -0.8249462, -0.4199809, 1.0010777, 0
323, 4008383800, 0.19524755, -0.2851016, 0.24727799, -0.9052356, -0.49957862, -0.3363418, 0.8114338, 0
324, 4008400467, 0.19936337, -0.28532338, 0.25035372, -0.90342134, -0.37371483, 0.10854801, 1.3175745, 0
325, 4008417134, 0.20470488, -0.28591305, 0.25228155, -0.9015022, -0.2512708, 0.18640551, 1.443265, 0
326, 4008433801, 0.21100317, -0.28691787, 0.2533581, -0.89942634, 0.002798885, 0.10634132, 1.2437515, 0
327, 4008450468, 0.21826756, -0.2886067, 0.2537101, -0.8970501, 0.2841005, 0.10514111, 0.9428234, 0
328, 4008467135, 0.22638462, -0.2910796, 0.25340065, -0.89432263, 0.5604083, 0.15268964, 0.6761551, 0
329, 4008483802, 0.235319, -0.2945583, 0.25249106, -0.8911289, 0.7531312, 0.29565597, 0.7162638, 0
330, 4008500469, 0.24509136, -0.29904974, 0.25089577, -0.8874418, 0.6983341, 0.36655408, 0.48310566, 0
331, 4008517136, 0.25567257, -0.3048026, 0.24911669, -0.88298935, 0.70556444, 0.34559748, 0.48694992, 0
332, 4008533803, 0.26716343, -0.31203178, 0.24731733, -0.87755126, 0.55209845, 0.48356676, 0.50274277, 0
333, 4008550470, 0.2795081, -0.3205137, 0.2451747, -0.8712277, 0.33920294, 0.60383725, 0.30528545, 0
334, 4008567137, 0.29258037, -0.33004612, 0.24258837, -0.8640713, 0.33895287, 0.8292153, 0.3934555, 0
335, 4008583804, 0.30646473, -0.3405746, 0.23921135, -0.8560774, 0.2076993, 1.0983108, 0.4496479, 0
336, 4008600471, 0.32110766, -0.35181105, 0.23514332, -0.8472477, -0.008286295, 1.0054411, 0.2775936, 0
337, 4008617138, 0.33669978, -0.36371672, 0.23058781, -0.8373618, 0.10092465, 0.86699635, 0.11535072, 0
338, 4008633805, 0.3532468, -0.37620416, 0.2257341, -0.8262768, -0.19526142, 0.9910055, 0.12018871, 0
339, 4008650472, 0.37065676, -0.3885977, 0.22086422, -0.8141418, -0.49115637, 1.0101439, 0.2992487, 0
340, 4008667139, 0.3888798, -0.4002151, 0.21569286, -0.8012983, -0.4638034, 1.1171236, 0.45860195, 0
341, 4008683806, 0.40748408, -0.41060308, 0.21050379, -0.78806865, -0.5372666, 1.1758057, 0.52989006, 0
342, 4008700473, 0.426232, -0.41982135, 0.20555766, -0.77448344, -0.5094954, 1.0990407, 0.15641594, 0
343, 4008717140, 0.4446155, -0.42880645, 0.20243816, -0.75990975, -0.42581913, 1.0285057, 0.043600082, 0
344, 4008733807, 0.4623118, -0.43778393, 0.20194475, -0.74420005, -0.5123421, 0.9930099, 0.06408787, 0
345, 4008750474, 0.47954813, -0.44662002, 0.20378983, -0.7273486, -0.61247826, 1.3295373, 0.24636269, 0
346, 4008767141, 0.49717885, -0.45436206, 0.2063321, -0.7097869, -1.0250286, 1.7899671, 0.71655464, 0
347, 4008783808, 0.5155856, -0.4604555, 0.20797403, -0.6920268, -1.3012131, 1.891199, 0.9473667, 0
348, 4008800475, 0.5344757, -0.46459144, 0.2083263, -0.67460585, -1.6416256, 1.6113303, 0.7879553, 0
349, 4008817142, 0.55354357, -0.4670938, 0.20779355, -0.65744734, -1.500631, 1.3967432, 0.7213125, 0
350, 4008833809, 0.5724317, -0.46817622, 0.20681487, -0.6405957, -1.3280069, 1.0134023, 0.43050003, 0
351, 4008850476, 0.590792, -0.46821818, 0.20599294, -0.62394375, -0.8693333, 0.98489946, 0.12721539, 0
352, 4008867143, 0.60820526, -0.46806902, 0.20552517, -0.6072558, -0.7126029, 0.9641124, -0.22316933, 0
353, 4008883810, 0.624486, -0.4681123, 0.20550644, -0.5904723, -0.9858439, 0.88660306, -0.2421608, 0
354, 4008900477, 0.6399229, -0.46824053, 0.20509465, -0.57374907, -1.2658855, 0.7514957, 0.050700188, 0
355, 4008917144, 0.655001, -0.46789566, 0.20370692, -0.55727303, -1.2197016, 0.29548302, 0.123036385, 0
356, 4008933811, 0.6695434, -0.46690267, 0.20167318, -0.54133505, -0.906008, -0.11230051, 0.048560143, 0
357, 4008950478, 0.6836412, -0.46503854, 0.19867024, -0.52621865, -0.5471388, -0.34549963, -0.23722935, 0
358, 4008967145, 0.6966118, -0.4633372, 0.1954702, -0.5117072, -0.55783796, -0.67342377, -0.36582947, 0
359, 4008983812, 0.70887697, -0.46146, 0.19167036, -0.49780807, -0.8392897, -0.781874, 0.026769638, 0
360, 4009000479, 0.72093785, -0.45843512, 0.18666127, -0.48502156, -0.8469593, -0.90534973, -0.10643101, 0
361, 4009017146, 0.7323588, -0.4545774, 0.18069063, -0.47366986, -0.5957358, -0.7046297, -0.5941353, 0
362, 4009033813, 0.74233145, -0.45108697, 0.17451926, -0.46369174, -0.38274962, -0.71133626, -0.8549385, 0
363, 4009050480, 0.75090015, -0.4478829, 0.1683274, -0.45521218, -0.4583913, -0.78016305, -0.6998434, 0
364, 4009067147, 0.75874925, -0.44444606, 0.16192614, -0.4478274, -0.50495005, -0.8983111, -0.20870304, 0
365, 4009083814, 0.76604015, -0.44041193, 0.15557356, -0.44160953, -0.56061274, -0.74881357, -0.26700687, 0
366, 4009100481, 0.772491, -0.43649417, 0.14944008, -0.43634886, -0.38963774, -0.25584546, -0.49537182, 0
367, 4009117148, 0.7778832, -0.43308812, 0.1437908, -0.43204045, -0.5167921, -0.24458955, -0.7271948, 0
368, 4009133815, 0.78238034, -0.4303237, 0.13866712, -0.42834148, -0.5186159, -0.40696523, -0.4962864, 0
369, 4009150482, 0.7867083, -0.4275905, 0.13391848, -0.42464632, -0.46420747, -0.5293495, 0.07721329, 0
370, 4009167149, 0.7910625, -0.42450964, 0.12966736, -0.42095184, -0.59340084, -0.48188344, 0.29494476, 0
371, 4009183816, 0.79522645, -0.42114767, 0.12597016, -0.41759247, -0.7104423, -0.3290104, 0.085505486, 0
372, 4009200483, 0.79914147, -0.4177399, 0.12257777, -0.4145397, -0.71291333, -0.1480456, -0.14715481, 0
373, 4009217150, 0.80299115, -0.4141484, 0.11924099, -0.41166767, -0.8546672, -0.08023936, -0.005821228, 0
374, 4009233817, 0.80690455, -0.40987736, 0.115509704, -0.4093475, -0.9328502, -0.0042424994, -0.004611969, 0
375, 4009250484, 0.8107422, -0.40536317, 0.111359574, -0.40740547, -0.726334, 0.23890473, -0.3114748, 0
376, 4009267151, 0.81430864, -0.4013825, 0.10697463, -0.4054039, -0.71835643, 0.27045783, -0.4073372, 0
377, 4009283818, 0.8176829, -0.39775813, 0.10236156, -0.40337005, -0.84905195, 0.115210645, -0.1061964, 0
378, 4009300485, 0.82113755, -0.39383876, 0.09726537, -0.40145463, -1.0403008, -0.16574089, -0.025300026, 0
379, 4009317152, 0.8246764, -0.38950238, 0.091916606, -0.39968815, -1.0220842, -0.05517663, 0.012062073, 0
380, 4009333819, 0.8283377, -0.384917, 0.086318314, -0.39780256, -0.9896342, 0.010035955, 0.10547829, 0
381, 4009350486, 0.8319952, -0.3801492, 0.080801226, -0.39590898, -0.9215383, 0.2391117, 0.023573875, 0
382, 4009367153, 0.83534163, -0.37585258, 0.07546995, -0.39401245, -0.91927576, 0.3321463, -0.12594509, 0
383, 4009383820, 0.8384154, -0.37206256, 0.07048755, -0.39199883, -1.0443716, 0.055558614, 0.15550613, 0
384, 4009400487, 0.8416246, -0.3677398, 0.0657446, -0.3900199, -1.2930318, -0.22628608, 0.22824287, 0
385, 4009417154, 0.84500647, -0.3626901, 0.061182126, -0.38817394, -1.1687043, -0.12320325, -0.16020489, 0
386, 4009433821, 0.8481585, -0.35819572, 0.05706463, -0.38609454, -1.0414739, 0.044697672, -0.4961176, 0
387, 4009450488, 0.8510152, -0.35470146, 0.053494494, -0.3835369, -1.1423962, 0.0804584, -0.59545135, 0
388, 4009467155, 0.8537024, -0.3517129, 0.050163142, -0.3807571, -1.195388, -0.0364306, -0.67185783, 0
389, 4009483822, 0.85604, -0.34975365, 0.047218908, -0.37767804, -1.3802872, -0.34122515, -0.08970928, 0
390, 4009500489, 0.85852236, -0.34732816, 0.044315524, -0.3746214, -1.3413348, -0.6895281, 0.46836948, 0
391, 4009517156, 0.8612305, -0.34381858, 0.041345764, -0.3719722, -0.8142876, -0.39624846, 0.119874954, 0
392, 4009533823, 0.86332434, -0.34158945, 0.038893525, -0.36942852, -0.54597944, -0.0751426, -0.4206562, 0
393, 4009550490, 0.8648263, -0.34123343, 0.036693912, -0.36645728, -0.854386, -0.12172046, -0.1273632, 0
394, 4009567157, 0.8662659, -0.34127524, 0.03415691, -0.36324933, -1.3001016, -0.12332708, 0.34133625, 0
395, 4009583824, 0.8677645, -0.3409569, 0.031470943, -0.36020127, -1.2582456, 0.09776233, 0.60972786, 0
396, 4009600491, 0.86928165, -0.34052598, 0.028965907, -0.35714808, -1.1010289, 0.31085846, 0.8886881, 0
397, 4009617158, 0.87101805, -0.33973897, 0.026777675, -0.3538223, -0.9410027, 0.4740218, 1.0865669, 0
398, 4009633825, 0.87317234, -0.3384047, 0.02477026, -0.34991595, -0.61390126, 0.5396877, 0.90144634, 0
399, 4009650492, 0.87592757, -0.33618152, 0.022973867, -0.3452645, -0.25863564, 0.6381789, 0.4474802, 0
400, 4009667159, 0.87897503, -0.33383632, 0.021632468, -0.33983913, -0.016343128, 0.43319872, 0.23922157, 0
401, 4009683826, 0.8823289, -0.33140048, 0.020843793, -0.33352226, 0.12039301, 0.18376431, 0.31430912, 0
402, 4009700493, 0.8859843, -0.32867602, 0.020481499, -0.32647583, 0.481652, 0.2305592, 0.18985271, 0
403, 4009717160, 0.8896143, -0.32642603, 0.020589374, -0.3187644, 0.5942793, 0.29193363, 0.015193939, 0
404, 4009733827, 0.8931273, -0.32462695, 0.021123977, -0.3106395, 0.5250059, 0.185442, -0.01496315, 0
405, 4009750494, 0.89672536, -0.32242325, 0.021445015, -0.30243862, 0.40817487, -0.06067572, 0.16069698, 0
406, 4009767161, 0.90040964, -0.3195654, 0.021236124, -0.29443437, 0.48635364, -0.14475481, -0.044402122, 0
407, 4009783828, 0.9040676, -0.3164705, 0.020530276, -0.2865121, 0.5280908, -0.19193348, 0.043356895, 0
408, 4009800495, 0.9075859, -0.31335413, 0.019530665, -0.27877885, 0.692478, -0.3073006, 0.14088726, 0
409, 4009817162, 0.91076535, -0.31104913, 0.018304724, -0.27096516, 0.91333455, 0.012561205, -0.023744583, 0
410, 4009833829, 0.91336167, -0.31037337, 0.01630766, -0.26301154, 0.91817343, 0.2724337, -0.60674477, 0
411, 4009850496, 0.9151616, -0.31191853, 0.013994797, -0.25493637, 0.8120507, -0.30454376, -0.47037983, 0
412, 4009867163, 0.9168215, -0.31387058, 0.011437739, -0.24656673, 0.73427564, -0.86181927, 0.10784626, 0
413, 4009883830, 0.91881996, -0.3146878, 0.008923764, -0.23804238, 0.8274914, -0.7318444, 0.12015152, 0
414, 4009900497, 0.9210338, -0.31473485, 0.0067259287, -0.2293378, 0.8892452, -0.2363493, -0.16285324, 0
415, 4009917164, 0.92325073, -0.31458202, 0.0044313446, -0.22051972, 0.8952001, 0.18048716, -0.7015228, 0
416, 4009933831, 0.92515635, -0.3152273, 0.0012973414, -0.21146688, 0.5745787, 0.28580445, -1.0719881, 0
417, 4009950498, 0.9267636, -0.31667763, -0.0024078614, -0.20204195, 0.33503398, -0.34050724, -0.69347286, 0
418, 4009967165, 0.9287002, -0.31699142, -0.006372505, -0.19233863, 0.27692398, -0.5285878, -0.16391277, 0
419, 4009983832, 0.9307817, -0.31682765, -0.010096799, -0.18211558, 0.28505287, -0.40269345, -0.18958282, 0
420, 4010000499, 0.932707, -0.31698394, -0.013367871, -0.17147096, 0.23053625, -0.2802526, -0.36402607, 0
421, 4010017166, 0.93433285, -0.31768674, -0.01627808, -0.16073103, 0.19773905, -0.4266317, -0.38123417, 0
422, 4010033833, 0.9358275, -0.31834072, -0.01883042, -0.15011185, 0.25363088, -0.48654032, -0.20709038, 0
423, 4010050500, 0.93730193, -0.31851262, -0.021218088, -0.13988152, 0.3523503, -0.6374147, -0.092749596, 0
424, 4010067167, 0.9387214, -0.31831682, -0.023417812, -0.13011645, 0.5783503, -0.5432773, -0.1537323, 0
425, 4010083834, 0.9399809, -0.3180836, -0.025656238, -0.120842054, 0.85621166, -0.21630734, -0.44839573, 0
426, 4010100501, 0.940657, -0.31906042, -0.028280126, -0.112104036, 1.2906433, -0.09964878, -1.0410147, 0
427, 4010117168, 0.9405908, -0.3219604, -0.031099603, -0.10327342, 1.1817478, -0.18061747, -0.5191469, 0
428, 4010133835, 0.9404117, -0.32508865, -0.033543278, -0.0939157, 1.2365085, -1.0985959, 0.900012, 0
429, 4010150502, 0.9408475, -0.3261376, -0.03511016, -0.08491089, 1.0961665, -0.55544937, 0.47653008, 0
430, 4010167169, 0.9411235, -0.32729584, -0.036600437, -0.07633297, 0.49605626, 0.32713267, -0.35210037, 0
431, 4010183836, 0.9404828, -0.3307767, -0.03875057, -0.06767181, 0.067240715, 0.19201931, 0.065877914, 0
432, 4010200503, 0.93975675, -0.33409783, -0.041541673, -0.059265684, -0.20926987, -0.11455486, 0.8043413, 0
433, 4010217170, 0.93918824, -0.33656448, -0.044543814, -0.051652223, -0.31335795, -0.051499397, 0.6721182, 0
434, 4010233837, 0.93827486, -0.3397429, -0.04754827, -0.044233732, -0.55060446, -0.155679, 0.4686098, 0
435, 4010250504, 0.9371694, -0.34326968, -0.050579455, -0.03637955, -0.7017163, -0.5175541, 0.5869293, 0
436, 4010267171, 0.9362965, -0.34599173, -0.05339409, -0.028109763, -0.9325537, -0.83394986, 0.59234047, 0
437, 4010283838, 0.9356816, -0.34784395, -0.055888057, -0.019574257, -1.1114199, -0.8320107, 0.5645504, 0
438, 4010300505, 0.935251, -0.34904763, -0.05802214, -0.010341791, -1.1557703, -0.8105112, 0.32867813, 0
439, 4010317172, 0.9349571, -0.34968668, -0.059806768, -2.3734942E-4, -1.1082947, -0.79553515, -0.115073204, 0
440, 4010333839, 0.93465275, -0.35005853, -0.061442256, 0.010507051, -1.1778831, -0.96874964, -0.24171162, 0
441, 4010350506, 0.9344223, -0.34988895, -0.06307636, 0.021363374, -1.0468261, -1.1655682, -0.06270409, 0
442, 4010367173, 0.9344512, -0.34869418, -0.064790115, 0.031899843, -0.9380441, -1.2411199, -0.056500435, 0
443, 4010383840, 0.9344367, -0.34734133, -0.06659732, 0.041823052, -0.8893454, -1.225378, -0.17666149, 0
444, 4010400507, 0.9341106, -0.3465851, -0.06859839, 0.051113628, -0.83322805, -1.2262057, -0.09089661, 0
445, 4010417174, 0.93354493, -0.3462997, -0.070799224, 0.059669033, -0.8499799, -1.1772114, -0.065906525, 0
446, 4010433841, 0.9327991, -0.34636936, -0.07325972, 0.067450345, -0.8231361, -1.0556762, 0.02981186, 0
447, 4010450508, 0.93198186, -0.34651992, -0.07598029, 0.07458524, -0.6411924, -1.0218303, 0.33427048, 0
448, 4010467175, 0.931335, -0.3462114, -0.07867302, 0.08102982, -0.44735432, -0.82437366, 0.56774426, 0
449, 4010483842, 0.9307679, -0.3456585, -0.081404254, 0.08698766, -0.1433108, -0.66276485, 0.3151064, 0
450, 4010500509, 0.929945, -0.34562546, -0.08411478, 0.09312598, -0.20905401, -0.6962411, 0.30433464, 0
451, 4010517176, 0.9289026, -0.34585276, -0.0864836, 0.10024369, -0.124348305, -1.0190499, 0.9514904, 0
452, 4010533843, 0.9279619, -0.34572098, -0.08804843, 0.10776713, -0.28869772, -0.74620044, 0.793622, 0
453, 4010550510, 0.9269086, -0.345842, -0.089318566, 0.11514454, -0.9593192, -0.2975675, 0.33078384, 0
454, 4010567177, 0.9255232, -0.34672812, -0.09097343, 0.122117065, -1.0706254, -0.34432194, 0.36394215, 0
455, 4010583844, 0.9244833, -0.34676623, -0.09298568, 0.12821765, -1.0390495, -0.7036986, 0.29270267, 0
456, 4010600511, 0.9234046, -0.34664008, -0.09579084, 0.13413036, -1.3109478, -1.0037117, 0.36002064, 0
457, 4010617178, 0.9223574, -0.34619474, -0.09892818, 0.14007704, -1.2902279, -1.0757523, 0.53343487, 0
458, 4010633845, 0.9213259, -0.3455546, -0.10200896, 0.14610623, -1.3077513, -1.1215011, 0.5315542, 0
459, 4010650512, 0.92028236, -0.34476095, -0.105060704, 0.15226662, -1.3165091, -1.2786211, 0.44018745, 0
460, 4010667179, 0.9192044, -0.34378833, -0.1082944, 0.15857945, -1.3086846, -1.458165, 0.3483448, 0
461, 4010683846, 0.9182973, -0.34219578, -0.111498505, 0.16493241, -1.078032, -1.5437839, 0.24097443, 0
462, 4010700513, 0.91762453, -0.33991948, -0.114473835, 0.17122556, -1.0606867, -1.3823682, -0.03485775, 0
463, 4010717180, 0.9170401, -0.33744434, -0.11742892, 0.17714842, -1.1705524, -1.255841, -0.44717693, 0
464, 4010733847, 0.91613317, -0.33570987, -0.1208376, 0.1827549, -1.2552907, -1.2487667, -0.40555573, 0
465, 4010750514, 0.91516614, -0.33413416, -0.12431005, 0.18808118, -1.133307, -1.230473, -0.22077179, 0
466, 4010767181, 0.914347, -0.332325, -0.12753558, 0.1930455, -1.1074945, -1.092633, -0.20843506, 0
467, 4010783848, 0.91363823, -0.33044368, -0.13058342, 0.19754142, -1.1140862, -1.0783865, -0.16257381, 0
468, 4010800515, 0.9132337, -0.32815322, -0.13337596, 0.201328, -1.0437174, -1.1757591, -0.078635216, 0
469, 4010817182, 0.91317046, -0.3252687, -0.13591483, 0.2045716, -1.030492, -1.220638, 0.068626404, 0
470, 4010833849, 0.913333, -0.32197738, -0.1382487, 0.20746829, -0.92947936, -1.1871488, 0.100393295, 0
471, 4010850516, 0.91363484, -0.3185644, -0.14033116, 0.20999418, -0.8338367, -0.9627331, 0.13163471, 0
472, 4010867183, 0.91411775, -0.3149773, -0.14207259, 0.21212222, -0.6653875, -0.84111995, 0.08446503, 0
473, 4010883850, 0.9145169, -0.3117732, -0.14395453, 0.21385853, -0.38470396, -0.7849444, 0.03434372, 0
474, 4010900517, 0.9148203, -0.3088332, -0.14586776, 0.21552439, -0.5915787, -0.87298775, 0.34766674, 0
475, 4010917184, 0.91516095, -0.3059895, -0.14749025, 0.21702462, -0.40805408, -1.2306051, 1.305481, 0
476, 4010933851, 0.9158005, -0.3028806, -0.14865975, 0.21788867, -0.6545115, -1.1555938, 1.3071756, 0
477, 4010950518, 0.9162473, -0.3005397, -0.15036453, 0.21808144, -0.5385437, -1.0325755, 1.2293701, 0
478, 4010967185, 0.9160165, -0.30015284, -0.15268648, 0.21797083, 0.2308206, -0.7480301, 1.3360014, 0
479, 4010983852, 0.915496, -0.30050585, -0.15490168, 0.21810798, 0.39717537, -0.12634361, 1.0178385, 0
480, 4011000519, 0.91445625, -0.30205965, -0.15732321, 0.21858971, 0.30717418, 0.29393697, 0.5602131, 0
481, 4011017186, 0.9128985, -0.30471298, -0.1601391, 0.21937257, 0.29429293, 0.63334274, 0.3302288, 0
482, 4011033853, 0.9112914, -0.30710587, -0.1628035, 0.22075173, 0.34029782, 0.7849272, 0.35193825, 0
483, 4011050520, 0.91001946, -0.30828366, -0.16481279, 0.2228557, 0.4812083, 0.6285917, 0.35819054, 0
484, 4011067187, 0.90905076, -0.3083501, -0.16605584, 0.22577575, 0.49819082, 0.67145795, 0.1855011, 0
485, 4011083854, 0.9086438, -0.30705124, -0.16630062, 0.22898096, 0.43703654, 0.7658383, -0.32082748, 0
486, 4011100521, 0.90836805, -0.30590457, -0.16604571, 0.23177813, 0.48744342, 0.5514228, -0.7192755, 0
487, 4011117188, 0.907811, -0.30589795, -0.16626544, 0.2338033, 0.8900011, 0.37190744, -0.6085596, 0
488, 4011133855, 0.9070644, -0.30658978, -0.16665512, 0.23551083, 0.874545, 0.15003419, -0.16490936, 0
489, 4011150522, 0.90626955, -0.3074744, -0.16644952, 0.23755413, 1.2417548, 0.041969474, 0.37533665, 0
490, 4011167189, 0.90559167, -0.30839697, -0.16535214, 0.23969986, 1.1719829, 0.10293107, 0.3065729, 0
491, 4011183856, 0.904548, -0.31044766, -0.16424447, 0.24174628, 0.9432735, 0.22387192, -0.041750908, 0
492, 4011200523, 0.90303904, -0.31338236, -0.16340928, 0.24415496, 0.96966124, 0.13714285, -0.04140377, 0
493, 4011217190, 0.9016669, -0.3156725, -0.16221209, 0.24705754, 0.86717486, 0.40400368, -0.16542625, 0
494, 4011233857, 0.900372, -0.31754613, -0.16094562, 0.25018716, 0.6911204, 0.5851601, -0.33329487, 0
495, 4011250524, 0.8992903, -0.31881073, -0.15960081, 0.253311, 0.609393, 0.62918407, -0.42309284, 0
496, 4011267191, 0.8983188, -0.31979218, -0.15836981, 0.25627655, 0.5030892, 0.70088166, -0.45274353, 0
497, 4011283858, 0.89740396, -0.32065427, -0.15733695, 0.259026, 0.3813275, 0.78092074, -0.46288395, 0
498, 4011300525, 0.8965494, -0.32149494, -0.15642565, 0.2614834, 0.5422154, 0.8219043, -0.44081497, 0
499, 4011317192, 0.895812, -0.32246256, -0.15547886, 0.2633773, 0.7275234, 0.9429368, -0.492651, 0
500, 4011333859, 0.89505917, -0.3240583, -0.15456598, 0.26451272, 0.78556067, 1.1593229, -0.35332394, 0
501, 4011350526, 0.8944164, -0.32576263, -0.1537071, 0.26509345, 0.5264544, 1.7639194, -0.32116032, 0
502, 4011367193, 0.89440787, -0.32651204, -0.15314941, 0.26452228, 0.08538105, 1.748443, -1.7501669, 0
503, 4011383860, 0.8939832, -0.3286406, -0.15274002, 0.26355702, 0.89725184, 1.5884387, -0.13255882, 0
504, 4011400527, 0.8937089, -0.33091533, -0.15111627, 0.2625753, 1.5388335, 0.796412, 0.42080593, 0
505, 4011417194, 0.8941538, -0.331837, -0.1483445, 0.2614755, 0.8561066, 1.0579084, -0.5636711, 0
506, 4011433861, 0.893759, -0.33494106, -0.1458581, 0.2602633, 0.51891965, 1.0916203, -0.5543909, 0
507, 4011450528, 0.8932748, -0.3386697, -0.1430555, 0.25865117, 0.57943374, 0.8808261, -0.14179993, 0
508, 4011467195, 0.8929549, -0.3424431, -0.13971117, 0.25660786, 0.1804458, 0.8642875, -0.4741106, 0
509, 4011483862, 0.8924475, -0.34696043, -0.13640384, 0.25407124, -0.19016516, 0.84990156, -0.63274384, 0
510, 4011500529, 0.891824, -0.35188136, -0.13333969, 0.2511019, -0.27611655, 0.6990862, -0.5733948, 0
511, 4011517196, 0.8915424, -0.35603896, -0.13018414, 0.24787639, -0.4746516, 0.6982791, -0.34436703, 0
512, 4011533863, 0.8916049, -0.3594608, -0.1271435, 0.24426542, -0.76604235, 0.7444439, -0.48245144, 0
513, 4011550530, 0.89158213, -0.36286384, -0.12447445, 0.24066469, -0.9361357, 0.76737654, -0.44802475, 0
514, 4011567197, 0.8913285, -0.36650524, -0.12202144, 0.2373195, -0.98074883, 0.6634676, -0.15015984, 0
515, 4011583864, 0.89111185, -0.36977032, -0.119447246, 0.23435947, -1.0627595, 0.65862006, 0.016972542, 0
516, 4011600531, 0.8909064, -0.37279892, -0.116709165, 0.23170671, -1.0783551, 0.5711071, 0.105047226, 0
517, 4011617198, 0.89075696, -0.37557933, -0.11373663, 0.22925629, -1.0251176, 0.43787193, 0.38920307, 0
518, 4011633865, 0.8907563, -0.37784907, -0.11047044, 0.22711691, -0.9376015, 0.2948013, 0.7537899, 0
519, 4011650532, 0.8908744, -0.37979776, -0.10686697, 0.22511883, -0.8309496, 0.18029538, 1.0757456, 0
520, 4011667199, 0.8910335, -0.38169163, -0.102987446, 0.22308482, -0.7426071, 0.18780407, 1.2367458, 0
521, 4011683866, 0.89106923, -0.38382173, -0.09909683, 0.22103985, -0.7237575, 0.20923473, 1.4435768, 0
522, 4011700533, 0.8907922, -0.38640434, -0.09555842, 0.21920723, -0.6123025, 0.15932138, 1.8193588, 0
523, 4011717200, 0.8903892, -0.38903114, -0.0924728, 0.2175158, -0.52446246, 0.11467556, 2.3051338, 0
524, 4011733867, 0.8899807, -0.39149737, -0.090109736, 0.21574633, -0.2845086, 0.009861392, 2.8448, 0
525, 4011750534, 0.889653, -0.3937274, -0.088371575, 0.21375008, 0.042718466, 0.09687364, 3.0199194, 0
526, 4011767201, 0.8894209, -0.39548004, -0.08703414, 0.21202162, 0.2131824, 0.28852305, 2.9156866, 0
527, 4011783868, 0.88921154, -0.39682236, -0.086066775, 0.2107837, 0.46034265, 0.23680796, 2.5683193, 0
528, 4011800535, 0.889034, -0.3977485, -0.085223496, 0.21012802, 0.7104386, 0.25619233, 2.0341349, 0
529, 4011817202, 0.8890642, -0.39793834, -0.084344566, 0.20999523, 0.64583516, 0.22088936, 1.6458282, 0
530, 4011833869, 0.8893566, -0.39742407, -0.08355691, 0.21004608, 0.6137116, 0.10694424, 1.3595686, 0
531, 4011850536, 0.8899997, -0.396183, -0.082755364, 0.20998406, 0.5465045, 0.059381135, 0.9345665, 0
532, 4011867203, 0.89091945, -0.39436135, -0.082020335, 0.20980138, 0.4856775, -0.05197235, 0.7608795, 0
533, 4011883870, 0.8919679, -0.39238083, -0.08143555, 0.20928708, 0.67122036, -0.21050406, 0.49429512, 0
534, 4011900537, 0.89277995, -0.39113054, -0.08097838, 0.20834033, 0.67076087, -0.21187888, 0.060712814, 0
535, 4011917204, 0.893426, -0.39040887, -0.080753066, 0.20700754, 0.73619825, -0.1360311, 0.2750082, 0
536, 4011933871, 0.8951919, -0.3875893, -0.08043693, 0.20478871, 0.8334741, -0.20213595, -0.19611073, 0
537, 4011950538, 0.89692235, -0.38521785, -0.080566056, 0.20161587, 1.2342334, -0.40590802, -0.46817875, 0
538, 4011967205, 0.8991973, -0.38166124, -0.08043684, 0.19827019, 1.595344, -0.455354, -0.6139364, 0
539, 4011983872, 0.9007951, -0.37937674, -0.08014984, 0.1954986, 2.0703895, -0.41435212, -0.10371494, 0
540, 4012000539, 0.9017755, -0.3782534, -0.07911959, 0.19356531, 1.8309543, -0.26801193, 0.040481567, 0
541, 4012017206, 0.90231687, -0.37807852, -0.07730359, 0.19211315, 1.1391824, -0.12854655, -0.23035526, 0
542, 4012033873, 0.9025415, -0.37873513, -0.07514289, 0.19061652, 0.5190329, 0.05018648, -0.7110357, 0
543, 4012050540, 0.90278345, -0.37948015, -0.07310989, 0.18877009, -0.045345303, 0.18198961, -1.0473738, 0
544, 4012067207, 0.90326536, -0.37982613, -0.07141514, 0.18640284, -0.2686811, 0.18849652, -1.1541557, 0
545, 4012083874, 0.90412426, -0.37952024, -0.07014871, 0.18331727, -0.51959515, 0.05553604, -1.2087755, 0
546, 4012100541, 0.90528953, -0.3787215, -0.06916394, 0.17955342, -0.7857285, -0.036194123, -1.1852751, 0
547, 4012117208, 0.9069818, -0.37681624, -0.068425655, 0.17525357, -1.1694887, 0.15811105, -1.2815275, 0
548, 4012133875, 0.9089884, -0.37434146, -0.06825003, 0.17015523, -1.1783373, -0.049887646, -1.5712023, 0
549, 4012150542, 0.91067344, -0.37249687, -0.06898893, 0.164812, -0.9557155, -0.22268529, -1.2332306, 0
550, 4012167209, 0.91259104, -0.37000516, -0.06971844, 0.15942334, -0.5394482, -0.22332476, -0.709424, 0
551, 4012183876, 0.91455287, -0.3672825, -0.07001809, 0.15426093, -0.38448337, -0.14450514, -0.40358067, 0
552, 4012200543, 0.91624653, -0.3650172, -0.06998907, 0.14952815, -0.49900475, -0.03519949, -0.26623344, 0
553, 4012217210, 0.9176317, -0.3633047, -0.06979955, 0.14523107, -0.562738, -0.14358585, -0.04024124, 0
554, 4012233877, 0.9188729, -0.36186728, -0.069543, 0.14103484, -0.59092945, -0.13095267, 0.21731758, 0
555, 4012250544, 0.9201961, -0.36022344, -0.069125995, 0.1367551, -0.5768457, -0.053040072, 0.37593365, 0
556, 4012267211, 0.9213749, -0.3589111, -0.068723015, 0.13240291, -0.48966792, 0.0071611316, 0.5787382, 0
557, 4012283878, 0.92235667, -0.35797068, -0.068298355, 0.12826839, -0.46530357, 0.041284185, 0.7232075, 0
558, 4012300545, 0.9232066, -0.35721403, -0.067943856, 0.124392845, -0.6320431, 0.122109376, 0.7689934, 0
559, 4012317212, 0.92401105, -0.35642982, -0.06801358, 0.120573685, -0.7378818, 0.20662476, 0.8994665, 0
560, 4012333879, 0.9249044, -0.35534382, -0.06869229, 0.1164743, -0.6059763, -0.17063425, 1.670207, 0
561, 4012350546, 0.926161, -0.35328528, -0.06990191, 0.11194382, -0.16447078, -0.5697712, 2.584156, 0
562, 4012367213, 0.92783207, -0.35023382, -0.07121784, 0.1067442, 0.23202746, -0.48841068, 2.4198446, 0
563, 4012383880, 0.9290807, -0.34813246, -0.07293669, 0.101466306, 0.37585983, -0.19875309, 2.0004969, 0
564, 4012400547, 0.9294637, -0.34814048, -0.07518414, 0.09615201, 0.868243, -0.30042845, 1.7423468, 0
565, 4012417214, 0.92937756, -0.3493098, -0.07729162, 0.09092963, 1.3428853, -0.25981927, 1.6101131, 0
566, 4012433881, 0.9293041, -0.35041785, -0.07884033, 0.085951686, 1.4642406, -0.1286107, 0.9995508, 0
567, 4012450548, 0.92934847, -0.35111085, -0.07985847, 0.081592135, 1.2300258, -0.034984473, 0.488966, 0
568, 4012467215, 0.92960656, -0.35121706, -0.08035983, 0.07760843, 1.0338815, -0.12971596, 0.3060732, 0
569, 4012483882, 0.93024296, -0.35046154, -0.08003375, 0.07363213, 0.9973554, -0.11139864, 0.07418442, 0
570, 4012500549, 0.9311291, -0.34922525, -0.078822374, 0.06949501, 0.8484227, 0.057850294, -0.33190536, 0
571, 4012517216, 0.93188244, -0.34843132, -0.0771514, 0.065119155, 0.74999535, -0.08156412, -0.48909187, 0
572, 4012533883, 0.9325393, -0.34795558, -0.075122446, 0.060469285, 0.6864776, -0.15833949, -0.55803776, 0
573, 4012550550, 0.9331257, -0.3477092, -0.07267204, 0.055639606, 0.6527212, -0.12101863, -0.61965656, 0
574, 4012567217, 0.93351835, -0.34802058, -0.069697544, 0.050692476, 0.59641534, 0.010588032, -0.87671757, 0
575, 4012583884, 0.9336845, -0.348932, -0.06627291, 0.045718677, 0.36919993, 0.19239302, -1.196847, 0
576, 4012600551, 0.93368655, -0.3501848, -0.06266555, 0.0409294, 0.10632042, 0.41875017, -1.3067389, 0
577, 4012617218, 0.93369997, -0.3512988, -0.059019394, 0.03622594, -0.095130995, 0.5598778, -1.3019371, 0
578, 4012633885, 0.9337424, -0.35219648, -0.055480607, 0.03172961, -0.2311189, 0.7113139, -1.3238144, 0
579, 4012650552, 0.93394303, -0.35251352, -0.052163325, 0.02767327, -0.23844855, 0.78252375, -1.2335196, 0
580, 4012667219, 0.93419755, -0.3525587, -0.049051836, 0.0239484, -0.07359927, 0.7702089, -1.0656528, 0
581, 4012683886, 0.9345873, -0.35212764, -0.046237234, 0.020419788, 0.07154625, 1.1227764, -0.91719437, 0
582, 4012700553, 0.9349016, -0.35182458, -0.0436298, 0.016653711, 0.45793787, 0.9445298, -1.1919537, 0
583, 4012717220, 0.93501586, -0.35194817, -0.041356646, 0.013031018, 0.89917326, 0.7217506, -1.0950375, 0
584, 4012733887, 0.93482584, -0.3528576, -0.0387325, 0.009707917, 1.313418, 0.5403873, -0.7222805, 0
585, 4012750554, 0.9344294, -0.35430124, -0.035543814, 0.007145176, 1.2113707, 0.98245186, -0.51165485, 0
586, 4012767221, 0.9337557, -0.35645205, -0.031899504, 0.0051690578, 0.77600646, 1.402687, -0.6228485, 0
587, 4012783888, 0.9328044, -0.35926965, -0.028113384, 0.0035880054, 0.2903316, 1.663249, -0.5921316, 0
588, 4012800555, 0.93196535, -0.36170897, -0.024593204, 0.0021541007, -0.10794835, 1.6825126, -0.2674303, 0
589, 4012817222, 0.9315473, -0.36298543, -0.02152164, 7.485412E-4, -0.34682038, 1.6550308, -0.023192406, 0
590, 4012833889, 0.9316326, -0.36291233, -0.01891222, -3.7899707E-4, -0.51096547, 1.8254181, 0.052124977, 0
591, 4012850556, 0.9320186, -0.3620126, -0.017027438, -8.82213E-4, -0.6415002, 1.9795483, -0.13236237, 0
592, 4012867223, 0.93231064, -0.36132142, -0.015660292, -9.362949E-4, -0.5690586, 1.5769176, -0.21081829, 0
593, 4012883890, 0.93232244, -0.361336, -0.014596369, -6.884476E-4, -0.32171237, 0.7016494, 0.43634987, 0
594, 4012900557, 0.9324599, -0.36103547, -0.013190339, -5.861707E-4, -0.013282788, 0.12388697, 0.97592354, 0
595, 4012917224, 0.93270886, -0.3604656, -0.010971572, -9.257039E-4, -0.017981995, 0.43455768, 0.890358, 0
596, 4012933891, 0.9325256, -0.36100617, -0.008467795, -0.0012148507, -0.2642351, 0.78372204, 0.835021, 0
597, 4012950558, 0.93180346, -0.36290893, -0.0063619614, -0.0011114283, -0.46416247, 0.48697573, 1.5325451, 0
598, 4012967225, 0.9309407, -0.36513713, -0.005005862, -0.0011807, -0.60626143, -0.13116589, 2.5210648, 0
599, 4012983892, 0.9302228, -0.36696753, -0.0043938, -0.0018232465, -0.6831907, -0.106383674, 2.856923, 0
600, 4013000559, 0.9293918, -0.36905932, -0.0045873392, -0.0027291495, -0.70710623, 0.08032922, 2.8554592, 0
601, 4013017226, 0.92827034, -0.3718472, -0.005920513, -0.003328314, -0.6684339, 0.0754088, 2.869896, 0
602, 4013033893, 0.92698675, -0.37499058, -0.008252399, -0.0034375302, -0.38885653, -0.09994203, 2.8046083, 0
603, 4013050560, 0.9258633, -0.37769595, -0.010878617, -0.0026537683, -0.020931555, -0.13781808, 2.5155573, 0
604, 4013067227, 0.92519957, -0.3792368, -0.0136932265, -4.7038868E-4, 0.01731534, -0.22232834, 2.184846, 0
605, 4013083894, 0.92494625, -0.37971467, -0.016839596, 0.003160474, -0.06612532, -0.39818475, 1.6246319, 0
606, 4013100561, 0.92508, -0.37915206, -0.02024693, 0.0079436, -0.22098264, -0.3535148, 1.0224485, 0
607, 4013117228, 0.9254217, -0.37794304, -0.02394341, 0.013526936, -0.29380664, -0.55898243, 0.9096241, 0
608, 4013133895, 0.9259712, -0.37609097, -0.027659979, 0.01923682, -0.21236923, -0.92341805, 0.85297394, 0
609, 4013150562, 0.9267445, -0.3735802, -0.031219581, 0.024701482, -0.18079704, -1.1370118, 0.49744892, 0
610, 4013167229, 0.9276223, -0.37071767, -0.034609143, 0.029828826, -0.11419663, -1.3304808, 0.17281151, 0
611, 4013183896, 0.9284608, -0.36788923, -0.03774906, 0.034576192, 0.03470874, -1.4323937, -0.22915173, 0
612, 4013200563, 0.9291798, -0.36531442, -0.04050485, 0.03913768, 0.14625889, -1.2671658, -0.6951084, 0
613, 4013217230, 0.92973983, -0.3631079, -0.042853773, 0.043614946, 0.21155116, -1.101025, -1.0424042, 0
614, 4013233897, 0.9301408, -0.36127216, -0.044931, 0.048000485, 0.16373841, -0.9626857, -1.2126169, 0
615, 4013250564, 0.9306144, -0.3592296, -0.046861067, 0.052125476, 0.15771616, -0.8527272, -1.2224245, 0
616, 4013267231, 0.9311941, -0.35692674, -0.048633296, 0.055839438, 0.23550814, -0.7850383, -1.1983871, 0
617, 4013283898, 0.931869, -0.35436428, -0.05039646, 0.059234384, 0.183429, -0.5200176, -1.3446016, 0
618, 4013300565, 0.9325282, -0.351786, -0.05225043, 0.06253033, 0.13203016, -0.3161061, -1.4292936, 0
619, 4013317232, 0.9329977, -0.34964114, -0.054308854, 0.06572229, 0.22979593, -0.27370638, -1.3583813, 0
620, 4013333899, 0.93341947, -0.34764773, -0.0562855, 0.06858236, 0.43744013, -0.26619813, -1.141367, 0
621, 4013350566, 0.9341661, -0.34486514, -0.057984363, 0.07100622, 0.42362908, 0.060250822, -0.92303085, 0
622, 4013367233, 0.93524605, -0.34132624, -0.059678156, 0.07247223, 0.7146964, -0.06587977, -1.412056, 0
623, 4013383900, 0.9362548, -0.33815807, -0.06102194, 0.07317412, 0.7567592, -0.006273338, -1.1419058, 0
624, 4013400567, 0.93715644, -0.3354951, -0.061314818, 0.07364589, 1.182717, -0.48046747, -0.049081802, 0
625, 4013417234, 0.93802613, -0.33324254, -0.060333878, 0.073611826, 0.78488374, -0.24020803, -0.3036852, 0
626, 4013433901, 0.9383038, -0.33276922, -0.058720443, 0.07351655, 0.23001416, 0.045059096, -0.29494572, 0
627, 4013450568, 0.9381071, -0.33374664, -0.056837127, 0.073076695, 0.029912123, -0.06346516, 0.074053764, 0
628, 4013467235, 0.9379967, -0.33462265, -0.054662406, 0.07213963, -0.2150127, -0.025163312, 0.23903275, 0
629, 4013483902, 0.93803006, -0.33519924, -0.052422516, 0.070677675, -0.54243845, 0.21357624, 0.26584148, 0
630, 4013500569, 0.9379928, -0.3359998, -0.050488364, 0.06875152, -0.65594184, 0.2804198, 0.27891445, 0
631, 4013517236, 0.9378609, -0.3370609, -0.049118593, 0.066308424, -0.71215844, 0.278585, 0.40424538, 0
632, 4013533903, 0.9377752, -0.3379735, -0.048374996, 0.06335472, -0.5738341, 0.106999, 0.7418127, 0
633, 4013550570, 0.9378483, -0.3384479, -0.048272237, 0.0597123, -0.3988617, -0.13336124, 1.1006098, 0
634, 4013567237, 0.93825734, -0.33797193, -0.04898145, 0.055238344, -0.18217468, -0.3767463, 1.767663, 0
635, 4013583904, 0.93896854, -0.33667925, -0.050457276, 0.049411908, 0.18204392, -0.6959393, 2.178506, 0
636, 4013600571, 0.9395902, -0.33561838, -0.052645817, 0.041967884, 0.72287816, -0.81323, 2.3080692, 0
637, 4013617238, 0.9397955, -0.33561254, -0.05516751, 0.03328162, 1.5968843, -0.8198529, 2.3983316, 0
638, 4013633905, 0.93942076, -0.33708733, -0.05729807, 0.024084277, 2.0943778, -0.5953692, 1.9621239, 0
639, 4013650572, 0.9385582, -0.33971983, -0.058913957, 0.015179532, 2.0257974, -0.14096537, 1.1740417, 0
640, 4013667239, 0.93721944, -0.3434601, -0.060088105, 0.006830799, 1.7761127, 0.19539525, 0.44664097, 0
641, 4013683906, 0.9358833, -0.34698898, -0.06101558, -8.6475164E-4, 1.4325554, 0.10192973, 0.4564371, 0
642, 4013700573, 0.93505645, -0.3489732, -0.06178849, -0.008466657, 1.2765937, -0.23557729, 0.49349785, 0
643, 4013717240, 0.93492377, -0.34895763, -0.06229468, -0.016361365, 1.1584024, -0.18899675, 0.09144592, 0
644, 4013733907, 0.93517286, -0.3477406, -0.06264695, -0.02461122, 1.0222032, 0.044950467, -0.47239113, 0
645, 4013750574, 0.9352246, -0.34672952, -0.06342342, -0.033364464, 0.89130646, 0.09406856, -0.9190779, 0
646, 4013767241, 0.9346929, -0.34687793, -0.064907245, -0.042593066, 0.8605991, 0.10016152, -1.2566414, 0
647, 4013783908, 0.93341994, -0.34855235, -0.067164056, -0.052249804, 0.98463, -0.064703874, -1.3810349, 0
648, 4013800575, 0.9318749, -0.35046437, -0.06995976, -0.062384155, 0.93964946, 0.16839086, -1.5882826, 0
649, 4013817242, 0.92996496, -0.3528514, -0.07335526, -0.07268185, 0.65199035, 0.50547457, -1.848187, 0
650, 4013833909, 0.9279251, -0.35503274, -0.07742846, -0.083150096, 0.289372, 0.7109196, -1.8945222, 0
651, 4013850576, 0.9259833, -0.35638377, -0.08219241, -0.093767114, -0.08353847, 0.71909815, -1.944108, 0
652, 4013867243, 0.9239481, -0.3573145, -0.0880356, -0.104395114, -0.47564608, 0.9855957, -2.115593, 0
653, 4013883910, 0.92166, -0.35816464, -0.09532498, -0.11478878, -0.78574324, 1.3642052, -2.157734, 0
654, 4013900577, 0.91895944, -0.3592642, -0.10409208, -0.124939345, -1.016069, 1.316631, -1.8639808, 0
655, 4013917244, 0.9158387, -0.36049476, -0.11417149, -0.13509272, -1.0531404, 1.0492139, -1.614913, 0
656, 4013933911, 0.91235495, -0.36156318, -0.12557429, -0.14530613, -1.148284, 1.2432693, -1.7659626, 0
657, 4013950578, 0.90856254, -0.36223525, -0.13841097, -0.15538462, -1.1542677, 1.3048598, -1.7435427, 0
658, 4013967245, 0.9046295, -0.36223066, -0.15219162, -0.16514973, -1.1786672, 1.038724, -1.4049416, 0
659, 4013983912, 0.90048295, -0.36190304, -0.16694689, -0.17403392, -1.1440394, 1.2044059, -1.1182375, 0
660, 4014000579, 0.8961286, -0.36140418, -0.18253991, -0.18172, -1.1609998, 1.4365075, -1.1398687, 0
661, 4014017246, 0.8917525, -0.36007586, -0.19894487, -0.18853687, -1.4202167, 1.0560442, -0.87053967, 0
662, 4014033913, 0.88753325, -0.35728687, -0.21608873, -0.194779, -1.6116236, 0.62135303, -0.565135, 0
663, 4014050580, 0.8828985, -0.35453755, -0.23358677, -0.2005815, -1.2647853, 1.0776253, -0.61509705, 0
664, 4014067247, 0.8777071, -0.35297474, -0.2507693, -0.20531914, -0.8504056, 1.1442406, -0.62561035, 0
665, 4014083914, 0.8720397, -0.35238242, -0.2676631, -0.20912229, -1.074619, 0.63579893, -0.405694, 0
666, 4014100581, 0.8661432, -0.35180762, -0.28426525, -0.21265702, -1.3550296, 0.01611886, -0.20107841, 0
667, 4014117248, 0.86030227, -0.35040563, -0.3007366, -0.21599916, -1.3441397, -0.5586201, 0.17503452, 0
668, 4014133915, 0.8550591, -0.34720963, -0.31689817, -0.21885467, -1.2777953, -0.61904037, 0.6785631, 0
669, 4014150582, 0.85025376, -0.34308195, -0.3325105, -0.2209128, -1.0224358, -0.28513613, 0.6775503, 0
670, 4014167249, 0.84559286, -0.33947057, -0.34725127, -0.22170112, -1.0923142, -0.13728546, 0.8590956, 0
671, 4014183916, 0.84074223, -0.33691156, -0.36133382, -0.22154765, -1.2770281, -0.056221332, 1.271308, 0
672, 4014200583, 0.834931, -0.3361424, -0.37530518, -0.22146478, -1.4296304, -0.27159262, 1.7230978, 0
673, 4014217250, 0.8285524, -0.3362629, -0.38886416, -0.22184493, -1.7974646, -1.2013068, 2.4826174, 0
674, 4014233917, 0.82213235, -0.33513045, -0.40261295, -0.22291441, -2.1147835, -1.7815894, 2.9164028, 0
675, 4014250584, 0.815607, -0.33155933, -0.4176844, -0.22448966, -1.9806042, -2.493793, 2.8636827, 0
676, 4014267251, 0.80925155, -0.3255168, -0.43361825, -0.22611599, -1.7557461, -2.3441052, 2.6982784, 0
677, 4014283918, 0.8032694, -0.3174311, -0.44990528, -0.22712012, -1.5359826, -1.9794692, 2.3133402, 0
678, 4014300585, 0.7973769, -0.3080815, -0.4663823, -0.22752088, -1.0108927, -1.9934564, 1.906249, 0
679, 4014317252, 0.79178697, -0.29770505, -0.48232016, -0.2276289, -0.5783773, -2.3323748, 1.8486872, 0
680, 4014333919, 0.78715396, -0.28589335, -0.49711746, -0.22700268, -0.32125786, -2.6458693, 1.796072, 0
681, 4014350586, 0.7837404, -0.2726333, -0.51066643, -0.2250427, 0.09294563, -2.711845, 1.591465, 0
682, 4014367253, 0.781534, -0.25845683, -0.5227595, -0.22165142, 0.6350629, -2.406893, 1.2483492, 0
683, 4014383920, 0.78018636, -0.2446408, -0.5332627, -0.21701, 1.0705158, -1.8497257, 0.91649723, 0
684, 4014400587, 0.77929527, -0.23243417, -0.54223406, -0.21132444, 1.2223673, -1.5319262, 0.73606396, 0
685, 4014417254, 0.7788423, -0.22215204, -0.54969114, -0.20468265, 1.2148216, -1.6805139, 0.9272537, 0
686, 4014433921, 0.7790103, -0.21335329, -0.5556246, -0.19724827, 1.1346734, -1.9837646, 1.0601254, 0
687, 4014450588, 0.779944, -0.20565514, -0.5600523, -0.1890426, 1.031033, -2.116492, 0.8690119, 0
688, 4014467255, 0.78160894, -0.19918957, -0.56301916, -0.18006386, 0.9107576, -2.152745, 0.46679592, 0
689, 4014483922, 0.7837767, -0.19398832, -0.5647853, -0.17053594, 0.869414, -2.215211, 0.15655804, 0
690, 4014500589, 0.78637147, -0.18970418, -0.56552744, -0.16066577, 0.8559764, -2.294933, -0.07389641, 0
691, 4014517256, 0.7892267, -0.18627694, -0.5654545, -0.15061694, 0.8107785, -2.4488573, -0.21706104, 0
692, 4014533923, 0.79236275, -0.18329825, -0.5646797, -0.14036427, 0.80852836, -2.5025685, -0.3190775, 0
693, 4014550590, 0.79571706, -0.18053316, -0.5633262, -0.13003165, 0.94714934, -2.5014715, -0.41493416, 0
694, 4014567257, 0.79913473, -0.17831807, -0.5614397, -0.11989242, 1.1039506, -2.3528993, -0.5644913, 0
695, 4014583924, 0.8025561, -0.1768422, -0.55902976, -0.11008433, 1.2285178, -2.2944012, -0.6476593, 0
696, 4014600591, 0.80602735, -0.17590398, -0.55611837, -0.10056058, 1.3606521, -2.282953, -0.6519747, 0
697, 4014617258, 0.8094996, -0.17535928, -0.5528057, -0.09147561, 1.5487555, -2.260179, -0.5931959, 0
698, 4014633925, 0.8129836, -0.17517692, -0.54907835, -0.082982086, 1.754152, -2.225298, -0.5513201, 0
699, 4014650592, 0.81653535, -0.175224, -0.54492015, -0.075040154, 1.9612507, -2.1207652, -0.5373106, 0
700, 4014667259, 0.8201093, -0.17551689, -0.5404077, -0.06764965, 2.2151482, -1.9112123, -0.6072197, 0
701, 4014683926, 0.82363355, -0.17629573, -0.5355897, -0.060772758, 2.4077854, -1.6906947, -0.6755705, 0
702, 4014700593, 0.8268987, -0.17785962, -0.5306805, -0.054635424, 2.5400515, -1.4842298, -0.8118582, 0
703, 4014717260, 0.829615, -0.18025894, -0.5261374, -0.049267605, 2.5017765, -1.4271618, -0.6932745, 0
704, 4014733927, 0.83143747, -0.18347287, -0.5225307, -0.04486995, 2.7250617, -1.6004077, -0.11363983, 0
705, 4014750594, 0.83239794, -0.1874211, -0.51984936, -0.041784182, 2.8666077, -1.4089054, 0.20342064, 0
706, 4014767261, 0.83266973, -0.19224471, -0.51782113, -0.039581977, 2.5379584, -0.7785408, -0.24617386, 0
707, 4014783928, 0.8321205, -0.19840062, -0.51656145, -0.037136838, 1.7803824, -0.11534878, -0.8254709, 0
708, 4014800595, 0.8303893, -0.20569693, -0.51672536, -0.033757463, 1.2141253, -0.009824959, -0.80126, 0
709, 4014817262, 0.827821, -0.21211518, -0.5185406, -0.028943995, 0.93323004, -0.40066597, 0.07848072, 0
710, 4014833929, 0.8253025, -0.21468304, -0.5218367, -0.021811936, 0.6508559, -0.94395715, 1.0390654, 0
711, 4014850596, 0.82348424, -0.21166725, -0.526249, -0.011620901, 0.5734699, -1.0577198, 1.5593443, 0
712, 4014867263, 0.82243586, -0.20322669, -0.53131604, 0.0018991819, 0.89123195, -0.52861595, 1.5746746, 0
713, 4014883930, 0.8216253, -0.19127047, -0.53667843, 0.018058289, 1.3081856, 0.164123, 1.3510695, 0
714, 4014900597, 0.8206331, -0.17750433, -0.54200053, 0.035934977, 1.6502001, 0.65061814, 0.9650154, 0
715, 4014917264, 0.8193327, -0.16336858, -0.54682994, 0.054627575, 1.7296313, 0.9987124, 0.38000774, 0
716, 4014933931, 0.8176001, -0.15012324, -0.5510211, 0.07328893, 1.6034104, 1.1070125, -0.21064758, 0
717, 4014950598, 0.8153957, -0.13816762, -0.55467427, 0.09153257, 1.3006142, 0.97889835, -0.7402611, 0
718, 4014967265, 0.8128088, -0.127371, -0.55787486, 0.1090711, 1.0282228, 0.9200513, -1.1625986, 0
719, 4014983932, 0.80979997, -0.117692254, -0.5608502, 0.12578496, 0.6947619, 0.8918228, -1.4524813, 0
720, 4015000599, 0.8062944, -0.10934277, -0.56386423, 0.14139657, 0.4133653, 0.9034678, -1.5756264, 0
721, 4015017266, 0.802297, -0.10203036, -0.56707686, 0.15599863, 0.09732335, 0.8781205, -1.5173426, 0
722, 4015033933, 0.7978128, -0.09542913, -0.5706099, 0.16968966, -0.058083866, 0.6420807, -1.159524, 0
723, 4015050600, 0.79286057, -0.08872761, -0.57457685, 0.18265629, -0.06897386, 0.32034373, -0.60811424, 0
724, 4015067267, 0.78758276, -0.08116986, -0.5789145, 0.19489755, 0.16451359, 0.09757604, 0.0605011, 0
725, 4015083934, 0.7822585, -0.0722688, -0.5833194, 0.20637251, 0.49658766, 0.118039034, 0.52723885, 0
726, 4015100601, 0.7771148, -0.06198701, -0.5874552, 0.21713722, 0.716469, 0.2267145, 0.6141939, 0
727, 4015117268, 0.7722202, -0.05068007, -0.59120256, 0.22713251, 0.7988152, 0.31034154, 0.34170055, 0
728, 4015133935, 0.7674175, -0.038582094, -0.59475917, 0.23631707, 0.84880567, 0.17920515, 0.089056015, 0
729, 4015150602, 0.76272595, -0.025750425, -0.59811676, 0.24463268, 1.0560361, -0.17140985, 0.10317707, 0
730, 4015167269, 0.75850725, -0.011740703, -0.6007193, 0.25232422, 1.3235874, -0.3184445, 0.1963892, 0
731, 4015183936, 0.7549462, 0.0032895827, -0.60227543, 0.25944555, 1.5177608, -0.22630808, 0.26198864, 0
732, 4015200603, 0.75205433, 0.018466562, -0.602909, 0.26566187, 1.6884378, 0.034461815, 0.33848667, 0
733, 4015217270, 0.74972117, 0.03293874, -0.60303605, 0.27052394, 1.8501567, 0.43078303, 0.5211868, 0
734, 4015233937, 0.74797237, 0.045781277, -0.60301393, 0.27352875, 2.0107405, 0.83830637, 0.7431221, 0
735, 4015250604, 0.7469053, 0.056083262, -0.60305274, 0.2744391, 2.0203972, 1.2592711, 0.87119675, 0
736, 4015267271, 0.7465125, 0.06300992, -0.60346144, 0.27310365, 1.8850939, 1.5245901, 0.88363075, 0
737, 4015283938, 0.74664867, 0.06609715, -0.6045798, 0.2695041, 1.7324637, 1.6025236, 0.8023472, 0
738, 4015300605, 0.74720794, 0.06544452, -0.6063728, 0.2640293, 1.6157622, 1.4903574, 0.6447172, 0
739, 4015317272, 0.7479406, 0.061659668, -0.6086926, 0.25744602, 1.535589, 1.1435226, 0.36304474, 0
740, 4015333939, 0.74856883, 0.055779103, -0.6113236, 0.25063735, 1.4028344, 0.70342207, 0.14268589, 0
741, 4015350606, 0.7488769, 0.04900706, -0.6140501, 0.2443901, 1.3759998, 0.12794441, -0.03002739, 0
742, 4015367273, 0.7487479, 0.042348474, -0.6167343, 0.23921612, 1.341354, -0.49399313, -0.058714867, 0
743, 4015383940, 0.7481111, 0.03704364, -0.61922234, 0.23563471, 1.316073, -1.1487291, -0.026521683, 0
744, 4015400607, 0.7470793, 0.033934806, -0.62130123, 0.23389721, 1.2501885, -1.5505309, 0.0061712265, 0
745, 4015417274, 0.74571276, 0.033554036, -0.62293774, 0.23396, 1.2174965, -1.7817484, 0.011329651, 0
746, 4015433941, 0.744029, 0.035675276, -0.62422854, 0.23556164, 1.2662259, -2.0158103, 0.09626675, 0
747, 4015450608, 0.7421025, 0.04024725, -0.6251245, 0.23850705, 1.4160959, -2.157467, 0.25365734, 0
748, 4015467275, 0.7400865, 0.04697857, -0.6255137, 0.242487, 1.5560346, -2.0480962, 0.37302303, 0
749, 4015483942, 0.7380974, 0.0552266, -0.6253726, 0.24713072, 1.5422193, -1.5936881, 0.4305792, 0
750, 4015500609, 0.7361176, 0.064202026, -0.62488574, 0.25204986, 1.4456161, -1.1485418, 0.46008682, 0
751, 4015517276, 0.7343427, 0.07282089, -0.6241309, 0.2567117, 1.4556956, -0.7932569, 0.54388237, 0
752, 4015533943, 0.73293054, 0.08039648, -0.62317896, 0.26076734, 1.4882696, -0.4175616, 0.56855583, 0
753, 4015550610, 0.73214436, 0.08623992, -0.6219177, 0.26409855, 1.4256537, 0.019079793, 0.5122957, 0
754, 4015567277, 0.7318494, 0.09005339, -0.6206217, 0.26667953, 1.2809536, 0.2949992, 0.22276402, 0
755, 4015583944, 0.73162854, 0.09197908, -0.6198461, 0.268426, 1.0545788, 0.33204237, 0.030083656, 0
756, 4015600611, 0.7316339, 0.091949865, -0.61950696, 0.26920322, 0.99791515, 0.2365095, 0.11543846, 0
757, 4015617278, 0.7320725, 0.09010848, -0.61929977, 0.2691106, 0.9479609, -0.022852411, 0.20227051, 0
758, 4015633945, 0.73279494, 0.08713462, -0.6190294, 0.26874557, 0.91789305, -0.34656632, 0.26671124, 0
759, 4015650612, 0.73372513, 0.08347102, -0.6185774, 0.26841095, 0.8901077, -0.61676335, 0.28330612, 0
760, 4015667279, 0.73479086, 0.07963237, -0.61790735, 0.26820502, 0.91374195, -0.8788368, 0.34318352, 0
761, 4015683946, 0.7360049, 0.0763793, -0.61672294, 0.2685482, 0.8062188, -0.8921803, 0.40883636, 0
762, 4015700613, 0.737264, 0.07378373, -0.61519355, 0.26932713, 0.74525297, -0.8525882, 0.23913574, 0
763, 4015717280, 0.73849636, 0.071759485, -0.61345404, 0.27046314, 0.6653163, -0.78567857, 0.06839752, 0
764, 4015733947, 0.7397485, 0.07017993, -0.61158854, 0.27167773, 0.6753194, -0.6982412, -0.016033173, 0
765, 4015750614, 0.7411485, 0.06893893, -0.609561, 0.2727343, 0.67827374, -0.5928327, -0.07678223, 0
766, 4015767281, 0.7426519, 0.067925684, -0.60750604, 0.27348334, 0.69537115, -0.64625734, -0.14313126, 0
767, 4015783948, 0.74420524, 0.0672435, -0.60550255, 0.27387202, 0.7109348, -0.74747306, -0.100367546, 0
768, 4015800615, 0.74582386, 0.067134336, -0.6035491, 0.273808, 0.8071254, -0.86853033, 0.2101736, 0
769, 4015817282, 0.74754155, 0.06778713, -0.60173213, 0.27296028, 0.9614338, -0.9776565, 0.61017513, 0
770, 4015833949, 0.7492887, 0.069476634, -0.60003567, 0.27147555, 0.93955684, -0.9133978, 0.7955704, 0
771, 4015850616, 0.75118405, 0.07143389, -0.59845, 0.2692207, 0.87998796, -0.68704975, 0.62457275, 0
772, 4015867283, 0.75306386, 0.07317304, -0.5970768, 0.26653728, 0.49922425, -0.61826724, 0.31849766, 0
773, 4015883950, 0.75480527, 0.074639745, -0.595965, 0.2636774, 0.25595766, -0.72743744, -0.11806011, 0
774, 4015900617, 0.7562328, 0.0761438, -0.59497213, 0.26138958, -0.009107706, -0.9433618, -0.3617487, 0
775, 4015917284, 0.7572939, 0.07839172, -0.59382105, 0.2602682, -0.09329341, -1.2588476, -0.30371094, 0
776, 4015933951, 0.7579892, 0.08198522, -0.5922838, 0.26063952, -0.10292816, -1.357218, -0.15088654, 0
777, 4015950618, 0.75833803, 0.08697808, -0.5903202, 0.2624547, -0.16476391, -1.2168341, -0.04709339, 0
778, 4015967285, 0.7584424, 0.092686646, -0.58806896, 0.2652384, -0.22322418, -0.8241407, -0.08717346, 0
779, 4015983952, 0.75848734, 0.09809366, -0.58572984, 0.26832324, -0.3654115, -0.30591995, -0.08371258, 0
780, 4016000619, 0.7586353, 0.10240427, -0.58354336, 0.2710446, -0.5252885, -0.075005084, -0.056344986, 0
781, 4016017286, 0.758861, 0.105470985, -0.58172035, 0.2731472, -0.60107684, -0.045324627, 0.046993256, 0
782, 4016033953, 0.75926167, 0.10744941, -0.58012897, 0.2746436, -0.49182463, 0.007164205, 0.24743652, 0
783, 4016050620, 0.7598514, 0.108481936, -0.57864684, 0.27573112, -0.60974157, 0.030387983, 0.47593594, 0
784, 4016067287, 0.760626, 0.10892602, -0.5770907, 0.2766799, -0.8161737, 0.079297036, 0.62623787, 0
785, 4016083954, 0.7616923, 0.10871863, -0.5752886, 0.27758002, -1.1531596, 0.22393383, 0.6298466, 0
786, 4016100621, 0.76302844, 0.107932776, -0.5732942, 0.2783417, -1.388686, 0.2832217, 0.5563297, 0
787, 4016117288, 0.76464546, 0.10676898, -0.57107735, 0.27890968, -1.5860192, 0.18922181, 0.28494453, 0
788, 4016133955, 0.76647425, 0.10531695, -0.5686842, 0.27933154, -1.7293, 0.16682415, 0.2123766, 0
789, 4016150622, 0.7686659, 0.103892155, -0.56583035, 0.27963817, -1.8692769, 0.30201346, 0.21085453, 0
790, 4016167289, 0.77128077, 0.1020104, -0.56267244, 0.27950284, -2.00059, 0.22998986, 0.26569557, 0
791, 4016183956, 0.77426696, 0.09985715, -0.55922866, 0.27893555, -2.3293192, -0.12126226, 0.3656969, 0
792, 4016200623, 0.77761495, 0.09833951, -0.5551974, 0.2782132, -2.5749626, -0.3353118, 0.7290888, 0
793, 4016217290, 0.78139013, 0.09744883, -0.5505212, 0.2772398, -2.8093867, -0.45719942, 1.0541592, 0
794, 4016233957, 0.78552115, 0.09703017, -0.54525936, 0.27610922, -3.0188172, -0.6251243, 1.2312279, 0
795, 4016250624, 0.79007226, 0.09727672, -0.5391849, 0.27496356, -3.246022, -0.69846666, 1.3904371, 0
796, 4016267291, 0.79510266, 0.09779505, -0.53228915, 0.27371183, -3.2042956, -0.93345475, 1.9366484, 0
797, 4016283958, 0.80071646, 0.09895703, -0.52422345, 0.2724933, -2.8984683, -0.9541609, 2.7429266, 0
798, 4016300625, 0.80715024, 0.10045844, -0.5147149, 0.27108538, -2.791645, -0.46283028, 3.2409382, 0
799, 4016317292, 0.8145833, 0.10124579, -0.50393593, 0.2688017, -2.9577005, 0.29156584, 3.228797, 0
800, 4016333959, 0.82292366, 0.09953986, -0.4926861, 0.2648615, -2.955994, 0.49576983, 3.257042, 0
801, 4016350626, 0.83218, 0.095420286, -0.48078805, 0.259262, -2.354945, 0.416121, 3.52312, 0
802, 4016367293, 0.8421884, 0.08942306, -0.46791095, 0.25255445, -1.9823642, 0.022328721, 3.9786243, 0
803, 4016383960, 0.85273874, 0.08265131, -0.4536659, 0.24534647, -1.4309268, -0.113791674, 4.104474, 0
804, 4016400627, 0.8636995, 0.07473593, -0.4380084, 0.23788364, -1.0088146, 0.3291263, 4.1619253, 0
805, 4016417294, 0.87483644, 0.0657231, -0.42100438, 0.23043269, -0.4999265, 0.33995628, 4.4376116, 0
806, 4016433961, 0.88589793, 0.05627649, -0.40265375, 0.22336063, -0.045340497, 0.22672942, 4.5083714, 0
807, 4016450628, 0.89669126, 0.04692579, -0.38300523, 0.2169143, 0.50167257, 0.44993532, 4.403165, 0
808, 4016467295, 0.90710187, 0.0382924, -0.3620154, 0.21129861, 1.0252267, 0.41159374, 4.3245993, 0
809, 4016483962, 0.9170297, 0.03100423, -0.3397361, 0.20658407, 1.2456105, 0.29132387, 4.3897057, 0
810, 4016500629, 0.92645025, 0.025375891, -0.31620213, 0.2026439, 1.5764359, 0.24106462, 4.169799, 0
811, 4016517296, 0.93527824, 0.021162152, -0.29174557, 0.19923297, 2.090257, 0.27851346, 3.8867168, 0
812, 4016533963, 0.9434875, 0.01799352, -0.26662284, 0.19601607, 2.8166523, 0.5903509, 3.4216824, 0
813, 4016550630, 0.9510741, 0.014785303, -0.24113561, 0.19260082, 3.417178, 1.1121103, 2.750123, 0
814, 4016567297, 0.95798314, 0.010665386, -0.21565278, 0.18881421, 3.7360158, 0.9105927, 1.5771856, 0
815, 4016583964, 0.96412706, 0.0052517327, -0.19025211, 0.18503444, 3.990891, 0.99608535, 0.7358246, 0
816, 4016600631, 0.96945715, -0.0015177913, -0.16522443, 0.18125562, 4.2234917, 0.5629662, -0.28613472, 0
817, 4016617298, 0.9739553, -0.009093896, -0.14073709, 0.17754894, 4.1720243, 0.08910712, -1.4390306, 0
818, 4016633965, 0.97759104, -0.01756542, -0.11703598, 0.17410378, 4.1210628, -0.0018602844, -2.8278418, 0
819, 4016650632, 0.9803301, -0.026700824, -0.09444806, 0.17123581, 3.9996583, 0.055638123, -3.6312852, 0
820, 4016667299, 0.98218614, -0.036773853, -0.07332352, 0.16906828, 3.4269974, -0.2950013, -4.4821973, 0
821, 4016683966, 0.9832827, -0.046406694, -0.053692393, 0.16769348, 2.7215548, -0.87673855, -4.948481, 0
822, 4016700633, 0.9838647, -0.054031182, -0.0353449, 0.16686505, 2.2302039, -1.3309801, -4.8366365, 0
823, 4016717300, 0.9841761, -0.058530144, -0.018555727, 0.16622117, 1.8082573, -1.6297418, -4.643511, 0
824, 4016733967, 0.9843944, -0.05971912, -0.0033604864, 0.16550675, 1.165347, -1.8412218, -4.736484, 0
825, 4016750634, 0.98453784, -0.058211155, 0.010176044, 0.16491039, 0.6756158, -1.3945657, -5.111906, 0
826, 4016767301, 0.9845435, -0.05545927, 0.02188083, 0.16468774, 0.32616675, -0.6229395, -5.204726, 0
827, 4016783968, 0.9844405, -0.05253224, 0.031473573, 0.1647091, 0.022680426, -0.17995352, -4.7322726, 0
828, 4016800635, 0.98433596, -0.049268726, 0.039260466, 0.16466972, -0.123482496, -0.46154523, -4.214895, 0
829, 4016817302, 0.9842657, -0.045558657, 0.04580201, 0.1644684, -0.12287127, -0.40815413, -3.7132354, 0
830, 4016833969, 0.98423517, -0.041360807, 0.051290642, 0.16413999, -0.35235855, -0.05683401, -3.4069881, 0
831, 4016850636, 0.9841989, -0.037588604, 0.055692434, 0.16383053, -0.50082856, 0.1323653, -3.1783361, 0
832, 4016867303, 0.9841855, -0.034677934, 0.059003957, 0.1633925, -0.5313925, 0.26349315, -2.8933792, 0
833, 4016883970, 0.9842191, -0.032923624, 0.061115365, 0.16277567, -0.5851977, 0.39818197, -2.749475, 0
834, 4016900637, 0.98427314, -0.032527737, 0.06210935, 0.16215137, -0.5152928, 0.34695226, -2.4843044, 0
835, 4016917304, 0.98438287, -0.032285236, 0.0621028, 0.16153465, -0.37293422, -0.23462903, -1.9064546, 0
836, 4016933971, 0.984639, -0.030228395, 0.06149591, 0.16060187, -0.20125268, -0.7303962, -1.3521595, 0
837, 4016950638, 0.98502827, -0.025713228, 0.060440343, 0.15939695, -0.2534895, -0.78842074, -1.2300816, 0
838, 4016967305, 0.98548996, -0.019075641, 0.05885165, 0.15806474, -0.26279, -0.6411858, -1.3985739, 0
839, 4016983972, 0.98590684, -0.011554518, 0.056711588, 0.15697202, 0.006465168, -0.23330851, -1.7870302, 0
840, 4017000639, 0.9862211, -0.004420833, 0.05405275, 0.15629826, -0.0192196, 0.17397542, -1.8512397, 0
841, 4017017306, 0.9864358, 0.0016917181, 0.05076971, 0.15609717, -0.14054704, 0.14053035, -1.7688799, 0
842, 4017033973, 0.98657596, 0.00655276, 0.046876065, 0.15630113, -0.112861134, 0.028748766, -1.7970295, 0
843, 4017050640, 0.98667055, 0.010249658, 0.042515483, 0.15675104, -0.19475003, -0.010629194, -2.0783195, 0
844, 4017067307, 0.98674446, 0.01263123, 0.03753703, 0.15738216, -0.05248319, 0.05352005, -2.3646693, 0
845, 4017083974, 0.986812, 0.013527502, 0.0317597, 0.15815389, 0.091645226, 0.24645528, -2.6276093, 0
846, 4017100641, 0.986865, 0.012795909, 0.024919083, 0.15910736, -0.021912819, 0.3071032, -2.793015, 0
847, 4017117308, 0.98690706, 0.011219469, 0.01702086, 0.16000298, 0.12206055, 0.19292094, -2.7685208, 0
848, 4017133975, 0.9869164, 0.008861525, 0.007959698, 0.16079926, 0.13409743, 0.17501228, -2.8864307, 0
849, 4017150642, 0.98681384, 0.0063375942, -0.0020861889, 0.1617283, 0.2625683, 0.20018065, -2.990364, 0
850, 4017167309, 0.98659873, 0.004478068, -0.013011308, 0.16259156, 0.55201167, 0.12605073, -2.875443, 0
851, 4017183976, 0.9862564, 0.0027443192, -0.024929687, 0.16331418, 0.57582164, 0.34677857, -2.693191, 0
852, 4017200643, 0.98577857, 0.0012566792, -0.03788502, 0.16372538, 0.5101285, 0.39309472, -2.8537188, 0
853, 4017217310, 0.98507994, -0.0012426007, -0.051978745, 0.16406244, 0.78845674, 0.6732577, -3.1192589, 0
854, 4017233977, 0.98410547, -0.0050414344, -0.06731157, 0.16426344, 1.3962609, 0.7652239, -3.6739063, 0
855, 4017250644, 0.9827713, -0.009765592, -0.08386931, 0.16441816, 1.9551198, 1.1766053, -3.2983108, 0
856, 4017267311, 0.9809961, -0.0158455, -0.10195598, 0.1643258, 2.2201555, 0.81619334, -3.0258102, 0
857, 4017283978, 0.97873485, -0.021293582, -0.12086699, 0.16437227, 2.27486, 0.31958896, -2.1983953, 0
858, 4017300645, 0.97599846, -0.026222352, -0.14038941, 0.16441579, 2.1074052, 0.17607269, -1.9053521, 0
859, 4017317312, 0.97279364, -0.030248063, -0.1605511, 0.16426532, 2.3571072, -0.09062371, -2.1766706, 0
860, 4017333979, 0.9690051, -0.035059642, -0.18161412, 0.16376361, 2.8695335, 0.39098075, -1.9354978, 0
861, 4017350646, 0.9645985, -0.041061573, -0.2035981, 0.16252358, 3.698784, 0.86165375, -1.3894033, 0
862, 4017367313, 0.9596309, -0.046791438, -0.22625716, 0.16040304, 3.9553344, 0.49922043, -0.3278904, 0
863, 4017383980, 0.95410633, -0.052201036, -0.2493665, 0.1574004, 2.8900416, 0.34583262, 0.18830776, 0
864, 4017400647, 0.9479455, -0.05682187, -0.27279764, 0.1541243, 2.656335, 0.37447304, 0.24010658, 0
865, 4017417314, 0.9412527, -0.05953195, -0.2961529, 0.15097973, 3.0368886, 0.47431585, 1.2485733, 0
866, 4017433981, 0.933858, -0.061026786, -0.3199624, 0.14768627, 2.121601, 0.39408508, 1.818799, 0
867, 4017450648, 0.92577755, -0.0603468, -0.34419495, 0.14431363, 1.6960618, -0.7812517, 1.6237307, 0
868, 4017467315, 0.91719025, -0.057238977, -0.36803597, 0.14155437, 2.0066895, -0.36355305, 2.0156193, 0
869, 4017483982, 0.9081069, -0.053124454, -0.39117, 0.13967082, 2.4802456, 0.7330199, 2.622961, 0
870, 4017500649, 0.898407, -0.047974378, -0.41384622, 0.1389134, 2.5019455, 0.76731443, 3.3303995, 0
871, 4017517316, 0.8879965, -0.04030917, -0.4362277, 0.13980326, 1.03681, -0.22621948, 3.9919815, 0
872, 4017533983, 0.8770602, -0.028509691, -0.4578063, 0.1427173, 0.73634285, -1.6172876, 3.7231646, 0
873, 4017550650, 0.8656026, -0.012562286, -0.47818094, 0.14805295, 0.68982756, -1.0862185, 2.8807125, 0
874, 4017567317, 0.8533641, 0.0034743685, -0.49793148, 0.15435125, 0.8752955, 0.2247294, 2.5349102, 0
875, 4017583984, 0.84020543, 0.0172513, -0.5177334, 0.16034845, 1.0767736, 0.9371438, 2.5070896, 0
876, 4017600651, 0.8263676, 0.028173313, -0.53739595, 0.1659238, 0.7180859, 0.8832123, 3.3215284, 0
877, 4017617318, 0.81220967, 0.037797224, -0.5562771, 0.17159538, 0.58383906, -0.054230276, 3.727687, 0
878, 4017633985, 0.7978058, 0.047705807, -0.5740123, 0.17816311, 0.01871161, -0.79315466, 3.5867167, 0
879, 4017650652, 0.78321964, 0.058401518, -0.5904821, 0.18571305, -0.40635327, -1.2707742, 3.1894407, 0
880, 4017667319, 0.76851314, 0.06969339, -0.60570437, 0.19404858, -0.9705625, -1.4319326, 2.6965322, 0
881, 4017683986, 0.7536969, 0.08114179, -0.6197514, 0.20314375, -1.5536332, -1.1755787, 2.584035, 0
882, 4017700653, 0.738864, 0.09203471, -0.63265395, 0.21298113, -2.0588841, -1.3193114, 2.6543884, 0
883, 4017717320, 0.7241517, 0.10292599, -0.6440832, 0.22398598, -2.3341408, -1.7166964, 2.76369, 0
884, 4017733987, 0.70963967, 0.1146126, -0.6536799, 0.23660153, -2.722125, -2.0747423, 2.7384653, 0
885, 4017750654, 0.6957672, 0.12607484, -0.66146505, 0.24995854, -2.9828935, -0.2860863, 2.2058964, 0
886, 4017767321, 0.688862, 0.124383144, -0.6667707, 0.2557674, -10.589149, 2.5659587, 4.652504, 0
887, 4017783988, 0.6930168, 0.118889734, -0.6646438, 0.25267357, -16.892881, 0.18824239, 8.242338, 0
888, 4017800655, 0.69777066, 0.1213348, -0.6614205, 0.24681865, -9.429373, -1.1352944, 0.66340923, 0
889, 4017817322, 0.70048946, 0.12081805, -0.660635, 0.24141493, -4.5830474, 0.20153448, 0.13754654, 0
890, 4017833989, 0.70393664, 0.11233323, -0.66089886, 0.23466867, -1.3301417, 0.46210912, 1.5029154, 0
891, 4017850656, 0.7079457, 0.108695194, -0.6582163, 0.23184429, 0.5156967, -2.974776, 2.0443106, 0
892, 4017867323, 0.71277344, 0.11245328, -0.6518885, 0.2331351, 0.6850471, -1.2961358, 1.1372147, 0
893, 4017883990, 0.7181895, 0.11695085, -0.6447478, 0.2341561, 0.6102199, 0.39954853, 0.4455614, 0
894, 4017900657, 0.7244305, 0.120471835, -0.63726914, 0.23361786, 0.3803596, 0.42449903, 0.54034424, 0
895, 4017917324, 0.7319014, 0.12240112, -0.62916917, 0.23127203, -0.52438194, 0.9779246, 0.9811554, 0
896, 4017933991, 0.740758, 0.12074882, -0.62087536, 0.22630326, -1.538028, 1.5632702, 1.5130739, 0
897, 4017950658, 0.75079566, 0.11463257, -0.61289793, 0.21799943, -2.2242365, 1.3025246, 1.8678999, 0
898, 4017967325, 0.76145774, 0.105539896, -0.60491765, 0.20765464, -2.3871424, 1.0207103, 2.217949, 0
899, 4017983992, 0.77243656, 0.09517756, -0.596156, 0.19718887, -2.459466, 0.3700695, 2.4283628, 0
900, 4018000659, 0.78348523, 0.08585277, -0.5860137, 0.18807043, -2.3803809, -0.773536, 2.8899412, 0
901, 4018017326, 0.7946871, 0.079604685, -0.57395077, 0.18088178, -2.441173, -1.320809, 3.2598848, 0
902, 4018033993, 0.80606663, 0.07676911, -0.55998975, 0.17543328, -2.4691484, -1.038171, 3.745822, 0
903, 4018050660, 0.8174771, 0.07668131, -0.5445795, 0.17113306, -2.403217, -1.0231286, 4.0542145, 0
904, 4018067327, 0.8289602, 0.07899145, -0.52760935, 0.16797593, -2.1006253, -0.6224484, 4.0318737, 0
905, 4018083994, 0.84057146, 0.081626825, -0.509389, 0.16523254, -1.7012094, 0.22088026, 4.0750437, 0
906, 4018100661, 0.8522975, 0.08307664, -0.4903158, 0.16211137, -0.8896965, 0.25140274, 4.224909, 0
907, 4018117328, 0.86426187, 0.083244964, -0.4701224, 0.15845759, 0.1406205, 0.106448494, 4.390251, 0
908, 4018133995, 0.87644494, 0.08213397, -0.44861108, 0.1544294, 0.84855175, 0.04941698, 4.1733465, 0
909, 4018150662, 0.8885452, 0.07969922, -0.4261292, 0.15017089, 1.3604572, 0.02171691, 3.8866358, 0
910, 4018167329, 0.90039074, 0.075929224, -0.40282506, 0.14582804, 1.6446302, 0.10726515, 3.5783167, 0
911, 4018183996, 0.91182667, 0.07102938, -0.3787515, 0.14169195, 2.0554416, 0.11811045, 3.0159721, 0
912, 4018200663, 0.9227005, 0.06499313, -0.35402632, 0.13808334, 2.492746, 0.1081169, 2.605317, 0
913, 4018217330, 0.93289113, 0.058178827, -0.32876647, 0.13507201, 2.9675431, -0.3138311, 2.2604513, 0
914, 4018233997, 0.94234014, 0.05204383, -0.30280405, 0.13265935, 3.3103905, -0.6937256, 1.8523846, 0
915, 4018250664, 0.9510172, 0.046070315, -0.2763502, 0.1306775, 3.4263952, -0.3679154, 1.2780943, 0
916, 4018267331, 0.95889777, 0.039276164, -0.24971572, 0.12890697, 3.5769887, 0.1879588, 0.85414505, 0
917, 4018283998, 0.96600765, 0.03033427, -0.22299771, 0.12721373, 3.6032999, 0.53702104, 0.39256477, 0
918, 4018300665, 0.97231597, 0.018226482, -0.19614395, 0.12569529, 3.49864, 0.6404209, -0.13237381, 0
919, 4018317332, 0.9776661, 0.0026548181, -0.16922097, 0.12461412, 3.1883533, 0.45364547, -0.73060036, 0
920, 4018333999, 0.98188275, -0.015269273, -0.1423627, 0.12412974, 3.1726735, 0.34143904, -0.82325554, 0
921, 4018350666, 0.98483276, -0.034683354, -0.116207324, 0.124095455, 3.0953486, -0.1515189, -0.9031038, 0
922, 4018367333, 0.9866295, -0.05271376, -0.09102039, 0.12450337, 2.9562619, -0.7836366, -0.7822151, 0
923, 4018384000, 0.98760873, -0.06689072, -0.06658095, 0.12539503, 2.7342448, -1.0205328, -0.9770355, 0
924, 4018400667, 0.98800904, -0.0772096, -0.043143746, 0.12656105, 2.5252793, -0.41522086, -1.7252522, 0
925, 4018417334, 0.98782957, -0.0859651, -0.021100855, 0.12790601, 2.2409058, 0.16855061, -2.659306, 0
926, 4018434001, 0.98695374, -0.095178016, -4.5092037E-4, 0.12986672, 1.8508017, 0.104957215, -3.0363016, 0
927, 4018450668, 0.9855416, -0.10404873, 0.018964503, 0.1323789, 1.8652731, -0.2574787, -3.1797643, 0
928, 4018467335, 0.9837752, -0.11182923, 0.037110854, 0.13529892, 1.4503713, -0.4448206, -3.4561696, 0
929, 4018484002, 0.9817807, -0.11829979, 0.053824645, 0.13862598, 1.0071462, -0.542162, -3.8610797, 0
930, 4018500669, 0.9797093, -0.12332583, 0.06902038, 0.14212266, 0.62486476, -0.41641474, -4.2651677, 0
931, 4018517336, 0.97758865, -0.12770315, 0.08239178, 0.14569205, 0.1066903, -0.15241393, -4.4569793, 0
932, 4018534003, 0.9754962, -0.13167185, 0.09382723, 0.149226, -0.21475753, -0.5281907, -4.2473006, 0
933, 4018550670, 0.9736427, -0.13436082, 0.103566535, 0.15245774, -0.38884974, -0.80637527, -3.9200358, 0
934, 4018567337, 0.97225296, -0.1347012, 0.11185428, 0.15514752, -0.55281866, -0.9177488, -3.7235475, 0
935, 4018584004, 0.97127366, -0.13327459, 0.11883273, 0.15731025, -0.9795726, -0.582945, -3.6980453, 0
936, 4018600671, 0.97051495, -0.13144784, 0.1242701, 0.15931593, -0.9995457, -0.4376882, -3.827888, 0
937, 4018617338, 0.9699017, -0.12958843, 0.1284803, 0.16122253, -0.82560796, -0.24860552, -3.4902496, 0
938, 4018634005, 0.9694123, -0.12774308, 0.13171202, 0.16302074, -0.9106287, 0.006856707, -2.9339566, 0
939, 4018650672, 0.96900284, -0.12610482, 0.13403736, 0.1648249, -1.0787687, 0.14585745, -2.56104, 0
940, 4018667339, 0.96857136, -0.1252062, 0.13544084, 0.16688675, -1.0576435, -0.019600522, -2.4501114, 0
941, 4018684006, 0.9681798, -0.124623045, 0.13601689, 0.16911145, -0.8702115, -0.07394658, -2.3904996, 0
942, 4018700673, 0.96794665, -0.1238675, 0.13583331, 0.17113683, -0.7876954, 0.13852684, -2.2215772, 0
943, 4018717340, 0.9678592, -0.12316923, 0.13485633, 0.17289928, -1.0184546, 0.1716832, -1.9865184, 0
944, 4018734007, 0.96786183, -0.12274625, 0.13302127, 0.17459866, -0.9515596, 0.08974632, -1.9584255, 0
945, 4018750674, 0.96797705, -0.12247957, 0.1304056, 0.17611334, -0.69149655, 0.06325428, -2.1503525, 0
946, 4018767341, 0.9682285, -0.12240048, 0.12689929, 0.17734309, -0.6892078, 0.2233384, -2.3341808, 0
947, 4018784008, 0.968606, -0.122638956, 0.12231127, 0.17833772, -0.7274961, 0.3716788, -2.264041, 0
948, 4018800675, 0.9691145, -0.123006225, 0.11671531, 0.17907093, -0.9142383, 0.1673379, -2.2807784, 0
949, 4018817342, 0.96970356, -0.12343575, 0.11025909, 0.17967723, -0.76783454, 0.013704194, -2.5565224, 0
950, 4018834009, 0.9703725, -0.123759724, 0.10302678, 0.18013489, -0.5049514, -0.034156524, -2.896234, 0
951, 4018850676, 0.9710916, -0.1240256, 0.09489065, 0.1805458, -0.44617516, 0.012921843, -3.5378537, 0
952, 4018867343, 0.9717071, -0.12437387, 0.085788816, 0.18154623, -0.2314627, 0.45810065, -4.4155154, 0
953, 4018884010, 0.97210836, -0.124671996, 0.07570878, 0.1836647, 0.001991668, 0.7494085, -4.5934286, 0
954, 4018900677, 0.9722081, -0.1250168, 0.06426801, 0.18722779, 0.082832925, 0.3010479, -4.6161213, 0
955, 4018917344, 0.972161, -0.12391274, 0.05140487, 0.19211562, 0.5398724, -0.6263128, -4.5148406, 0
956, 4018934011, 0.971989, -0.12107588, 0.03727834, 0.1979663, 0.878748, -0.972256, -5.356826, 0
957, 4018950678, 0.9714252, -0.117741406, 0.021701097, 0.20494208, 1.3549162, -0.1973532, -6.466918, 0
958, 4018967345, 0.9703735, -0.11395461, 0.0049187164, 0.21299672, 2.3964517, 0.5092694, -5.7656207, 0
959, 4018984012, 0.9686806, -0.111073, -0.013364384, 0.22168508, 2.9559538, 0.0063003832, -4.5418386, 0
960, 4019000679, 0.9666262, -0.10703058, -0.03337842, 0.23036149, 2.8219805, -0.98262644, -2.7822285, 0
961, 4019017346, 0.96432424, -0.10149521, -0.05485244, 0.2382664, 2.6598337, -1.2206465, -2.607358, 0
962, 4019034013, 0.96147424, -0.096206106, -0.07755377, 0.24555938, 2.6480412, 0.019530004, -3.083314, 0
963, 4019050680, 0.9577871, -0.09143593, -0.10198408, 0.25275397, 2.9645643, 0.878387, -1.8379264, 0
964, 4019067347, 0.95320743, -0.0872885, -0.12926106, 0.2589792, 3.060793, -0.008143247, -0.5332413, 0
965, 4019084014, 0.94803524, -0.08094121, -0.15846802, 0.26375705, 3.0634613, -0.77160776, 0.5851135, 0
966, 4019100681, 0.9424836, -0.071094066, -0.18743712, 0.26746914, 2.7636774, -0.0703307, 1.3904152, 0
967, 4019117348, 0.93626183, -0.0597441, -0.21540044, 0.27101532, 1.9872738, 0.34937873, 1.269969, 0
968, 4019134015, 0.9290952, -0.04887615, -0.24370998, 0.27386296, 2.400572, 0.52222586, 1.2153254, 0
969, 4019150682, 0.9209966, -0.03951601, -0.27299234, 0.27510232, 3.1460662, 1.2020065, 1.9744492, 0
970, 4019167349, 0.9121267, -0.03010546, -0.30269676, 0.2747643, 3.3381424, 1.5051438, 2.945013, 0
971, 4019184016, 0.9026877, -0.02043744, -0.33166042, 0.27338782, 1.7532243, 1.4517109, 3.100442, 0
972, 4019200683, 0.8924599, -0.012663001, -0.36000007, 0.27158257, 1.4132005, 1.032232, 3.3131514, 0
973, 4019217350, 0.8818451, -0.00485561, -0.38709778, 0.26922703, 1.8817176, 0.37530246, 3.475872, 0
974, 4019234017, 0.8708291, 0.0036104915, -0.41316116, 0.26635304, 2.1534874, 1.0575948, 4.4041853, 0
975, 4019250684, 0.85938793, 0.011634135, -0.4388205, 0.262213, 2.6095123, 1.2982104, 4.514595, 0
976, 4019267351, 0.84730405, 0.019455366, -0.4640609, 0.257579, 1.8724141, 1.4490963, 4.115447, 0
977, 4019284018, 0.8346212, 0.028344652, -0.4876711, 0.25452524, 0.44991818, 1.2306122, 4.6084814, 0
978, 4019300685, 0.8219458, 0.037768696, -0.5086338, 0.2535204, -0.35799533, 0.7486207, 3.5883207, 0
979, 4019317352, 0.80896175, 0.04664441, -0.5278427, 0.2545378, -1.0113326, 0.7920209, 3.8791933, 0
980, 4019334019, 0.79550076, 0.055259973, -0.5462181, 0.2564626, -0.53892905, -0.11971077, 3.8368626, 0
981, 4019350686, 0.7815599, 0.06435743, -0.56369656, 0.2593661, -0.6888772, -0.26194534, 3.4112158, 0
982, 4019367353, 0.7673826, 0.0734809, -0.58022714, 0.26279905, -0.96091574, -0.28861654, 3.5776615, 0
983, 4019384020, 0.7531445, 0.08301876, -0.5955078, 0.26693466, -1.2801186, -0.7687547, 3.53823, 0
984, 4019400687, 0.7389129, 0.0931123, -0.6094571, 0.27184945, -1.9141113, -1.0038515, 3.074398, 0
985, 4019417354, 0.72477484, 0.10316213, -0.6223718, 0.27697462, -2.2342944, -1.1480595, 2.8155556, 0
986, 4019434021, 0.71096045, 0.11348338, -0.6339023, 0.2825364, -2.297651, -1.3793818, 2.9077377, 0
987, 4019450688, 0.69780356, 0.12419874, -0.64342976, 0.28921494, -2.5953994, -1.3542552, 3.0594206, 0
988, 4019467355, 0.68535006, 0.13506013, -0.6509024, 0.29729217, -3.0578656, -1.517882, 2.7782612, 0
989, 4019484022, 0.67391914, 0.14565994, -0.65629065, 0.306433, -3.6032305, -1.0246491, 2.4831448, 0
990, 4019500689, 0.6671893, 0.15161076, -0.6585194, 0.31341198, -7.834198, 0.90822256, 3.333251, 0
991, 4019517356, 0.6687395, 0.14807387, -0.6585878, 0.31165048, -12.876581, 1.2481203, 3.9064932, 0
992, 4019534023, 0.6724049, 0.1458722, -0.6575467, 0.3069654, -8.833176, -0.99659455, 1.6136875, 0
993, 4019550690, 0.6768924, 0.1398121, -0.65717345, 0.30065686, -5.3897924, -1.0562335, 0.6194382, 0
994, 4019567357, 0.68173224, 0.13299514, -0.655563, 0.29629824, -2.4473581, -3.0685525, 1.8588037, 0
995, 4019584024, 0.68670315, 0.13277079, -0.64986706, 0.29746553, -1.4920585, -3.003335, 2.5234919, 0
996, 4019600691, 0.69275814, 0.13589658, -0.6409058, 0.30143055, -2.0832427, -0.2400804, 2.2347593, 0
997, 4019617358, 0.70051295, 0.13714442, -0.6310293, 0.30377162, -2.5085757, 0.86378103, 2.0698051, 0
998, 4019634025, 0.70983875, 0.13564326, -0.62092155, 0.30362573, -2.6813838, 0.51740533, 2.3111305, 0
999, 4019650692, 0.7205861, 0.13222703, -0.6097803, 0.30239332, -3.0478659, 0.27103236, 2.8079958, 0
1000, 4019667359, 0.73250425, 0.12698485, -0.5977178, 0.3000801, -3.5596604, -0.029340323, 3.0390358, 0
1001, 4019684026, 0.7451647, 0.12041726, -0.584994, 0.296671, -3.7465997, -0.41952565, 3.3236885, 0
1002, 4019700693, 0.7584198, 0.11315666, -0.57123286, 0.29272932, -3.2342017, -0.7235074, 4.0168486, 0
1003, 4019717360, 0.7722776, 0.10643482, -0.55547005, 0.28933397, -2.702661, -0.8739495, 4.645097, 0
1004, 4019734027, 0.7866811, 0.10079314, -0.5373572, 0.28674555, -2.1712487, -0.69593686, 4.9918203, 0
1005, 4019750694, 0.8015647, 0.095826864, -0.5169876, 0.28467104, -1.6928259, -0.28404617, 5.0613623, 0
1006, 4019767361, 0.8167563, 0.09002215, -0.49509966, 0.28228346, -1.050814, 0.38030082, 5.146817, 0
1007, 4019784028, 0.8321082, 0.08231647, -0.47228584, 0.27886996, -0.18969098, 0.66877156, 5.025199, 0
1008, 4019800695, 0.84735006, 0.07275694, -0.4486453, 0.27463412, 0.5598266, 0.67694604, 4.751548, 0
1009, 4019817362, 0.86220926, 0.0619216, -0.4240476, 0.27008703, 1.3746395, 0.82978195, 4.601968, 0
1010, 4019834029, 0.8764623, 0.05058068, -0.39837196, 0.26562685, 2.1121156, 0.75353277, 4.6036377, 0
1011, 4019850696, 0.88988763, 0.040029503, -0.37150574, 0.26169345, 2.718087, 0.2287744, 4.3965197, 0
1012, 4019867363, 0.9022628, 0.03174464, -0.34358498, 0.2585845, 3.2719069, -0.024720812, 4.076762, 0
1013, 4019884030, 0.91359514, 0.024911, -0.31506118, 0.25585562, 3.838177, 0.68069875, 3.2755127, 0
1014, 4019900697, 0.9239662, 0.017798355, -0.28630558, 0.25298423, 4.104726, 1.6720395, 2.2650204, 0
1015, 4019917364, 0.9332768, 0.008672684, -0.2577152, 0.25000873, 4.069479, 2.0188353, 1.4138594, 0
1016, 4019934031, 0.94132406, -0.0024143418, -0.22948104, 0.24747504, 4.0931253, 1.5961108, 0.45534515, 0
1017, 4019950698, 0.94803447, -0.014558118, -0.20175454, 0.24559334, 4.1732073, 1.1936817, -0.4137602, 0
1018, 4019967365, 0.9535388, -0.026101818, -0.17439187, 0.24427895, 4.3422956, 0.73180896, -1.0978107, 0
1019, 4019984032, 0.95811427, -0.035729375, -0.14721616, 0.2430437, 4.112655, 0.3135056, -1.7024288, 0
1020, 4020000699, 0.96183366, -0.043753985, -0.1207713, 0.24161606, 3.8541071, 0.5474043, -2.6075377, 0
1021, 4020017366, 0.96472967, -0.050870538, -0.09541024, 0.24001648, 3.5700614, 0.8035029, -3.2504458, 0
1022, 4020034033, 0.9667471, -0.05842309, -0.07135462, 0.2385321, 3.0674162, 0.9222378, -3.6653442, 0
1023, 4020050700, 0.9679207, -0.06693555, -0.04868636, 0.2372365, 2.417449, 0.77125233, -4.088582, 0
1024, 4020067367, 0.96821755, -0.07719798, -0.027641637, 0.23629111, 1.8589493, 0.81429166, -4.474842, 0
1025, 4020084034, 0.96766543, -0.08904445, -0.008185929, 0.23585996, 1.6814626, 0.67034966, -4.9003534, 0
1026, 4020100701, 0.96641177, -0.10182555, 0.009930247, 0.23576134, 1.2638253, 0.5058309, -4.818164, 0
1027, 4020117368, 0.9645572, -0.115121305, 0.026469072, 0.2359624, 0.6953568, -0.03610578, -4.6137104, 0
1028, 4020134035, 0.96235746, -0.12774907, 0.041240387, 0.23632576, 0.5007019, -0.6194846, -4.1263165, 0
1029, 4020150702, 0.96025205, -0.13810782, 0.05414497, 0.23645897, 0.05079969, -0.83930874, -3.8379436, 0
1030, 4020167369, 0.95849353, -0.14557141, 0.065160595, 0.23633794, -0.24100329, -0.67689955, -3.6666942, 0
1031, 4020184036, 0.95717496, -0.15023157, 0.07452359, 0.23599826, -0.29815128, -0.77020603, -3.6522574, 0
1032, 4020200703, 0.9562464, -0.15243904, 0.082425684, 0.2357189, -0.3861085, -0.77223915, -3.3953009, 0
1033, 4020217370, 0.9558892, -0.15156168, 0.08926819, 0.235241, -0.29110774, -0.9272475, -3.1086922, 0
1034, 4020234037, 0.9559642, -0.14860207, 0.09524266, 0.2344801, -0.32461932, -0.8155126, -2.858735, 0
1035, 4020250704, 0.9563564, -0.1443537, 0.100070745, 0.23352185, -0.61620945, -0.768908, -2.64749, 0
1036, 4020267371, 0.9571011, -0.13884385, 0.10370766, 0.23222145, -0.77193326, -0.8677817, -2.459566, 0
1037, 4020284038, 0.95804995, -0.13288915, 0.10628052, 0.23062393, -0.68887234, -0.4702249, -2.475965, 0
1038, 4020300705, 0.9590216, -0.12729359, 0.10789911, 0.22898442, -0.71379614, -0.20158209, -2.1491857, 0
1039, 4020317372, 0.95999175, -0.122000545, 0.108503826, 0.22751042, -0.6572358, -0.42418993, -1.56878, 0
1040, 4020334039, 0.9610059, -0.11664219, 0.10851149, 0.2260301, -0.5342509, -0.41174516, -1.5509634, 0
1041, 4020350706, 0.9619185, -0.11177205, 0.10808936, 0.22480835, -0.43735304, -0.08569766, -1.7605801, 0
1042, 4020367373, 0.9626912, -0.10753215, 0.10708149, 0.22405031, -0.44543275, 0.07429408, -1.4443922, 0
1043, 4020384040, 0.96335196, -0.103963755, 0.10543937, 0.22367224, -0.37954277, -0.004962323, -1.0157557, 0
1044, 4020400707, 0.96397966, -0.10045771, 0.10359732, 0.22343034, -0.20422451, -0.026031828, -0.7675915, 0
1045, 4020417374, 0.96454006, -0.09699829, 0.101647, 0.2234368, -0.28829348, -0.017276658, -0.7615223, 0
1046, 4020434041, 0.96504915, -0.09371967, 0.09944511, 0.22362837, -0.31455308, 0.18298352, -0.6997833, 0
1047, 4020450708, 0.96549875, -0.09089372, 0.096995644, 0.22393072, -0.21834226, 0.18360998, -0.51534843, 0
1048, 4020467375, 0.9658955, -0.08830748, 0.09444927, 0.2243418, -0.25716692, 0.12597023, -0.35079956, 0
1049, 4020484042, 0.96626776, -0.08571133, 0.0917906, 0.22484909, -0.3424084, 0.20772092, -0.40779114, 0
1050, 4020500709, 0.96662074, -0.083400995, 0.08889452, 0.22536354, -0.63960445, 0.16061172, -0.66822815, 0
1051, 4020517376, 0.96694475, -0.08157938, 0.08562054, 0.22590746, -0.7305232, 0.07707034, -0.9804468, 0
1052, 4020534043, 0.96724576, -0.08017852, 0.08186877, 0.22651036, -0.7184044, -0.05889829, -1.3795385, 0
1053, 4020550710, 0.9675196, -0.07933748, 0.077473804, 0.22718216, -0.8502702, -0.0635658, -2.0021896, 0
1054, 4020567377, 0.9677088, -0.07928836, 0.072133854, 0.2281492, -0.5554106, 0.14484961, -2.8326783, 0
1055, 4020584044, 0.9677882, -0.080181725, 0.06557228, 0.22947633, -0.33679643, 0.25419068, -3.5547175, 0
1056, 4020600711, 0.96779734, -0.08136513, 0.057515327, 0.23117624, -0.40286064, 0.032527197, -4.0277557, 0
1057, 4020617378, 0.9677772, -0.082226634, 0.04793376, 0.23313302, -0.23950866, 0.028958423, -4.3985925, 0
1058, 4020634045, 0.96774876, -0.08208296, 0.036917914, 0.23529603, 0.21752624, 0.24673486, -4.322759, 0
1059, 4020650712, 0.9676953, -0.08066909, 0.0245938, 0.23760417, 0.29455093, -0.21052925, -4.2962885, 0
1060, 4020667379, 0.96742254, -0.07847414, 0.011110994, 0.24044605, 0.43164346, -0.018294033, -4.696442, 0
1061, 4020684046, 0.9667419, -0.075770766, -0.0034880117, 0.24425226, 0.9361971, 0.59756655, -5.324648, 0
1062, 4020700713, 0.9656212, -0.071656525, -0.019028978, 0.24916086, 1.6545956, 1.1352112, -4.560919, 0
1063, 4020717380, 0.9639937, -0.06755127, -0.0366199, 0.2545862, 1.4360229, 0.69976723, -4.282287, 0
1064, 4020734047, 0.9618423, -0.063037194, -0.056385867, 0.26020867, 1.2466935, 0.6613957, -4.312961, 0
1065, 4020750714, 0.9590839, -0.0595104, -0.07806427, 0.26556513, 1.9713823, 0.96236074, -3.977591, 0
1066, 4020767381, 0.95575565, -0.056200493, -0.101122506, 0.2704608, 3.1104028, 0.91712934, -3.5357332, 0
1067, 4020784048, 0.95179445, -0.051703606, -0.12499006, 0.2753068, 3.4320889, 1.4329679, -1.7565784, 0
1068, 4020800715, 0.94709, -0.04739866, -0.1505185, 0.27950016, 2.9448311, 1.0545106, -1.6548615, 0
1069, 4020817382, 0.9415898, -0.045039065, -0.17778124, 0.282447, 2.7314694, 1.1505067, -1.4791365, 0
1070, 4020834049, 0.93528473, -0.0442249, -0.20652086, 0.28396833, 2.9491093, 1.6139129, -0.30733395, 0
1071, 4020850716, 0.9282245, -0.04336203, -0.23630463, 0.28404504, 2.906831, 1.1811826, 0.5168829, 0
1072, 4020867383, 0.9201893, -0.043372665, -0.26693633, 0.28305048, 3.1315887, 0.99601686, 1.087409, 0
1073, 4020884050, 0.9115606, -0.043461516, -0.29732943, 0.2806525, 3.1485379, 1.0972239, 1.7768593, 0
1074, 4020900717, 0.90257454, -0.041569598, -0.32683483, 0.27715066, 2.583199, 0.41760603, 2.6314554, 0
1075, 4020917384, 0.8931002, -0.03686235, -0.35532254, 0.2734256, 1.3499432, 0.16312724, 3.6044874, 0
1076, 4020934051, 0.8830941, -0.030046046, -0.38256407, 0.26998022, 1.635827, 0.024991207, 4.0061197, 0
1077, 4020950718, 0.8727434, -0.020342797, -0.40791106, 0.26742473, 1.7322952, 0.505165, 4.4141397, 0
1078, 4020967385, 0.8620464, -0.009686466, -0.43190622, 0.26503074, 1.8917122, 1.0987751, 3.8656378, 0
1079, 4020984052, 0.8507358, -9.7105326E-4, -0.45559472, 0.26207492, 1.6926247, 1.9450551, 3.2169762, 0
1080, 4021000719, 0.838538, 0.0056430236, -0.47936237, 0.25891343, 1.290372, 1.7429857, 4.119156, 0
1081, 4021017386, 0.8256671, 0.013641087, -0.5020439, 0.25698626, 0.4546602, 0.19849093, 4.592786, 0
1082, 4021034053, 0.8124955, 0.025245696, -0.522182, 0.25795764, -1.2749952, -0.70048827, 4.890355, 0
1083, 4021050720, 0.7992693, 0.03895869, -0.5398749, 0.26112863, -1.659695, -0.6784682, 4.7061367, 0
1084, 4021067387, 0.7856685, 0.053226978, -0.5560612, 0.2658768, -1.9444139, -0.30642393, 3.988058, 0
1085, 4021084054, 0.7717072, 0.06641854, -0.5714456, 0.2711251, -1.7231427, 0.12670122, 3.3127775, 0
1086, 4021100721, 0.75774103, 0.07707807, -0.5864301, 0.27566198, -1.5655049, 0.22913331, 3.054223, 0
1087, 4021117388, 0.74438393, 0.0853874, -0.6007173, 0.27882367, -1.5528755, -0.14399879, 3.2748337, 0
1088, 4021134055, 0.7320949, 0.092318684, -0.6135996, 0.28109133, -1.8580096, -0.26116422, 3.8368235, 0
1089, 4021150722, 0.7208953, 0.098361865, -0.6248962, 0.28309354, -2.407876, -0.4598039, 3.6061497, 0
1090, 4021167389, 0.7105848, 0.10339514, -0.63485754, 0.2851962, -3.2187085, -0.48540252, 2.9574604, 0
1091, 4021184056, 0.7008988, 0.10793639, -0.6436466, 0.28777122, -3.7775376, -0.7700123, 2.3546286, 0
1092, 4021200723, 0.69188434, 0.112350956, -0.6510398, 0.29124323, -4.149458, -0.7037831, 2.2052956, 0
1093, 4021217390, 0.6842998, 0.11516711, -0.65707093, 0.29450017, -4.5227633, -0.44189528, 2.0985365, 0
1094, 4021234057, 0.68048894, 0.11382824, -0.66086006, 0.29537126, -6.900029, -0.8235697, 2.8479023, 0
1095, 4021250724, 0.68221706, 0.10857647, -0.6615686, 0.2917542, -9.049464, -0.7104355, 2.94913, 0
1096, 4021267391, 0.686321, 0.10439247, -0.6602462, 0.28660625, -7.103046, -1.3963583, 1.334588, 0
1097, 4021284058, 0.6912469, 0.0987948, -0.6586766, 0.2802941, -4.5924377, -1.6928198, 0.92770576, 0
1098, 4021300725, 0.6969832, 0.09440674, -0.655501, 0.27499524, -3.0043137, -2.4001207, 1.5228977, 0
1099, 4021317392, 0.7033768, 0.09432978, -0.6496557, 0.2726036, -2.1249874, -2.0717068, 1.9455643, 0
1100, 4021334059, 0.7109787, 0.09627781, -0.6414149, 0.27171496, -2.3503764, -0.4450913, 2.0229359, 0
1101, 4021350726, 0.7198186, 0.09698458, -0.63219434, 0.26979193, -2.82108, 0.25593308, 2.3653812, 0
1102, 4021367393, 0.7299305, 0.096154824, -0.6219349, 0.2667493, -3.3290586, 0.025611566, 2.703452, 0
1103, 4021384060, 0.74091876, 0.094015256, -0.61077535, 0.26297608, -3.5933578, -0.47620618, 2.8164215, 0
1104, 4021400727, 0.7525876, 0.09126216, -0.598569, 0.25884464, -3.591459, -0.9494925, 3.1772337, 0
1105, 4021417394, 0.7649424, 0.08835607, -0.58505756, 0.25449237, -3.4065235, -0.7831391, 3.8029442, 0
1106, 4021434061, 0.77797806, 0.08525076, -0.57005745, 0.2500386, -3.0893674, -0.81776303, 4.272132, 0
1107, 4021450728, 0.79162544, 0.08258981, -0.55307674, 0.24620418, -2.823982, -0.7926079, 4.934231, 0
1108, 4021467395, 0.80585146, 0.08055268, -0.5338687, 0.2431073, -2.4285567, -0.4994177, 5.276163, 0
1109, 4021484062, 0.82042843, 0.07821129, -0.51288694, 0.2402698, -1.8197428, 0.09228705, 5.191493, 0
1110, 4021500729, 0.83509773, 0.07481477, -0.49063057, 0.23727259, -0.87496513, 0.7431362, 4.9888296, 0
1111, 4021517396, 0.84968346, 0.06979391, -0.46733704, 0.23401932, -0.07726932, 1.5314186, 4.671357, 0
1112, 4021534063, 0.8640363, 0.062233217, -0.44327846, 0.23037937, 0.69724417, 1.8446712, 4.4202127, 0
1113, 4021550730, 0.87799627, 0.05262925, -0.41820335, 0.22685045, 1.4528959, 1.5427332, 4.124406, 0
1114, 4021567397, 0.8912055, 0.042411264, -0.39210114, 0.22408335, 2.1954193, 0.8659327, 3.8365917, 0
1115, 4021584064, 0.9035138, 0.03304413, -0.36491728, 0.22228041, 2.7345965, 0.35306978, 3.212494, 0
1116, 4021600731, 0.9149093, 0.02441057, -0.33711642, 0.22068034, 3.343465, 0.3316443, 2.6511517, 0
1117, 4021617398, 0.9254516, 0.016633233, -0.30894688, 0.21867046, 3.669211, 0.6216868, 1.9847851, 0
1118, 4021634065, 0.93503344, 0.009291795, -0.2809278, 0.21612039, 3.62623, 1.0668019, 1.2051907, 0
1119, 4021650732, 0.9436279, 0.0017281804, -0.25316346, 0.21324621, 3.7562299, 1.0174016, 0.8674154, 0
1120, 4021667399, 0.9512612, -0.005640216, -0.22545631, 0.21033846, 3.379168, 0.48288277, 0.37694073, 0
1121, 4021684066, 0.9579163, -0.0116213, -0.19782135, 0.20767811, 3.4006147, 0.053602424, -0.18785954, 0
1122, 4021700733, 0.96362007, -0.016724972, -0.17061417, 0.2050604, 3.6644998, 0.07594942, -0.54209805, 0
1123, 4021717400, 0.9684064, -0.022432739, -0.14438464, 0.20209216, 3.6117024, 0.52174634, -1.2889261, 0
1124, 4021734067, 0.97228885, -0.029578667, -0.119144425, 0.19896387, 3.2027283, 0.94162375, -1.812705, 0
1125, 4021750734, 0.9751644, -0.039013106, -0.09519171, 0.19614598, 2.6715653, 0.9608611, -2.3142805, 0
1126, 4021767401, 0.9770013, -0.050471015, -0.07262807, 0.1940328, 2.6125658, 0.7087893, -2.7227564, 0
1127, 4021784068, 0.9779906, -0.06209564, -0.05121393, 0.19250439, 2.6076953, -0.12382341, -3.1587725, 0
1128, 4021800735, 0.9784187, -0.071871385, -0.03063189, 0.19129924, 2.0259535, -0.38316545, -3.200502, 0
1129, 4021817402, 0.9783901, -0.08001075, -0.0114494525, 0.1903213, 1.3642043, -0.59887874, -3.676385, 0
1130, 4021834069, 0.97800666, -0.08660173, 0.0058828676, 0.18965952, 1.1248437, -0.46436992, -4.1077657, 0
1131, 4021850736, 0.97738796, -0.09181198, 0.02124791, 0.18929924, 0.8039923, -0.25187483, -4.530015, 0
1132, 4021867403, 0.97663486, -0.09564373, 0.034681372, 0.18930432, 0.42995623, -0.27589485, -4.756332, 0
1133, 4021884070, 0.9758354, -0.09785094, 0.046700533, 0.1897158, 0.36806974, -0.37094256, -4.1263614, 0
1134, 4021900737, 0.97518057, -0.09790464, 0.05746202, 0.19009997, 0.10273762, -0.75917715, -3.8973894, 0
1135, 4021917404, 0.97465926, -0.096285775, 0.067108914, 0.19043897, -0.17699192, -0.6078794, -3.664043, 0
1136, 4021934071, 0.97414804, -0.09435604, 0.07568403, 0.19080602, -0.5651677, -0.36369878, -3.8065238, 0
1137, 4021950738, 0.9735681, -0.09335563, 0.08280849, 0.1912983, -0.7887903, 0.11832516, -3.7112494, 0
1138, 4021967405, 0.97287345, -0.09390806, 0.088557504, 0.1919855, -0.7648821, 0.109286994, -3.241673, 0
1139, 4021984072, 0.9721716, -0.095394865, 0.093097985, 0.1926585, -0.8899217, -0.038158916, -2.606566, 0
1140, 4022000739, 0.97156984, -0.09727629, 0.096540295, 0.19305879, -0.8312313, -0.30460948, -2.2040143, 0
1141, 4022017406, 0.9711545, -0.098758884, 0.09905528, 0.19312195, -0.67735726, -0.10910774, -1.9441414, 0
1142, 4022034073, 0.97090834, -0.09970069, 0.10075322, 0.19299679, -0.75565684, 0.06913077, -1.8243089, 0
1143, 4022050740, 0.97076213, -0.10033569, 0.101650745, 0.1929324, -0.8452466, 0.16629156, -1.6365213, 0
1144, 4022067407, 0.97068864, -0.100685395, 0.10199073, 0.19294052, -0.7904097, 0.22715198, -1.5188313, 0
1145, 4022084074, 0.9706973, -0.100448556, 0.1020174, 0.19300684, -0.5413789, 0.09686867, -1.2655745, 0
1146, 4022100741, 0.97078663, -0.09976608, 0.10178819, 0.19303256, -0.55485165, -0.07753955, -1.0431681, 0
1147, 4022117408, 0.97099847, -0.09846966, 0.101252764, 0.19291396, -0.690531, 0.33792785, -1.1984949, 0
1148, 4022134075, 0.9711931, -0.097543314, 0.100172214, 0.19296864, -0.58951014, 0.45324543, -1.0986643, 0
1149, 4022150742, 0.971344, -0.09710178, 0.09868872, 0.19319697, -0.61977214, 0.30546248, -0.8243809, 0
1150, 4022167409, 0.97151, -0.09682207, 0.096933074, 0.1933908, -0.5347769, 0.32657132, -0.6878824, 0
1151, 4022184076, 0.97171557, -0.096462384, 0.094880104, 0.19355573, -0.46161616, 0.3211065, -0.67374134, 0
