DeviceTag:;Xsens DOT 1;;;;;;;;
FirmwareVersion:;1.3.0;;;;;;;;
AppVersion:;2020.1.1;;;;;;;;
Measurement Mode:;Sensor fusion Mode - Extended (Quaternion);;;;;;;;
StartTime:;2020-08-03 15:35:33.439 +0200;;;;;;;;
© Xsens Technologies B. V. 2005-2020;;;;;;;;;
PacketCounter;SampleTimeFine;Quat_W;Quat_X;Quat_Y;Quat_Z;FreeAcc_X;FreeAcc_Y;FreeAcc_Z;Status
1;70199623; 0.07455969; -0.5273082; -0.044915255; -0.8452038; 0.032861248; 4.8697885E-4; 0.07500076;0
2;70216290; 0.07459809; -0.52705514; -0.044834994; -0.84536254; 0.042074796; -0.008305574; 0.019703865;0
3;70232957; 0.0746426; -0.52681726; -0.044890128; -0.845504; -0.00882053; 0.005649765; 0.036153793;0
4;70249624; 0.0747784; -0.52679646; -0.044961482; -0.84550107; -0.06839031; 6.7067856E-4; 0.061320305;0
5;70266291; 0.074882045; -0.5270503; -0.04496655; -0.84533346; -0.051343244; -0.007907692; 0.035128593;0
6;70282958; 0.074927375; -0.5273508; -0.044957064; -0.84514254; -0.0043556527; -0.03594499; 0.06847;0
7;70299625; 0.07488668; -0.5275837; -0.04497915; -0.8449997; 0.025542313; -0.06286707; 0.061670303;0
8;70316292; 0.07484478; -0.5278085; -0.04508738; -0.8448572; 0.0032987543; -0.038133573; 0.071707726;0
9;70332959; 0.07483548; -0.52799314; -0.0452491; -0.8447339; -0.03348271; -0.008430908; 0.10231304;0
10;70349626; 0.07479818; -0.5281438; -0.045334693; -0.8446384; 0.0048079244; -0.020612337; 0.109827995;0
11;70366293; 0.07475462; -0.5282607; -0.04538094; -0.84456664; 0.04881021; -0.038818136; 0.10000324;0
12;70382960; 0.07470728; -0.5283588; -0.04543493; -0.8445066; 0.023289265; -0.01707396; 0.10088444;0
13;70399627; 0.07467862; -0.52840996; -0.04547481; -0.84447503; -0.00474225; -0.014526191; 0.11594391;0
14;70416294; 0.074655995; -0.528386; -0.045473274; -0.8444921; 0.0058507905; -0.01838165; 0.094470024;0
15;70432961; 0.07457317; -0.528353; -0.045407932; -0.8445236; 0.04867529; -0.0121928; 0.07839012;0
16;70449628; 0.0745734; -0.5283032; -0.045386426; -0.8445559; 0.021800214; -0.010301768; 0.06628704;0
17;70466295; 0.074596845; -0.5282372; -0.045410927; -0.8445938; 0.008640606; -0.00661928; 0.07436943;0
18;70482962; 0.07468619; -0.52819747; -0.045525335; -0.8446046; -0.043041926; -0.0025353914; 0.055936813;0
19;70499629; 0.074637346; -0.52815884; -0.04549688; -0.8446346; -0.038024176; -0.033803176; 0.035473824;0
20;70516296; 0.07458259; -0.52811486; -0.045389228; -0.8446727; 0.025343275; -0.07161685; 0.018456459;0
21;70532963; 0.07450333; -0.5280822; -0.045264833; -0.8447068; 0.0142793385; -0.07735345; 0.018776894;0
22;70549630; 0.07479155; -0.52809036; -0.04537049; -0.8446706; -0.0034994236; -0.064600356; 0.033563614;0
23;70566297; 0.0746033; -0.52827024; -0.045146607; -0.8445868; -0.035115566; -0.09444601; 0.07259941;0
24;70582964; 0.07451828; -0.52850753; -0.044964544; -0.8444555; 0.0034265164; -0.085933715; 0.15845203;0
25;70599631; 0.07469526; -0.5287748; -0.044975713; -0.8442719; 0.05291197; -0.048971076; 0.1399622;0
26;70616298; 0.07456236; -0.5292048; -0.044703014; -0.84402865; 0.12243235; -0.09150718; 0.1252842;0
27;70632965; 0.07534718; -0.52969337; -0.044839032; -0.84364533; 0.08015444; -0.17514391; 0.18700218;0
28;70649632; 0.07609818; -0.53021437; -0.044667944; -0.8432595; 0.06573965; -0.28547373; 0.09238148;0
29;70666299; 0.076926984; -0.53077173; -0.04405573; -0.8428659; 0.18417558; -0.4227439; 0.03822422;0
30;70682966; 0.07805747; -0.5312366; -0.043078475; -0.84251946; 0.29274005; -0.415982; -0.0059862137;0
31;70699633; 0.0792752; -0.53179383; -0.041732; -0.8421219; 0.37265223; -0.33991706; -0.0751667;0
32;70716300; 0.080481045; -0.53251445; -0.03993007; -0.8416394; 0.23835579; -0.3304728; 0.042247772;0
33;70732967; 0.08171784; -0.53313637; -0.037758447; -0.8412266; 0.09451204; -0.42190403; 0.2646656;0
34;70749634; 0.08276736; -0.53358513; -0.03506669; -0.840956; 0.22315513; -0.53880256; 0.27770424;0
35;70766301; 0.08409855; -0.5340455; -0.0319147; -0.84065706; 0.32363898; -0.5480978; 0.3383398;0
36;70782968; 0.08556479; -0.5344004; -0.028308759; -0.84041274; 0.22834237; -0.44410935; 0.47529507;0
37;70799635; 0.08707893; -0.53445584; -0.024574166; -0.8403395; 0.22769476; -0.22812763; 0.52915;0
38;70816302; 0.08868783; -0.5340751; -0.021030296; -0.8405093; 0.28899574; -0.13661428; 0.50551796;0
39;70832969; 0.09034205; -0.5334199; -0.017938841; -0.84082097; 0.43956733; -0.12618262; 0.36164665;0
40;70849636; 0.09209979; -0.53257024; -0.015397154; -0.8412192; 0.5355946; -0.06521178; 0.17823887;0
41;70866303; 0.09398385; -0.5315204; -0.013201218; -0.8417118; 0.53917557; -0.048411593; -0.046815872;0
42;70882970; 0.09608987; -0.53046715; -0.011308383; -0.842166; 0.5082387; -0.060543653; -0.36710167;0
43;70899637; 0.09853061; -0.5296502; -0.009488223; -0.8424208; 0.43926474; -0.090127885; -0.64408016;0
44;70916304; 0.10131951; -0.52917624; -0.0075295083; -0.8424073; 0.340145; -0.12422599; -0.9087906;0
45;70932971; 0.104471736; -0.52925074; -0.0053884024; -0.84199184; 0.27223247; -0.058185227; -1.1366425;0
46;70949638; 0.107930504; -0.5298907; -0.0028505889; -0.8411652; 0.13894539; 0.0030345796; -0.9252596;0
47;70966305; 0.11168496; -0.5306372; -5.46847E-5; -0.8402089; -0.034931157; 0.113763906; -0.6881056;0
48;70982972; 0.11571421; -0.531429; 0.0029862209; -0.839157; -0.25590292; 0.17728935; -0.51878643;0
49;70999639; 0.12011086; -0.5321133; 0.0061564595; -0.8380878; -0.2928065; 0.2505587; -0.6236687;0
50;71016306; 0.12516624; -0.5331885; 0.009016954; -0.83663756; -0.26642004; 0.40501752; -0.76579666;0
51;71032973; 0.13082743; -0.5348156; 0.011675097; -0.8346976; -0.4751753; 0.29416773; -0.5176258;0
52;71049640; 0.1366713; -0.53674394; 0.014382649; -0.83247817; -0.645046; 0.102658436; -0.36855888;0
53;71066307; 0.14235796; -0.53898853; 0.01731192; -0.8300156; -0.6416331; -0.04367946; -0.2791958;0
54;71082974; 0.14799482; -0.54153323; 0.020309828; -0.8273009; -0.6535545; -0.17078301; -0.14700127;0
55;71099641; 0.15356277; -0.54422206; 0.023476426; -0.8244331; -0.6537851; -0.3984747; 0.10412216;0
56;71116308; 0.1590519; -0.5469967; 0.027072035; -0.8214403; -0.6137522; -0.47911432; 0.27568722;0
57;71132975; 0.16427329; -0.5498517; 0.03152774; -0.81834185; -0.48058715; -0.4946008; 0.3104992;0
58;71149642; 0.16901109; -0.5527391; 0.03670331; -0.81521016; -0.33024928; -0.28387144; 0.09507561;0
59;71166309; 0.17343944; -0.5556056; 0.04184766; -0.8120777; -0.15246902; 0.17214851; -0.11075592;0
60;71182976; 0.1779287; -0.55815846; 0.046623252; -0.8090902; -0.04753342; 0.53466; 0.21416283;0
61;71199643; 0.18245095; -0.5601079; 0.050635684; -0.8064906; 0.27539483; 0.46397513; 0.75833035;0
62;71216310; 0.18701607; -0.5621994; 0.05349744; -0.8038004; 0.5153736; 0.33571038; 0.83726597;0
63;71232977; 0.19188464; -0.5645583; 0.055451814; -0.80086166; 0.33871314; 0.1783278; 0.760726;0
64;71249644; 0.19687839; -0.56658375; 0.05703485; -0.7981035; 0.15250282; 0.057262678; 0.5440235;0
65;71266311; 0.20166808; -0.56814945; 0.058907975; -0.79565454; 0.069496244; -0.030416202; 0.49909115;0
66;71282978; 0.20597063; -0.56928307; 0.061172742; -0.7935685; 0.12740119; 0.025316307; 0.62973785;0
67;71299645; 0.2098806; -0.57012796; 0.06363024; -0.7917422; 0.1354422; 0.17393309; 0.66641235;0
68;71316312; 0.21370539; -0.570893; 0.06576776; -0.789991; 0.15074302; 0.42984536; 0.5142126;0
69;71332979; 0.2178071; -0.5716517; 0.06724362; -0.7881958; 0.09776908; 0.55137366; 0.48353672;0
70;71349646; 0.22219032; -0.5721994; 0.0680147; -0.786507; 0.0982509; 0.4021026; 0.48793507;0
71;71366313; 0.22685109; -0.5725054; 0.0683437; -0.7849238; 0.13866283; 0.047889438; 0.36886597;0
72;71382980; 0.23180448; -0.57262826; 0.068696894; -0.7833546; -0.03272403; -0.20046161; 0.11491203;0
73;71399647; 0.2368969; -0.5727821; 0.06944438; -0.78165096; -0.13140292; -0.2816136; -0.25123978;0
74;71416314; 0.24202625; -0.57321537; 0.07095411; -0.77962357; -0.40967116; -0.26626372; -0.5023613;0
75;71432981; 0.24700469; -0.57391906; 0.07325988; -0.777328; -0.5954306; -0.17325461; -0.4274435;0
76;71449648; 0.25133958; -0.5746906; 0.076564856; -0.7750464; -0.5737002; -0.2509134; -0.042689323;0
77;71466315; 0.2541444; -0.57519764; 0.08126136; -0.77327543; -0.18479533; -0.5526095; -0.038100243;0
78;71482982; 0.25574046; -0.57549196; 0.08711051; -0.77189225; -0.1362751; -0.38402754; -0.30203152;0
79;71499649; 0.25674596; -0.5759476; 0.09349969; -0.77046984; -0.16760118; 0.264619; -0.35791588;0
80;71516316; 0.25777134; -0.5765718; 0.099509165; -0.7689062; -0.2533315; 0.9982122; -0.33254528;0
81;71532983; 0.2596528; -0.5774795; 0.10483846; -0.7668811; -0.14694317; 1.1806309; 0.14844894;0
82;71549650; 0.26193267; -0.5782364; 0.1099461; -0.7648176; -0.0809721; 0.64427465; 0.8124647;0
83;71566317; 0.26390946; -0.57865787; 0.114537165; -0.76314384; 0.0950989; 0.32510507; 0.79145145;0
84;71582984; 0.26595682; -0.5792255; 0.11834863; -0.7614187; 0.039784662; 0.5333868; 0.5386181;0
85;71599651; 0.26853615; -0.5796843; 0.12152281; -0.75966233; -0.15543152; 0.9145908; 0.54461575;0
86;71616318; 0.27165744; -0.5800157; 0.12396541; -0.757903; -0.15818918; 1.1684175; 0.6610203;0
87;71632985; 0.27526212; -0.5804638; 0.12541185; -0.75601894; -0.075417906; 1.0849135; 0.6483841;0
88;71649652; 0.27910578; -0.58098596; 0.1263008; -0.754058; -0.023097632; 0.560694; 0.6112566;0
89;71666319; 0.28334257; -0.5809279; 0.12675989; -0.7524439; 0.030675504; -0.110904; 0.6729479;0
90;71682986; 0.28769547; -0.5803851; 0.1269472; -0.7511785; -0.12443637; -0.5110095; 0.59670734;0
91;71699653; 0.2917468; -0.57984495; 0.12723336; -0.74998355; -0.3387456; -0.6856489; 0.3989792;0
92;71716320; 0.29530007; -0.57951325; 0.12823474; -0.7486776; -0.52233434; -0.55652523; 0.275712;0
93;71732987; 0.29853022; -0.57920283; 0.12993956; -0.7473419; -0.55286366; -0.33738542; 0.2359991;0
94;71749654; 0.30158895; -0.5788574; 0.1319824; -0.74602205; -0.4287718; -0.23937298; 0.13287067;0
95;71766321; 0.30439445; -0.57852983; 0.1342785; -0.74472594; -0.27314484; -0.23656176; 0.24193096;0
96;71782988; 0.3067363; -0.5780955; 0.13642873; -0.7437108; -0.11971734; -0.2638917; 0.22680187;0
97;71799655; 0.3088192; -0.5775213; 0.13825291; -0.7429578; -0.17496896; -0.24853143; 0.11763191;0
98;71816322; 0.31057; -0.576945; 0.13996597; -0.7423547; -0.055088177; -0.2500036; 0.085884094;0
99;71832989; 0.31214237; -0.5766149; 0.14127722; -0.74170315; -0.08989082; -0.23289245; 0.00949955;0
100;71849656; 0.31379467; -0.5762826; 0.14193931; -0.74113744; -0.2996161; -0.15954824; 0.10184479;0
101;71866323; 0.31523952; -0.57578677; 0.14237934; -0.74082524; -0.25440732; -0.18698646; 0.2707348;0
102;71882990; 0.31625348; -0.57521755; 0.14254999; -0.74080247; -0.12498316; -0.14507298; 0.27282333;0
103;71899657; 0.31684154; -0.5749961; 0.14244935; -0.74074244; -0.2099379; -0.16269967; 0.15225315;0
104;71916324; 0.31735635; -0.57477117; 0.14224948; -0.74073493; -0.36749354; -0.1395445; 0.1732521;0
105;71932991; 0.31795117; -0.57476944; 0.14187098; -0.74055386; -0.4944822; 0.04590956; 0.19540882;0
106;71949658; 0.31878263; -0.5751397; 0.14097783; -0.7400792; -0.5793019; 0.10894882; 0.22096443;0
107;71966325; 0.31905064; -0.57577705; 0.14052439; -0.7395542; -0.14000474; -0.24254441; 0.31947613;0
108;71982992; 0.31879163; -0.5759921; 0.14025643; -0.7395494; 0.37929708; -0.76199704; 0.2449274;0
109;71999659; 0.3186096; -0.57553697; 0.13945766; -0.740133; 0.42380482; -1.0477823; 0.18846798;0
110;72016326; 0.3186677; -0.5748534; 0.13791575; -0.7409277; 0.02452032; -0.98192126; 0.12636948;0
111;72032993; 0.31884554; -0.57417655; 0.13566539; -0.7417909; -0.30537626; -0.8135807; 0.32479858;0
112;72049660; 0.318304; -0.57344633; 0.13371707; -0.74294126; -0.15795065; -0.7832722; 0.36239433;0
113;72066327; 0.3171451; -0.57238966; 0.13199085; -0.74455863; 0.2561074; -0.7928314; 0.22071552;0
114;72082994; 0.31598508; -0.57119864; 0.1297454; -0.7463591; 0.33872384; -0.6657967; 0.23069954;0
115;72099661; 0.31493804; -0.5700614; 0.12705451; -0.748132; 0.24941683; -0.7912771; 0.40800953;0
116;72116328; 0.3134445; -0.5688378; 0.124322556; -0.75014675; 0.14615218; -0.9277218; 0.4252529;0
117;72132995; 0.3112752; -0.5674588; 0.121741965; -0.752514; 0.1710014; -0.99742734; 0.30736732;0
118;72149662; 0.30821973; -0.5656546; 0.11974293; -0.7554449; 0.3605138; -1.0320314; 0.3770857;0
119;72166329; 0.30453542; -0.563429; 0.11740992; -0.7589606; 0.61396563; -0.9785376; 0.22543812;0
120;72182996; 0.300796; -0.5611721; 0.11446462; -0.7625652; 0.40534824; -0.75507694; -0.007845879;0
121;72199663; 0.29702133; -0.55898154; 0.111495346; -0.7660857; 0.27249733; -0.9476928; 0.012964249;0
122;72216330; 0.29277465; -0.55669767; 0.10883175; -0.7697574; 0.31567752; -1.313145; 0.12484169;0
123;72232997; 0.28783482; -0.55441064; 0.10636339; -0.77360636; 0.21206523; -1.6496183; 0.10268211;0
124;72249664; 0.28232434; -0.5518793; 0.10395281; -0.7777636; -0.035649966; -1.589274; 0.025352478;0
125;72266331; 0.27618262; -0.54910207; 0.1022657; -0.7821458; -0.15591285; -1.4184873; -0.030570984;0
126;72282998; 0.26932034; -0.5461637; 0.101589195; -0.7866712; -0.008776376; -1.395316; 0.0046901703;0
127;72299665; 0.261828; -0.5429599; 0.10194098; -0.79135877; 0.052552715; -1.5880792; 0.11525059;0
128;72316332; 0.25369188; -0.5395285; 0.103122965; -0.7961878; -0.05147896; -1.462053; 0.06589413;0
129;72332999; 0.24523598; -0.5360394; 0.10487128; -0.8009513; -0.21162352; -1.2451973; 0.07959652;0
130;72349666; 0.23643163; -0.5324019; 0.10730907; -0.80568796; -0.3332554; -1.0688334; 0.10689354;0
131;72366333; 0.22734031; -0.5287306; 0.11011859; -0.81032974; -0.14761299; -0.8746289; 0.007619858;0
132;72383000; 0.21814732; -0.5251219; 0.11337858; -0.8147417; -0.06789069; -0.7451891; -0.020672798;0
133;72399667; 0.2087492; -0.5212875; 0.11723351; -0.8191089; 0.041757934; -0.7128113; 0.02765274;0
134;72416334; 0.19920906; -0.5171681; 0.1214379; -0.82347184; 0.16955079; -0.49899322; 0.018249512;0
135;72433001; 0.18956396; -0.512806; 0.12595952; -0.8277861; 0.18362693; -0.19915183; -0.07228565;0
136;72449668; 0.17995302; -0.5082221; 0.13087752; -0.8319847; 0.2620966; 0.09646914; -0.08953285;0
137;72466335; 0.1705575; -0.5036265; 0.13585402; -0.83595103; 0.40645987; 0.3044086; -0.11165714;0
138;72483002; 0.16152328; -0.49903476; 0.14059526; -0.83970684; 0.31389722; 0.32231435; -0.20529842;0
139;72499669; 0.15247382; -0.49462768; 0.14566423; -0.84313524; 0.25305778; 0.2486809; -0.20821285;0
140;72516336; 0.14306746; -0.49075624; 0.15104967; -0.84609336; 0.4230122; 0.120938055; -0.2337265;0
141;72533003; 0.13335268; -0.48696047; 0.15659572; -0.8488606; 0.27746803; 0.013966431; -0.2642336;0
142;72549670; 0.12315251; -0.48229; 0.16250165; -0.85195255; 0.22761422; 0.34391195; -0.30277538;0
143;72566337; 0.11245381; -0.47721335; 0.16874205; -0.85507196; 0.5421546; 0.72867584; -0.302207;0
144;72583004; 0.10135268; -0.47207078; 0.1750282; -0.8580454; 0.77741927; 1.0287395; -0.24207497;0
145;72599671; 0.089911096; -0.46713358; 0.18090811; -0.8607988; 1.0671663; 1.0576836; -0.29484463;0
146;72616338; 0.078427896; -0.4626162; 0.18605909; -0.86325973; 1.0970919; 1.1675873; -0.36466408;0
147;72633005; 0.06662223; -0.45834786; 0.19035706; -0.8655883; 0.939827; 1.3123552; -0.22612381;0
148;72649672; 0.054061245; -0.45456898; 0.1939522; -0.867656; 0.9926931; 1.0888731; -0.22433376;0
149;72666339; 0.04095384; -0.45150194; 0.19718851; -0.86924416; 0.8528667; 0.93280053; -0.14920998;0
150;72683006; 0.027281202; -0.44899946; 0.20045549; -0.8703293; 0.5998826; 0.87652457; -0.2831154;0
151;72699673; 0.0129327895; -0.44657502; 0.2041479; -0.8710495; 0.36261213; 0.7278135; -0.3154583;0
152;72716340; -0.0023122076; -0.44361898; 0.20868835; -0.87157685; 0.045698572; 0.49583355; -0.27843857;0
153;72733007; -0.018705241; -0.43993795; 0.21414581; -0.8719211; -0.054859497; 0.6513549; -0.11374855;0
154;72749674; -0.03608317; -0.43605426; 0.22026406; -0.87180185; 0.026994921; 0.9478203; -0.11326218;0
155;72766341; -0.053810555; -0.43225482; 0.22668608; -0.87113357; -0.018098854; 1.2393804; -0.23239136;0
156;72783008; -0.07172561; -0.42845112; 0.233388; -0.8699514; -0.07162883; 1.4034584; -0.2184391;0
157;72799675; -0.08991596; -0.424684; 0.24067321; -0.86812156; -0.09709603; 1.3780059; -0.022890091;0
158;72816342; -0.10866697; -0.42035767; 0.24872461; -0.86581; -0.12857078; 1.5630659; 0.026538849;0
159;72833009; -0.12798005; -0.41555145; 0.25756446; -0.8629014; 0.17081878; 1.6596568; -0.27437305;0
160;72849676; -0.14730468; -0.4106266; 0.26708445; -0.85927486; 0.37661743; 1.802959; -0.44371128;0
161;72866343; -0.16682394; -0.40518966; 0.27746758; -0.85498726; 0.82988757; 1.943161; -0.44807148;0
162;72883010; -0.1861402; -0.3991105; 0.28815582; -0.8503112; 1.4526076; 2.051807; -0.2394619;0
163;72899677; -0.20461369; -0.3930212; 0.29839966; -0.8453552; 1.7088604; 1.9819101; 0.20854092;0
164;72916344; -0.22224592; -0.38773093; 0.307616; -0.84002614; 1.7584463; 1.7772214; 0.21086597;0
165;72933011; -0.23873512; -0.3836327; 0.31582657; -0.8343171; 1.8906319; 1.5192641; -0.15571785;0
166;72949678; -0.25328907; -0.3801726; 0.32308665; -0.82881147; 1.9304713; 1.445066; -0.30729008;0
167;72966345; -0.26575714; -0.37682196; 0.32942957; -0.82392645; 1.8441706; 1.3609327; -0.33860683;0
168;72983012; -0.27659568; -0.37341353; 0.33524346; -0.81955415; 1.545928; 1.1419775; -0.2515974;0
169;72999679; -0.28633565; -0.3695651; 0.34124887; -0.8154649; 0.9804608; 1.026176; 0.057507515;0
170;73016346; -0.2956456; -0.36496457; 0.34727168; -0.81166315; 0.65398806; 1.1955652; 0.42116165;0
171;73033013; -0.30507863; -0.35990602; 0.35258028; -0.8081351; 0.9980726; 1.3877671; 0.537035;0
172;73049680; -0.31432137; -0.35550463; 0.35719353; -0.80450696; 1.487139; 1.0437186; 0.47828484;0
173;73066347; -0.32281876; -0.35196608; 0.36151174; -0.80076045; 1.5532758; 0.6450793; 0.5501051;0
174;73083014; -0.330607; -0.34904665; 0.36540976; -0.79708314; 1.2859375; 0.5320799; 0.75209713;0
175;73099681; -0.33778664; -0.34701183; 0.367881; -0.79381776; 1.0915492; 0.37142846; 0.6199112;0
176;73116348; -0.34377882; -0.3458399; 0.36897725; -0.791244; 0.6871813; 0.4066549; 0.48132515;0
177;73133015; -0.34882912; -0.34474808; 0.3696211; -0.78920686; 0.39562955; 0.46163237; 0.6808338;0
178;73149682; -0.3537201; -0.34348524; 0.37009078; -0.78735834; 0.12000522; 0.54522455; 0.93800163;0
179;73166349; -0.3593919; -0.342178; 0.37020954; -0.78530043; 0.32061267; 0.4845288; 0.9519615;0
180;73183016; -0.365577; -0.34128994; 0.36989132; -0.7829784; 0.88100964; 0.0017799455; 0.7408476;0
181;73199683; -0.37147346; -0.34162745; 0.3691989; -0.78037846; 0.88384175; -0.28236482; 0.8677435;0
182;73216350; -0.37659103; -0.34312344; 0.36789572; -0.7778807; 0.13355537; -0.27724022; 1.1097202;0
183;73233017; -0.38138407; -0.34531343; 0.3657866; -0.77556765; -0.69977885; -0.20465684; 1.0969257;0
184;73249684; -0.38649628; -0.3473703; 0.36367938; -0.77310544; -1.14591; -0.32598293; 0.6755705;0
185;73266351; -0.39182237; -0.34906712; 0.3623887; -0.77026105; -1.2872701; -0.32369247; 0.66935444;0
186;73283018; -0.397206; -0.35095; 0.36176312; -0.76693493; -1.1234654; -0.33265668; 1.0895061;0
187;73299685; -0.40214533; -0.35411957; 0.36110187; -0.7632065; -0.85970044; -0.5971326; 1.2851467;0
188;73316352; -0.40615267; -0.35936797; 0.36016977; -0.7590603; -0.799416; -0.5246618; 1.3959827;0
189;73333019; -0.40924743; -0.36622232; 0.3591468; -0.7545937; -1.0162796; -0.6167598; 1.3090172;0
190;73349686; -0.4118757; -0.374236; 0.35791478; -0.74980193; -1.1875647; -0.51280063; 1.3962269;0
191;73366353; -0.41458732; -0.38280416; 0.35652313; -0.7446274; -1.0911651; -0.3828207; 1.3216629;0
192;73383020; -0.41745844; -0.39187625; 0.35509503; -0.7389648; -0.8581539; -0.35874367; 1.0326385;0
193;73399687; -0.42011523; -0.4016166; 0.35364586; -0.73289967; -0.73367906; -0.6735544; 0.41628647;0
194;73416354; -0.42183998; -0.4120175; 0.35214797; -0.7268318; -0.7967546; -0.67279065; 0.005788803;0
195;73433021; -0.42270607; -0.42261758; 0.35079345; -0.72087306; -0.8128492; -0.4165574; -0.1315813;0
196;73449688; -0.4229843; -0.43311125; 0.3499522; -0.7148654; -0.81044465; -0.23775564; -0.09841061;0
197;73466355; -0.4230735; -0.44295543; 0.3501051; -0.708679; -0.6047058; 0.0083497735; 0.11084843;0
198;73483022; -0.42362785; -0.45127183; 0.3510273; -0.7026188; -0.2813238; 0.075169645; 0.062449455;0
199;73499689; -0.42461944; -0.45815903; 0.3521975; -0.6969545; -0.22792757; -0.39802706; -0.38508224;0
200;73516356; -0.42563677; -0.46413818; 0.35348147; -0.6917079; -0.37561485; -0.6598898; -0.5141125;0
201;73533023; -0.4266552; -0.46963403; 0.35462746; -0.6867669; -0.11436432; -0.5606209; -0.28054047;0
202;73549690; -0.42774528; -0.47483644; 0.355086; -0.6822598; 0.32688367; -0.51402235; -0.36593628;0
203;73566357; -0.428404; -0.47978416; 0.3547629; -0.6785429; 0.47396; -0.52202994; -0.7177839;0
204;73583024; -0.42816886; -0.4845626; 0.35404196; -0.6756662; 0.42310512; -0.43946123; -0.92029953;0
205;73599691; -0.4269613; -0.4895988; 0.35319987; -0.67323625; 0.27372324; -0.3074328; -0.8865223;0
206;73616358; -0.42541414; -0.49458826; 0.3520421; -0.6711717; -0.17474946; -0.11794466; -0.5011034;0
207;73633025; -0.4241241; -0.49898264; 0.35045844; -0.66956264; -0.49406108; -0.057484627; -0.27869606;0
208;73649692; -0.4231732; -0.50277233; 0.3488339; -0.66817635; -0.5651289; -0.14281182; -0.37946606;0
209;73666359; -0.4223265; -0.5061585; 0.34755132; -0.6668223; -0.5283511; -0.105849475; -0.50359917;0
210;73683026; -0.4215457; -0.50906926; 0.346804; -0.6654884; -0.5419453; -0.111025594; -0.4941368;0
211;73699693; -0.42084867; -0.5113556; 0.34656754; -0.66429883; -0.5469651; -0.0459679; -0.4095564;0
212;73716360; -0.42037708; -0.5129373; 0.34666383; -0.6633271; -0.48000738; -0.034057114; -0.39333153;0
213;73733027; -0.420105; -0.513976; 0.34712154; -0.6624555; -0.40456492; -0.101670906; -0.3964424;0
214;73749694; -0.4200442; -0.5146572; 0.3478631; -0.6615755; -0.458802; -0.12817127; -0.2413187;0
215;73766361; -0.4204127; -0.5148454; 0.34886435; -0.66066724; -0.51146793; -0.12214536; -0.106957436;0
216;73783028; -0.42114758; -0.5146895; 0.34997478; -0.6597327; -0.43184277; -0.12073812; -0.0735836;0
217;73799695; -0.4219684; -0.5143081; 0.3510058; -0.6589576; -0.36483237; -0.12480584; -0.09068966;0
218;73816362; -0.4227473; -0.51375073; 0.35198432; -0.65837073; -0.21629338; -0.23113161; -0.1490612;0
219;73833029; -0.42322913; -0.5133035; 0.35297906; -0.65787727; -0.12105149; -0.1798649; -0.056268692;0
220;73849696; -0.42349067; -0.51298666; 0.3538264; -0.65750086; -0.08609093; -0.06723873; 0.091983795;0
221;73866363; -0.42351803; -0.51285344; 0.35421437; -0.65737844; -0.062129002; -0.023412982; 0.14954472;0
222;73883030; -0.4232745; -0.5128972; 0.3541148; -0.65755457; -0.006283173; -0.005016525; 0.25768757;0
223;73899697; -0.4228586; -0.51310056; 0.3538593; -0.65780115; 0.081041664; -0.03673167; 0.3056898;0
224;73916364; -0.42233187; -0.51337713; 0.35352594; -0.65810287; 0.031139154; -0.019669587; 0.39463997;0
225;73933031; -0.42189744; -0.51354975; 0.35324162; -0.6583992; -0.09949232; -0.032473974; 0.48224068;0
226;73949698; -0.4217823; -0.5135532; 0.35295725; -0.6586228; -0.16921495; -0.10067448; 0.44002533;0
227;73966365; -0.42196876; -0.5134779; 0.35265973; -0.65872145; -0.21083698; -0.15671298; 0.338727;0
228;73983032; -0.422383; -0.51346225; 0.35240126; -0.6586066; -0.27718198; -0.21660954; 0.25806522;0
229;73999699; -0.42301014; -0.51337576; 0.35209122; -0.6584373; -0.36522117; -0.18721691; 0.242486;0
230;74016366; -0.42373034; -0.5131251; 0.35162702; -0.65841746; -0.29671267; -0.10429003; 0.2847128;0
231;74033033; -0.42441967; -0.512792; 0.35102314; -0.6585553; -0.09633755; 9.901624E-4; 0.325449;0
232;74049700; -0.42495656; -0.5125922; 0.3503612; -0.6587173; 0.047795005; -0.04170528; 0.326931;0
233;74066367; -0.425264; -0.5126636; 0.34978452; -0.6587696; -0.006873582; -0.19653115; 0.24289227;0
234;74083034; -0.42554078; -0.51276153; 0.3494205; -0.658708; -0.13816084; -0.1412812; 0.27446747;0
235;74099701; -0.42603013; -0.5127203; 0.34906644; -0.65861136; -0.13722667; -0.10296929; 0.1868639;0
236;74116368; -0.42664802; -0.5124869; 0.34858868; -0.6586461; -0.073003575; -0.057667907; 0.0803833;0
237;74133035; -0.4272404; -0.51205415; 0.34819257; -0.6588084; 0.009380168; -0.17010453; -0.107108116;0
238;74149702; -0.42764324; -0.51161724; 0.34799954; -0.6589883; 0.07848065; -0.22966604; -0.15130806;0
239;74166369; -0.42796835; -0.51115364; 0.34778202; -0.65925175; 0.13086292; -0.12978995; -0.11798954;0
240;74183036; -0.42814967; -0.51078016; 0.3473903; -0.6596299; 0.19656456; -0.04413956; -0.16389656;0
241;74199703; -0.42803365; -0.51058304; 0.34675476; -0.66019195; 0.15738732; 0.002033968; -0.1782732;0
242;74216370; -0.4277879; -0.5104149; 0.34598044; -0.66088706; 0.09654262; -0.048929892; -0.2642374;0
243;74233037; -0.42742488; -0.51025444; 0.34531462; -0.66159385; 0.022499932; -0.120559536; -0.3696003;0
244;74249704; -0.4268651; -0.5101451; 0.34491822; -0.6622459; -0.025195498; -0.10537787; -0.36445045;0
245;74266371; -0.42615348; -0.51003397; 0.34476542; -0.6628691; -0.057728257; -0.01614233; -0.22811699;0
246;74283038; -0.42554757; -0.5096772; 0.344846; -0.66349065; -0.04592353; 0.03337205; -0.18628216;0
247;74299705; -0.42517903; -0.50909716; 0.3451382; -0.66402; -0.0719743; -0.065099716; -0.27136517;0
248;74316372; -0.42491993; -0.5085276; 0.34542057; -0.6644754; -0.15610011; -0.16485265; -0.3736868;0
249;74333039; -0.42452666; -0.5081984; 0.34576064; -0.6648016; -0.15961552; -0.11151285; -0.31527328;0
250;74349706; -0.4240547; -0.5080969; 0.34617454; -0.664965; -0.15690531; -0.059910413; -0.2313919;0
251;74366373; -0.4236859; -0.5079666; 0.34661; -0.6650728; -0.15382977; -0.061175942; -0.108205795;0
252;74383040; -0.42345086; -0.50782394; 0.3469574; -0.66515046; 0.03541652; -0.113901086; -0.14100838;0
253;74399707; -0.42303175; -0.5079796; 0.34729823; -0.6651202; 0.13866934; -0.19571957; -0.18229294;0
254;74416374; -0.42235374; -0.5082743; 0.3476252; -0.6651553; 0.093718424; -0.25480232; -0.14631844;0
255;74433041; -0.42148638; -0.50855184; 0.34793296; -0.6653323; -0.0071900766; -0.25337204; -0.048620224;0
256;74449708; -0.4206552; -0.50871956; 0.34819582; -0.66559243; -0.11829468; -0.18914717; 0.0847435;0
257;74466375; -0.42008778; -0.5087606; 0.3482798; -0.66587543; -0.119332224; -0.17534256; 0.044672012;0
258;74483042; -0.4196522; -0.5089005; 0.3482319; -0.66606826; -0.04590755; -0.18881011; -0.05868244;0
259;74499709; -0.41924682; -0.50900483; 0.34820846; -0.66625607; 0.044546243; -0.19719408; -0.035123825;0
260;74516376; -0.41876557; -0.5091053; 0.3482133; -0.6664794; 0.14193296; -0.16264099; -0.0034484863;0
261;74533043; -0.4182015; -0.5092303; 0.34821668; -0.66673625; 0.18915746; -0.17731461; -0.048994064;0
262;74549710; -0.4175978; -0.50927705; 0.34824234; -0.6670654; 0.15019087; -0.20100409; -0.0076093674;0
263;74566377; -0.4168963; -0.50932336; 0.34815067; -0.66751647; -0.010736333; -0.17284144; 0.08519745;0
264;74583044; -0.41623265; -0.50931966; 0.34796938; -0.668028; -0.13026883; -0.14629593; 0.14623928;0
265;74599711; -0.4157347; -0.50916606; 0.34787622; -0.6685034; -0.09964163; -0.09259516; 0.121593475;0
266;74616378; -0.41534635; -0.508886; 0.3479344; -0.6689276; -0.025006853; -0.1484401; 0.12186718;0
267;74633045; -0.41493645; -0.50864005; 0.34806174; -0.66930276; 0.012200007; -0.16938102; 0.16783714;0
268;74649712; -0.4145484; -0.5083845; 0.34824032; -0.6696444; 0.00673411; -0.22568886; 0.18985748;0
269;74666379; -0.41418907; -0.50815094; 0.34835556; -0.669984; 0.0625349; -0.26709643; 0.17496967;0
270;74683046; -0.41373754; -0.5080728; 0.34829047; -0.6703559; 0.16200967; -0.22377491; 0.12878513;0
271;74699713; -0.41308415; -0.50816596; 0.34801242; -0.67083246; 0.11430788; -0.18255733; 0.17130947;0
272;74716380; -0.4123996; -0.5082669; 0.34767592; -0.67135143; -0.023961259; -0.17334302; 0.239851;0
273;74733047; -0.4119241; -0.5081997; 0.34745365; -0.6718091; -0.08264638; -0.20484203; 0.27479076;0
274;74749714; -0.41171932; -0.50788456; 0.3474086; -0.67219627; -0.07211869; -0.20165987; 0.15698051;0
275;74766381; -0.41160783; -0.5074272; 0.34748435; -0.67257065; -0.015252524; -0.25950548; 0.030400276;0
276;74783048; -0.41139236; -0.5069776; 0.3475012; -0.6730329; 0.04896979; -0.2233878; 0.0058603287;0
277;74799715; -0.41113815; -0.5065528; 0.3474443; -0.67353696; 0.07282656; -0.1691803; 0.060043335;0
278;74816382; -0.41085437; -0.50612605; 0.34733757; -0.67408586; 0.03975066; -0.10801331; 0.15324974;0
279;74833049; -0.41065195; -0.50563663; 0.34724554; -0.6746239; 5.5140647E-4; -0.12595603; 0.16285992;0
280;74849716; -0.41042033; -0.5052716; 0.34722593; -0.6750481; 0.0031450507; -0.15376328; 0.05005455;0
281;74866383; -0.41004786; -0.5050162; 0.34730062; -0.67542714; -0.0044503664; -0.12950452; 0.040452957;0
282;74883050; -0.4095878; -0.5047431; 0.34741545; -0.6758511; 0.0095069; -0.07341998; 0.13707542;0
283;74899717; -0.40917447; -0.50439817; 0.34751225; -0.67630905; -0.0027304343; -0.07764192; 0.17045116;0
284;74916384; -0.40890327; -0.50401086; 0.3475752; -0.6767294; 0.013397255; -0.13175529; 0.15085697;0
285;74933051; -0.4086673; -0.50370175; 0.34765017; -0.67706347; 0.04921364; -0.17142259; 0.09174347;0
286;74949718; -0.40834096; -0.5034725; 0.3477303; -0.67738974; 0.12096488; -0.17159693; 0.029331207;0
287;74966385; -0.4078549; -0.50329554; 0.34767777; -0.6778409; 0.13207671; -0.16862287; 0.03103447;0
288;74983052; -0.40732995; -0.50302505; 0.34734157; -0.67852944; 0.055809733; -0.15775299; 0.13317966;0
289;74999719; -0.40690753; -0.50274074; 0.34681138; -0.6792645; 0.01114972; -0.16240741; 0.15394688;0
290;75016386; -0.4065768; -0.50237596; 0.34637484; -0.6799546; -0.062639505; -0.16492663; 0.1907444;0
291;75033053; -0.40636125; -0.50186855; 0.34611297; -0.68059117; -0.15125781; -0.16423665; 0.31600285;0
292;75049720; -0.4063088; -0.5013706; 0.34596792; -0.6810631; -0.18593472; -0.12659952; 0.3881464;0
293;75066387; -0.40637073; -0.5008907; 0.3459782; -0.681374; -0.16850485; -0.08598074; 0.4197855;0
294;75083054; -0.40650463; -0.50041145; 0.3460708; -0.6815992; -0.15612179; -0.14493877; 0.35113811;0
295;75099721; -0.4066271; -0.5001549; 0.34610248; -0.68169844; -0.27703202; -0.18880005; 0.39593697;0
296;75116388; -0.4071383; -0.49981928; 0.3461947; -0.6815925; -0.4258361; -0.19536865; 0.6178522;0
297;75133055; -0.4082219; -0.49943012; 0.34629223; -0.68118; -0.4153616; -0.24125832; 0.63694763;0
298;75149722; -0.40938574; -0.49923357; 0.34632984; -0.68060625; -0.16624603; -0.27443278; 0.41053867;0
299;75166389; -0.4101476; -0.4993885; 0.34644157; -0.6799768; 0.1648921; -0.30515867; 0.22757244;0
300;75183056; -0.41039035; -0.49980938; 0.34649214; -0.67949516; 0.25536412; -0.2188878; 0.27630997;0
301;75199723; -0.41053987; -0.50002307; 0.3466035; -0.67919075; 0.51500607; -0.09190227; 0.20110989;0
302;75216390; -0.4107455; -0.49972978; 0.34681398; -0.6791749; 0.8546799; -0.24370746; -0.010979652;0
303;75233057; -0.4107599; -0.49911448; 0.34696248; -0.6795426; 0.8406927; -0.35782647; -0.23780727;0
304;75249724; -0.4104529; -0.49837926; 0.34700513; -0.6802455; 0.6169957; -0.33953774; -0.26928616;0
305;75266391; -0.4100156; -0.49745408; 0.34689406; -0.68124235; 0.38041446; -0.17015013; -0.0681839;0
306;75283058; -0.409797; -0.49613714; 0.34672812; -0.6824178; 0.20673127; -0.014820697; 0.12892151;0
307;75299725; -0.40989092; -0.49449578; 0.34657818; -0.68362784; 0.1739322; -0.008370114; 0.11531639;0
308;75316392; -0.4099444; -0.49295044; 0.34637582; -0.68481344; 0.27877185; -0.06657334; -0.0962019;0
309;75333059; -0.4095129; -0.49191555; 0.34580693; -0.6861021; 0.33279762; -0.11554524; -0.22950077;0
310;75349726; -0.40847224; -0.49145067; 0.3446803; -0.6876209; 0.26361117; -0.08853382; -0.21664143;0
311;75366393; -0.4071068; -0.49138975; 0.3430662; -0.68927926; 0.15309866; -0.06679148; -0.22614288;0
312;75383060; -0.4054794; -0.4917295; 0.34118354; -0.69092876; -0.06778868; -0.060455784; -0.25771904;0
313;75399727; -0.4036777; -0.4921031; 0.3393113; -0.69263756; -0.2175103; 0.09292685; -0.07819748;0
314;75416394; -0.40191823; -0.49241334; 0.33772397; -0.6942143; -0.32043746; 0.0863216; -0.060056686;0
315;75433061; -0.400443; -0.49263126; 0.3366942; -0.6954114; -0.543964; -0.021393096; -0.020867348;0
316;75449728; -0.39964783; -0.49247676; 0.33640355; -0.69611865; -0.85497427; -0.13379061; 0.2686062;0
317;75466395; -0.3999612; -0.49194273; 0.3365776; -0.696232; -0.9874862; -0.28132257; 0.5769253;0
318;75483062; -0.40105486; -0.49148935; 0.33697152; -0.6957324; -0.8661462; -0.32562998; 0.62376785;0
319;75499729; -0.4022596; -0.49132514; 0.33750927; -0.6948917; -0.64795154; -0.3992726; 0.7534075;0
320;75516396; -0.4033091; -0.4914857; 0.33790204; -0.69397837; -0.43564308; -0.416946; 0.9943104;0
321;75533063; -0.40412542; -0.4921804; 0.33821493; -0.6928578; -0.12184396; -0.4725397; 1.1323204;0
322;75549730; -0.40459612; -0.49349168; 0.33835277; -0.69158185; 0.06637418; -0.5517352; 1.3617773;0
323;75566397; -0.405023; -0.49506235; 0.33814937; -0.69030786; 0.14213155; -0.8515305; 1.4270096;0
324;75583064; -0.40540412; -0.49684823; 0.33740276; -0.68916523; 0.19608378; -0.99564964; 1.4185944;0
325;75599731; -0.4053911; -0.49899736; 0.3356893; -0.68845665; 0.32853678; -1.0166297; 1.2954054;0
326;75616398; -0.4049196; -0.5013412; 0.33309507; -0.6882912; 0.5438219; -0.92183155; 1.1825867;0
327;75633065; -0.4039397; -0.5037164; 0.32998285; -0.68863195; 0.7198731; -0.89886105; 1.0538969;0
328;75649732; -0.4026046; -0.5060264; 0.3267413; -0.6892656; 0.8894715; -0.8524023; 0.9901962;0
329;75666399; -0.40100634; -0.5084157; 0.32320777; -0.6901044; 1.0148178; -0.8880497; 0.92875767;0
330;75683066; -0.39895388; -0.5110341; 0.3190588; -0.69128984; 1.1227652; -0.78446645; 0.97045517;0
331;75699733; -0.3963353; -0.51389205; 0.314101; -0.69294584; 1.2642906; -0.6902457; 1.0362873;0
332;75716400; -0.3931188; -0.5170291; 0.30841902; -0.69499385; 1.2186083; -0.71405953; 1.0374804;0
333;75733067; -0.38910055; -0.52064; 0.302244; -0.6972686; 1.074132; -0.75724167; 0.85226154;0
334;75749734; -0.38428068; -0.5245105; 0.29598114; -0.699723; 0.99279827; -0.58345914; 0.6549349;0
335;75766401; -0.37888187; -0.5282965; 0.28970182; -0.7024418; 0.9955807; -0.49074683; 0.28164482;0
336;75783068; -0.37261605; -0.5320787; 0.28341475; -0.7054967; 1.0464311; -0.2771144; 0.012562752;0
337;75799735; -0.36543632; -0.5359044; 0.27678445; -0.70898044; 1.1967196; 0.07668875; -0.31503773;0
338;75816402; -0.35692856; -0.54018897; 0.26937914; -0.7129045; 1.3710796; 0.4756891; -0.611866;0
339;75833069; -0.34637326; -0.5453766; 0.26087838; -0.7173092; 1.2761834; 0.9534887; -0.7080431;0
340;75849736; -0.33355612; -0.551591; 0.25098953; -0.72214407; 0.8775223; 1.3743107; -0.8999281;0
341;75866403; -0.3189066; -0.5584652; 0.24063838; -0.72698593; 0.33482313; 1.4261873; -1.2009048;0
342;75883070; -0.303425; -0.56496173; 0.23129052; -0.73161215; -0.38369012; 1.4488796; -1.0846071;0
343;75899737; -0.28815693; -0.57043076; 0.22345549; -0.73596346; -0.6999572; 1.4193004; -1.0196524;0
344;75916404; -0.2736982; -0.5749829; 0.21741275; -0.7397404; -0.7569963; 1.504428; -0.83559895;0
345;75933071; -0.25985068; -0.578518; 0.21265139; -0.7433533; -0.6734967; 1.8154502; -0.6139393;0
346;75949738; -0.24631655; -0.5812457; 0.20855767; -0.7469841; -0.43503788; 2.2891026; -0.43053246;0
347;75966405; -0.23329453; -0.58333427; 0.2047894; -0.75057065; -0.12096018; 2.5199547; -0.31947803;0
348;75983072; -0.2204652; -0.58525014; 0.20077899; -0.7540328; -0.036397982; 2.4838395; -0.31185055;0
349;75999739; -0.20731604; -0.5872184; 0.1964091; -0.75737584; -0.032513577; 2.1992679; -0.2935381;0
350;76016406; -0.19320068; -0.5896262; 0.19201708; -0.76035786; -0.090217404; 1.916996; -0.1939869;0
351;76033073; -0.17806862; -0.5926043; 0.18782966; -0.76277906; -0.3155668; 1.8104957; -0.16332054;0
352;76049740; -0.16233045; -0.59597576; 0.18387073; -0.7646264; -0.5168412; 1.6878009; -0.063801765;0
353;76066407; -0.14624585; -0.59918624; 0.17979586; -0.76633006; -0.7069678; 1.4917622; 0.19508457;0
354;76083074; -0.12995182; -0.6017936; 0.1751779; -0.76829004; -0.87411726; 1.3414693; 0.30992794;0
355;76099741; -0.1138616; -0.603699; 0.17014393; -0.77047676; -1.0374235; 1.1342614; 0.22083664;0
356;76116408; -0.09833152; -0.6050811; 0.16507642; -0.77263033; -1.1825337; 0.9870766; 0.176857;0
357;76133075; -0.08369391; -0.605711; 0.16012481; -0.77489984; -1.3748875; 0.7076911; 0.25592613;0
358;76149742; -0.070200376; -0.6056064; 0.1555804; -0.7772437; -1.4736507; 0.16857542; 0.35915852;0
359;76166409; -0.057737198; -0.60496867; 0.1516938; -0.7795308; -1.5450088; -0.17662698; 0.39760113;0
360;76183076; -0.04613766; -0.60424984; 0.14840098; -0.7814927; -1.4708493; -0.14277421; 0.15111446;0
361;76199743; -0.035196822; -0.6039827; 0.14553596; -0.7828061; -1.4999692; 0.0106291305; -0.13867474;0
362;76216410; -0.024832662; -0.60399777; 0.14305674; -0.78364843; -1.6941231; 0.11046647; -0.12406254;0
363;76233077; -0.015318662; -0.6034893; 0.14078999; -0.7846938; -1.8174556; 0.06312458; -0.011949539;0
364;76249744; -0.006785639; -0.60236216; 0.13885444; -0.78602386; -1.7500033; -0.01912004; 0.03054142;0
365;76266411; 8.0398587E-4; -0.60102093; 0.13744022; -0.7873268; -1.598252; -0.044190172; -0.072442055;0
366;76283078; 0.00766421; -0.5997996; 0.13647825; -0.78838795; -1.4606841; 0.02781083; -0.3565731;0
367;76299745; 0.0138499485; -0.5984142; 0.13600118; -0.789438; -1.3671337; 0.09354671; -0.46398926;0
368;76316412; 0.019433903; -0.5965078; 0.13587512; -0.7907836; -1.2117739; 0.08237292; -0.35690212;0
369;76333079; 0.024520308; -0.5942424; 0.1358491; -0.7923509; -1.0949978; 0.097811356; -0.04865551;0
370;76349746; 0.029248662; -0.59162974; 0.13589306; -0.79413587; -1.0491867; 0.21583962; 0.17170906;0
371;76366413; 0.033702817; -0.588787; 0.1359287; -0.7960637; -0.9321179; 0.46769258; 0.02309227;0
372;76383080; 0.038093876; -0.58605456; 0.13583067; -0.7978966; -0.84181964; 0.6503255; -0.14034557;0
373;76399747; 0.042569; -0.583456; 0.135349; -0.79965484; -0.8170179; 0.7452169; -0.07713413;0
374;76416414; 0.047056492; -0.5809196; 0.1344413; -0.8014012; -0.7245131; 0.7493636; 0.019576073;0
375;76433081; 0.051453628; -0.5782382; 0.13311338; -0.8032894; -0.7175562; 0.74316996; 0.10885334;0
376;76449748; 0.055776227; -0.5753951; 0.13134082; -0.8053317; -0.67036337; 0.7707175; 0.123392105;0
377;76466415; 0.06018771; -0.5724894; 0.12901556; -0.80745816; -0.6813768; 0.70305187; 0.17780876;0
378;76483082; 0.06474165; -0.56946635; 0.12614363; -0.80969423; -0.7669662; 0.6231064; 0.12632847;0
379;76499749; 0.06951057; -0.5663671; 0.12279701; -0.8119838; -0.8581935; 0.556312; -0.086499214;0
380;76516416; 0.07453835; -0.56335413; 0.119305834; -0.81415135; -1.0551888; 0.53287727; -0.23696232;0
381;76533083; 0.07946371; -0.560384; 0.11611165; -0.81619453; -1.304671; 0.38255742; -0.16932487;0
382;76549750; 0.08392809; -0.55709106; 0.113350704; -0.8183871; -1.376416; 0.2683683; -0.12390995;0
383;76566417; 0.087831356; -0.55317503; 0.111081325; -0.82094115; -1.2177697; 0.22097994; -0.1727314;0
384;76583084; 0.09136691; -0.5490072; 0.10908732; -0.823616; -0.9405816; 0.27500644; -0.54914284;0
385;76599751; 0.094791986; -0.5453085; 0.10734362; -0.82591224; -0.75334644; 0.3654196; -0.83637524;0
386;76616418; 0.0982166; -0.5421994; 0.10583406; -0.8277515; -0.78586406; 0.42073536; -0.7327204;0
387;76633085; 0.10163045; -0.5393385; 0.10428444; -0.82940346; -0.89676666; 0.47585964; -0.39270973;0
388;76649752; 0.104933016; -0.53657264; 0.10261502; -0.8309929; -1.0126427; 0.34643564; 0.1063509;0
389;76666419; 0.10764153; -0.5337781; 0.100955755; -0.83264774; -1.0495808; 0.17801136; 0.3656435;0
390;76683086; 0.10959133; -0.53098613; 0.099283084; -0.8343778; -0.8392664; 0.26207113; 0.19645119;0
391;76699753; 0.11102653; -0.52860314; 0.09742938; -0.8359183; -0.4570592; 0.39921346; -0.06678295;0
392;76716420; 0.11232207; -0.5271403; 0.095642164; -0.83687496; -0.16756387; 0.3773642; 0.10365486;0
393;76733087; 0.11393503; -0.5261436; 0.09402934; -0.8374666; -0.3330863; 0.28545806; 0.67932796;0
394;76749754; 0.11617316; -0.52500755; 0.092137925; -0.83808213; -0.3935925; 0.34535322; 0.7989321;0
395;76766421; 0.11919196; -0.52386844; 0.09002372; -0.83860064; -0.23607622; 0.46028626; 0.47073078;0
396;76783088; 0.12288713; -0.52297425; 0.08812587; -0.838827; 0.17269248; 0.5004885; 0.07197094;0
397;76799755; 0.1271436; -0.5223514; 0.086746626; -0.8387243; 0.678077; 0.52636284; -0.22935772;0
398;76816422; 0.13208012; -0.522059; 0.085554935; -0.8382659; 1.1439992; 0.5264834; -0.30337906;0
399;76833089; 0.13778123; -0.52190024; 0.08398285; -0.8376058; 1.2920657; 0.61415046; -0.21428108;0
400;76849756; 0.14429468; -0.5215629; 0.08163739; -0.8369507; 1.2738825; 0.78002197; -0.19819164;0
401;76866423; 0.15163377; -0.5210459; 0.07844344; -0.83628047; 1.2268739; 0.786383; -0.25143433;0
402;76883090; 0.15990494; -0.52068996; 0.07446054; -0.8353251; 1.2306824; 0.49949932; -0.27892017;0
403;76899757; 0.16890508; -0.52062553; 0.070157714; -0.83396524; 1.091626; 0.04818917; -0.11612892;0
404;76916424; 0.17840742; -0.52054524; 0.06589813; -0.8323827; 0.8249469; -0.35920694; 0.12901974;0
405;76933091; 0.18808857; -0.52028716; 0.06194319; -0.8307147; 0.6685783; -0.59811866; 0.32142353;0
406;76949758; 0.19761434; -0.52003783; 0.058475398; -0.82890886; 0.6686978; -0.67469877; 0.32683754;0
407;76966425; 0.20683122; -0.5200399; 0.05552449; -0.8268595; 0.8265859; -0.65681034; 0.15991402;0
408;76983092; 0.21582898; -0.52048284; 0.05290759; -0.8244491; 0.91529363; -0.4854743; 0.1068449;0
409;76999759; 0.22464822; -0.52123755; 0.05018675; -0.8217822; 0.8143186; -0.2577587; 0.20872593;0
410;77016426; 0.23299125; -0.52208775; 0.04742745; -0.8190788; 0.8699663; -0.044329546; 0.17133427;0
411;77033093; 0.24109185; -0.5225404; 0.044446956; -0.8166094; 1.062946; 0.28194046; -0.0073547363;0
412;77049760; 0.24959205; -0.52268225; 0.0404786; -0.8141674; 1.1741806; 0.6281232; -0.30076504;0
413;77066427; 0.258762; -0.5228634; 0.035224956; -0.811428; 0.98087466; 0.8351749; -0.48719883;0
414;77083094; 0.26836452; -0.5233789; 0.028922543; -0.8082193; 0.7899814; 0.69975364; -0.5180149;0
415;77099761; 0.27795404; -0.5239058; 0.022270191; -0.8048406; 0.58639956; 0.30725867; -0.49029636;0
416;77116428; 0.28715983; -0.5241462; 0.016013086; -0.80159456; 0.6415454; 0.019311966; -0.5107126;0
417;77133095; 0.2963971; -0.5240038; 0.009945869; -0.79841715; 0.6804535; 0.048383404; -0.6046524;0
418;77149762; 0.3061065; -0.52384984; 0.0035589507; -0.7949011; 0.5151102; 0.15593381; -0.6570673;0
419;77166429; 0.3162003; -0.5240215; -0.003094125; -0.79082817; 0.23199277; 0.107213356; -0.6042671;0
420;77183096; 0.32624546; -0.5245212; -0.009522662; -0.7863529; 0.06705319; -0.12337088; -0.51063156;0
421;77199763; 0.33597818; -0.5252242; -0.015469007; -0.781677; 0.078485005; -0.38443658; -0.53040886;0
422;77216430; 0.3453221; -0.52612066; -0.02109313; -0.7768557; 0.09846801; -0.5389606; -0.43400574;0
423;77233097; 0.35404852; -0.52715695; -0.026478196; -0.77204543; 0.061716333; -0.4910316; -0.29715538;0
424;77249764; 0.36197272; -0.5282726; -0.031538088; -0.76740426; 0.06411105; -0.3504102; -0.1964283;0
425;77266431; 0.3689411; -0.5296032; -0.036612287; -0.7629303; 0.34450433; -0.24635363; -0.08355808;0
426;77283098; 0.3749476; -0.5311788; -0.041702285; -0.75863326; 0.7439643; -0.37499452; -0.06702328;0
427;77299765; 0.38052693; -0.5325072; -0.04648729; -0.75463545; 0.67641073; -0.22296412; -0.035022736;0
428;77316432; 0.3861978; -0.5337212; -0.051613458; -0.75055254; 0.17237955; 0.14663479; 0.22036076;0
429;77333099; 0.39166346; -0.5351946; -0.057200704; -0.74625397; -0.22962306; 0.29097363; 0.45917988;0
430;77349766; 0.39668217; -0.53678364; -0.06261529; -0.7420149; -0.4463085; 0.117310554; 0.6199541;0
431;77366433; 0.4014039; -0.53814507; -0.06778951; -0.738024; -0.63497335; -0.060431644; 0.74892044;0
432;77383100; 0.40591708; -0.5392166; -0.07305709; -0.73426133; -0.90963393; 0.07171458; 0.6279259;0
433;77399767; 0.41041332; -0.5400206; -0.078458466; -0.7306045; -1.1056035; 0.21687841; 0.39950943;0
434;77416434; 0.41513833; -0.54043955; -0.08393628; -0.7270077; -1.1385212; 0.21307223; 0.26523495;0
435;77433101; 0.42038003; -0.540503; -0.089646265; -0.7232572; -1.1491042; 0.1821919; -0.06214428;0
436;77449768; 0.4262759; -0.5404545; -0.09559212; -0.7190689; -1.268695; 0.15747158; -0.48711777;0
437;77466435; 0.43299672; -0.54006606; -0.10169308; -0.7144938; -1.3794423; 0.0938665; -0.76114273;0
438;77483102; 0.4405457; -0.5391174; -0.1078166; -0.7096812; -1.4627311; -0.04343125; -0.7342615;0
439;77499769; 0.44863427; -0.5377251; -0.11386718; -0.7047081; -1.5394273; -0.33882755; -0.5597248;0
440;77516436; 0.45671117; -0.5364103; -0.11972757; -0.69953144; -1.5970432; -0.71176827; -0.34781265;0
441;77533103; 0.46427995; -0.5355649; -0.12505764; -0.69424427; -1.5134357; -1.1723454; -0.02039051;0
442;77549770; 0.47089168; -0.53516644; -0.1294804; -0.6892699; -1.3859318; -1.4661674; 0.31185913;0
443;77566437; 0.4763378; -0.5351653; -0.13309543; -0.6848257; -1.329913; -1.2325714; 0.45679474;0
444;77583104; 0.4810241; -0.5355352; -0.13654533; -0.6805685; -1.4106789; -0.7817506; 0.46966076;0
445;77599771; 0.4855605; -0.5360864; -0.14053194; -0.6760868; -1.5964959; -0.4761159; 0.4719057;0
446;77616438; 0.49022147; -0.5364966; -0.14527762; -0.67137825; -1.6807487; -0.4093564; 0.55081177;0
447;77633105; 0.49485087; -0.53665304; -0.15068972; -0.6666475; -1.4305178; -0.34592274; 0.4327526;0
448;77649772; 0.4993007; -0.5367465; -0.1564278; -0.6619158; -1.0632161; -0.3002568; 0.27300453;0
449;77666439; 0.50350547; -0.53655845; -0.16187635; -0.65755886; -0.7598861; -0.43818462; 0.40373135;0
450;77683106; 0.5075891; -0.53573656; -0.16665399; -0.6538856; -0.9113895; -0.3513769; 0.49021053;0
451;77699773; 0.5119494; -0.5344551; -0.17150441; -0.6502707; -1.446896; -0.19638608; 0.542964;0
452;77716440; 0.5165604; -0.5330813; -0.17714365; -0.64622766; -1.871414; -0.302905; 0.39688396;0
453;77733107; 0.5211521; -0.5316823; -0.18317607; -0.64199764; -1.9237485; -0.6498986; 0.33811855;0
454;77749774; 0.5255687; -0.5300774; -0.18866698; -0.6381225; -1.6237792; -1.0355107; 0.42785263;0
455;77766441; 0.52973855; -0.5281976; -0.19304846; -0.6349147; -1.4516387; -1.1291113; 0.44466972;0
456;77783108; 0.53389037; -0.5261079; -0.1965833; -0.63208115; -1.5302418; -0.91709244; 0.2866745;0
457;77799775; 0.5383166; -0.5239436; -0.19971654; -0.62913567; -1.7306671; -0.81642175; 0.11901474;0
458;77816442; 0.5429921; -0.5217751; -0.20275432; -0.62594014; -1.853208; -0.842052; 0.08511257;0
459;77833109; 0.547787; -0.51953405; -0.20568313; -0.6226624; -1.8976321; -1.0001284; 0.13867188;0
460;77849776; 0.55260915; -0.51702255; -0.20843253; -0.6195698; -1.893608; -0.98650795; 0.0077810287;0
461;77866443; 0.5573361; -0.5144357; -0.21129286; -0.6165126; -2.022401; -0.8950999; -0.15260696;0
462;77883110; 0.5618827; -0.5118129; -0.21444765; -0.6134718; -2.1394792; -0.9231876; -0.14241695;0
463;77899777; 0.56609505; -0.5091754; -0.21767946; -0.6106492; -2.0665615; -1.0655206; -0.1383009;0
464;77916444; 0.5701357; -0.5062872; -0.2207634; -0.6081792; -1.9885442; -1.088414; -0.36594105;0
465;77933111; 0.57427067; -0.50314736; -0.22380409; -0.60577875; -1.9114614; -1.0320965; -0.46872234;0
466;77949778; 0.5784656; -0.49996096; -0.22689997; -0.60326874; -1.862135; -1.1085894; -0.3504467;0
467;77966445; 0.58243024; -0.49694318; -0.22968356; -0.6008894; -1.7090534; -1.3070512; -0.18856907;0
468;77983112; 0.5860662; -0.49407136; -0.2317984; -0.59890693; -1.4927881; -1.4290218; -0.13441753;0
469;77999779; 0.5893722; -0.4912082; -0.23318978; -0.5974761; -1.4448622; -1.3848937; -0.08522797;0
470;78016446; 0.59233713; -0.48832554; -0.23422685; -0.5965005; -1.5181352; -1.2630634; 0.01055336;0
471;78033113; 0.5950506; -0.48504135; -0.23483922; -0.5962384; -1.6302146; -1.3988366; 0.20376778;0
472;78049780; 0.597302; -0.4812702; -0.23481031; -0.5970541; -1.4590868; -1.087247; 0.18111515;0
473;78066447; 0.59912986; -0.47795632; -0.23464863; -0.5979475; -0.9062924; -0.6351101; 0.30329418;0
474;78083114; 0.6006353; -0.47555545; -0.23430645; -0.59848547; -0.6714702; -0.8851815; 0.9478235;0
475;78099781; 0.60159457; -0.47410908; -0.23345456; -0.5990022; -0.70096165; -1.1009289; 1.7481499;0
476;78116448; 0.6015471; -0.47311953; -0.2322106; -0.6003144; -0.561321; -0.8877908; 2.286481;0
477;78133115; 0.5999761; -0.47258186; -0.23121583; -0.60268927; -0.34772658; 0.54109025; 1.5525503;0
478;78149782; 0.59788716; -0.4727965; -0.23167673; -0.6044175; -0.3282377; 1.7168882; 1.0019836;0
479;78166449; 0.59665906; -0.4726688; -0.23452482; -0.6046325; -0.54907364; 1.8074393; 0.6679535;0
480;78183116; 0.59654564; -0.4714109; -0.23938695; -0.60382044; -0.50583553; 1.4251472; 0.22730255;0
481;78199783; 0.5975212; -0.4687694; -0.24529208; -0.602541; 0.016642552; 0.94286484; -0.46681976;0
482;78216450; 0.59939504; -0.4653896; -0.25075427; -0.60104936; 0.8332825; 0.60759795; -1.1122856;0
483;78233117; 0.6017405; -0.4623477; -0.25478816; -0.59935474; 1.6087296; 0.2759623; -1.3471394;0
484;78249784; 0.60394526; -0.460402; -0.2573497; -0.59753793; 1.8074237; -0.073875055; -1.1361246;0
485;78266451; 0.6055272; -0.45976838; -0.2585886; -0.5958874; 1.6403124; -0.4265168; -0.67381763;0
486;78283118; 0.6066535; -0.45980763; -0.25902247; -0.59452164; 1.4800435; -0.30029345; -0.49184036;0
487;78299785; 0.60744166; -0.46052098; -0.2591577; -0.5931041; 1.3084799; 0.15895191; -0.59275913;0
488;78316452; 0.6081318; -0.46204942; -0.25943834; -0.59108204; 0.98075956; 0.522818; -0.33909988;0
489;78333119; 0.6092066; -0.46377596; -0.26071998; -0.58805144; 0.69930613; 0.37267098; 0.14159298;0
490;78349786; 0.6103809; -0.46536595; -0.26267096; -0.5847; 0.59155774; 0.28620723; 0.11056328;0
491;78366453; 0.61157733; -0.46666083; -0.26467922; -0.5815031; 0.62572086; 0.51932544; -0.26548862;0
492;78383120; 0.61312777; -0.467578; -0.26685438; -0.57812977; 0.49090675; 0.6840323; -0.55924034;0
493;78399787; 0.6148281; -0.4683803; -0.26923597; -0.5745593; 0.40966314; 0.51860774; -0.5395298;0
494;78416454; 0.6162845; -0.46929112; -0.27148616; -0.5711871; 0.58015126; 0.40514338; -0.40621376;0
495;78433121; 0.6173986; -0.47044417; -0.27325773; -0.5681827; 0.7332388; 0.37867722; -0.40728664;0
496;78449788; 0.6181858; -0.47186643; -0.27445555; -0.56556404; 0.64642406; 0.42392316; -0.45721912;0
497;78466455; 0.6187986; -0.4731822; -0.27536723; -0.56334716; 0.3323023; 0.3451496; -0.3190012;0
498;78483122; 0.6191966; -0.47420058; -0.27652568; -0.56148285; 0.15751751; 0.43947765; -0.32504272;0
499;78499789; 0.6192358; -0.47539714; -0.27841204; -0.5594921; 0.41722336; 0.6866973; -0.6320076;0
500;78516456; 0.6188733; -0.47713566; -0.2806476; -0.557292; 0.7626693; 0.553254; -0.61534023;0
501;78533123; 0.6179927; -0.47891778; -0.28258762; -0.55575824; 1.0670558; 0.31011283; -0.53188896;0
502;78549790; 0.61667347; -0.48055324; -0.28336826; -0.5554144; 1.0429397; 0.37644207; -0.7767248;0
503;78566457; 0.6152148; -0.48218977; -0.28320268; -0.5556977; 0.7078585; 0.55166125; -0.8937025;0
504;78583124; 0.6133007; -0.4843557; -0.28291184; -0.5560782; 0.5981021; 0.4073289; -0.6245403;0
505;78599791; 0.6110347; -0.48666513; -0.28219926; -0.5569179; 0.56111205; 0.17889127; -0.5985918;0
506;78616458; 0.60831535; -0.48929742; -0.28102058; -0.5581827; 0.3504863; 0.27665675; -0.77036667;0
507;78633125; 0.6050997; -0.49244526; -0.27967334; -0.5595847; 0.14599475; 0.32972094; -0.59340477;0
508;78649792; 0.601336; -0.4960946; -0.27804792; -0.56122607; -0.12709002; 0.35762385; -0.52451134;0
509;78666459; 0.59700954; -0.5000761; -0.27619264; -0.5632241; -0.29268014; 0.5529997; -0.52519417;0
510;78683126; 0.59249717; -0.5040928; -0.2741398; -0.5654071; -0.4690321; 0.7660178; -0.39565754;0
511;78699793; 0.58805895; -0.5079567; -0.27192792; -0.56764597; -0.7397425; 0.9782103; -0.28492355;0
512;78716460; 0.58382946; -0.51163095; -0.26969248; -0.56977445; -0.99630845; 1.1891081; -0.32705402;0
513;78733127; 0.5800283; -0.51504326; -0.26761365; -0.57155985; -1.071473; 1.2832019; -0.37124252;0
514;78749794; 0.5768399; -0.5181498; -0.26586083; -0.5727954; -1.118668; 1.1913263; -0.34635544;0
515;78766461; 0.57434493; -0.52094907; -0.2643473; -0.57346356; -1.0020206; 0.9879449; -0.1868906;0
516;78783128; 0.57239056; -0.5236136; -0.26275313; -0.57372355; -0.78084755; 0.7797531; 0.013569832;0
517;78799795; 0.5707445; -0.5265051; -0.26082867; -0.57359517; -0.4477842; 0.55976766; 0.36693668;0
518;78816462; 0.5689805; -0.53005254; -0.25819206; -0.5732735; -0.20237601; 0.29770562; 0.7844343;0
519;78833129; 0.56658715; -0.53462446; -0.25458035; -0.57301354; -0.17759055; 0.3548429; 1.0586195;0
520;78849796; 0.5636164; -0.5400316; -0.2501806; -0.57281077; -0.4239293; 0.4598732; 1.5776834;0
521;78866463; 0.5603176; -0.5456187; -0.24539676; -0.5728219; -0.69859755; 0.49083444; 2.4299316;0
522;78883130; 0.5569051; -0.5509; -0.2408428; -0.57302773; -0.88274455; 0.486809; 3.29819;0
523;78899797; 0.5536075; -0.55548656; -0.23721789; -0.5733072; -0.8390996; 0.46528065; 3.7568169;0
524;78916464; 0.5505199; -0.55930215; -0.23475195; -0.5735858; -0.7024507; 0.6235725; 3.440115;0
525;78933131; 0.54825646; -0.5620365; -0.23339777; -0.5736335; -0.52437884; 0.6710579; 2.9757805;0
526;78949798; 0.54730046; -0.5632197; -0.2332244; -0.5734566; -0.35408297; 0.62760425; 2.4601097;0
527;78966465; 0.54738194; -0.5631822; -0.23394424; -0.57312226; -0.12938237; 0.5062166; 1.8001814;0
528;78983132; 0.54832864; -0.56236964; -0.23502105; -0.5725744; 0.1702649; 0.058249265; 1.2837296;0
529;78999799; 0.54965556; -0.56110805; -0.23594175; -0.57216096; 0.38214335; -0.4957334; 0.98348045;0
530;79016466; 0.55081207; -0.55975175; -0.23594359; -0.5723766; 0.45016113; -0.88798124; 0.6210184;0
531;79033133; 0.551854; -0.5582403; -0.23512965; -0.5731833; 0.4139461; -0.9857983; 0.46244717;0
532;79049800; 0.55274004; -0.5565631; -0.23384288; -0.57448554; 0.2409149; -1.0283818; 0.32527447;0
533;79066467; 0.5534899; -0.5548451; -0.23262772; -0.575917; 0.2587396; -0.8257172; 0.12853813;0
534;79083134; 0.5543262; -0.55324674; -0.23187123; -0.57695436; 0.5268645; -0.9153088; 0.07814884;0
535;79099801; 0.555204; -0.5516401; -0.23145506; -0.5778151; 0.853311; -0.9954002; -0.007209778;0
536;79116468; 0.5556128; -0.5504523; -0.23082827; -0.5788049; 1.1713743; -0.94197476; -0.24786854;0
537;79133135; 0.5553824; -0.5495452; -0.22937481; -0.58046347; 1.3692588; -0.8231068; -0.55050945;0
538;79149802; 0.55466384; -0.5486773; -0.22732425; -0.5827735; 1.2245345; -0.57563233; -0.7613077;0
539;79166469; 0.55359167; -0.54789305; -0.22528234; -0.5853183; 0.7924983; -0.4583853; -0.73011875;0
540;79183136; 0.5520912; -0.5473514; -0.22307257; -0.5880822; 0.26320684; -0.6236749; -0.64991474;0
541;79199803; 0.5501833; -0.5468569; -0.22055888; -0.5912696; -0.09546473; -0.640977; -0.87981415;0
542;79216470; 0.547962; -0.5463143; -0.21763675; -0.5949056; -0.439117; -0.37843335; -1.1639032;0
543;79233137; 0.54574317; -0.54550195; -0.2144339; -0.59884083; -0.71446174; -0.07113188; -1.2086105;0
544;79249804; 0.54372585; -0.5443924; -0.21119554; -0.6028232; -0.8976705; 0.0352509; -1.0611734;0
545;79266471; 0.54178196; -0.5432553; -0.20806457; -0.6066755; -1.0060949; 0.15589961; -1.081995;0
546;79283138; 0.53993624; -0.5423689; -0.20524912; -0.61006373; -1.0342208; 0.18436086; -1.1691561;0
547;79299805; 0.5382401; -0.5416014; -0.20265037; -0.61310554; -1.0371132; 0.11924997; -1.106904;0
548;79316472; 0.536525; -0.54081947; -0.19994383; -0.61618; -0.90722275; 0.07725703; -1.0036888;0
549;79333139; 0.5345746; -0.5400231; -0.19685815; -0.61955786; -0.8128136; 0.22403128; -1.0121479;0
550;79349806; 0.5323916; -0.5394548; -0.19353655; -0.62296975; -0.84706116; 0.48965228; -0.86838245;0
551;79366473; 0.5302173; -0.539074; -0.19034955; -0.6261278; -0.8966894; 0.4862227; -0.3994589;0
552;79383140; 0.5282145; -0.5384488; -0.18736735; -0.62925035; -0.9348975; 0.2986008; 0.15784359;0
553;79399807; 0.52621573; -0.5375941; -0.18456438; -0.63247585; -0.96652436; 0.27316213; 0.35081196;0
554;79416474; 0.5240825; -0.53690463; -0.18212275; -0.63553303; -0.94353247; 0.40400705; 0.37605858;0
555;79433141; 0.52180254; -0.53640115; -0.1798668; -0.63847005; -0.8565878; 0.4694179; 0.49213314;0
556;79449808; 0.5192375; -0.5359318; -0.17739649; -0.6416386; -0.82756644; 0.5602533; 0.7687645;0
557;79466475; 0.5165735; -0.5353428; -0.17498232; -0.644935; -0.9762711; 0.5134817; 1.1447763;0
558;79483142; 0.51432455; -0.5341481; -0.17313698; -0.64821285; -1.2189379; 0.23385759; 1.5852547;0
559;79499809; 0.5127603; -0.5320242; -0.17165166; -0.651585; -1.1557447; -0.5095054; 2.3115606;0
560;79516476; 0.5106581; -0.52947056; -0.16939522; -0.65589225; -0.30857974; -0.91783184; 2.7849379;0
561;79533143; 0.5067692; -0.5282168; -0.16583933; -0.6608097; 0.9435256; -0.49571842; 2.4561787;0
562;79549810; 0.5016153; -0.52845836; -0.16156282; -0.665591; 1.3848644; -0.5173404; 2.419465;0
563;79566477; 0.49605778; -0.52861357; -0.15741526; -0.6706079; 0.82210875; -0.39452183; 2.2021341;0
564;79583144; 0.49043858; -0.52809733; -0.15428361; -0.675855; 0.23142318; 0.33729738; 1.2060356;0
565;79599811; 0.48573583; -0.5271162; -0.1532177; -0.6802454; 0.2879709; 0.9688784; 0.006011963;0
566;79616478; 0.482801; -0.5256984; -0.15391777; -0.6832672; 0.88356733; 0.6112069; -0.6440544;0
567;79633145; 0.4813475; -0.5239257; -0.15508227; -0.6853874; 1.3766731; -0.28727517; -0.8595009;0
568;79649812; 0.48025954; -0.522469; -0.1554955; -0.6871667; 1.5117453; -0.9203108; -1.1555719;0
569;79666479; 0.47896695; -0.5218924; -0.1545313; -0.688723; 1.4647743; -1.3071553; -1.3276062;0
570;79683146; 0.47686633; -0.52243936; -0.15152413; -0.690432; 1.357956; -1.5697594; -1.2215395;0
571;79699813; 0.47346088; -0.52406025; -0.14613953; -0.6927042; 1.1734703; -1.236303; -1.0907507;0
572;79716480; 0.46918187; -0.52627486; -0.1394889; -0.69530284; 0.74110025; -0.4817292; -1.0526838;0
573;79733147; 0.46460003; -0.52861017; -0.13292341; -0.69788957; 0.17701572; 0.37449908; -1.1117268;0
574;79749814; 0.45999762; -0.53093237; -0.12714945; -0.7002473; -0.2231037; 1.0436541; -1.258709;0
575;79766481; 0.4557033; -0.5332155; -0.122579835; -0.7021327; -0.32402462; 1.3865186; -1.3104725;0
576;79783148; 0.4520439; -0.5351837; -0.119229324; -0.7035761; -0.15275009; 1.5307672; -1.3851061;0
577;79799815; 0.44910252; -0.5368045; -0.116726555; -0.7046438; 0.06511078; 1.5289313; -1.4543915;0
578;79816482; 0.4469591; -0.53802115; -0.114909075; -0.70537704; 0.3150495; 1.3505619; -1.4230623;0
579;79833149; 0.445308; -0.5393489; -0.11340486; -0.7056508; 0.50057393; 1.1365224; -1.3783512;0
580;79849816; 0.44373; -0.5411865; -0.1118445; -0.70548683; 0.6949442; 0.78565854; -1.1402483;0
581;79866483; 0.441732; -0.54322875; -0.1100293; -0.70545655; 0.7299951; 0.4708754; -0.7713947;0
582;79883150; 0.43880773; -0.54503846; -0.10786315; -0.70621985; 0.8087492; 0.63073725; -0.5577202;0
583;79899817; 0.43516394; -0.54657364; -0.105727665; -0.7076096; 1.0858175; 1.2329113; -0.74853134;0
584;79916484; 0.43157578; -0.54807925; -0.10410237; -0.7088824; 1.1526382; 1.7195823; -0.9242172;0
585;79933151; 0.42852902; -0.5496932; -0.10311564; -0.7096249; 0.8646417; 1.8041342; -0.80410385;0
586;79949818; 0.42597067; -0.55133903; -0.102306; -0.7100056; 0.5821415; 1.5833713; -0.61914253;0
587;79966485; 0.4237136; -0.5527029; -0.10102853; -0.7104785; 0.48914224; 1.4017584; -0.4871931;0
588;79983152; 0.42160627; -0.55366695; -0.098877616; -0.7112836; 0.44785917; 1.5708278; -0.5140562;0
589;79999819; 0.41969842; -0.55435634; -0.09585314; -0.7122883; 0.27188635; 1.8393301; -0.37401962;0
590;80016486; 0.41827613; -0.55452913; -0.092636496; -0.713415; 0.015793147; 1.9840592; -0.1184988;0
591;80033153; 0.4175692; -0.55433154; -0.09007834; -0.7143099; -0.114837825; 1.9376441; 0.19072723;0
592;80049820; 0.41770375; -0.5539335; -0.08868171; -0.71471447; -0.20547289; 1.3219056; 0.79176044;0
593;80066487; 0.4179326; -0.55371547; -0.08800851; -0.71483296; -0.06941832; 0.7088512; 1.0648375;0
594;80083154; 0.41728565; -0.554739; -0.08732067; -0.71450174; 0.24517964; 0.69906026; 0.71634674;0
595;80099821; 0.4161072; -0.55702966; -0.086334914; -0.7135259; 0.2409751; 0.7417324; 0.9575758;0
596;80116488; 0.41483107; -0.5596437; -0.08474808; -0.71241283; -0.12199734; 0.2358549; 2.3582497;0
597;80133155; 0.41288847; -0.5619398; -0.08218018; -0.7120346; -0.58197266; -0.3793283; 3.8110867;0
598;80149822; 0.40949872; -0.56418926; -0.07865319; -0.7126114; -0.5303237; -0.18114786; 4.0096207;0
599;80166489; 0.40544116; -0.5665649; -0.07520129; -0.71341896; -0.2124798; 0.58161044; 3.600443;0
600;80183156; 0.40196267; -0.56890154; -0.072837695; -0.713773; -0.23977666; 1.4219373; 3.4008846;0
601;80199823; 0.40009707; -0.57059133; -0.07288027; -0.71346796; -0.3168878; 2.0401525; 3.0402203;0
602;80216490; 0.40078044; -0.5709622; -0.07638005; -0.71242076; -0.32065186; 2.3664727; 2.1930504;0
603;80233157; 0.4043868; -0.5699595; -0.08297085; -0.7104459; -0.20169868; 1.7319623; 1.4466553;0
604;80249824; 0.41015008; -0.5677241; -0.09101998; -0.70794195; -0.06635435; 0.58871925; 0.8884964;0
605;80266491; 0.4169691; -0.564607; -0.098983504; -0.7053779; -0.129582; -0.45919886; 0.53646183;0
606;80283158; 0.42439732; -0.5609079; -0.10627277; -0.7028338; -0.3764676; -1.2327318; 0.32162094;0
607;80299825; 0.43168172; -0.55721277; -0.11254084; -0.7003566; -0.52538556; -1.8000315; 0.1083107;0
608;80316492; 0.43825644; -0.5539752; -0.11754934; -0.6980151; -0.48798248; -2.1263204; -0.14198875;0
609;80333159; 0.44407567; -0.55116475; -0.12125543; -0.695925; -0.3065101; -2.296378; -0.33554554;0
610;80349826; 0.44909206; -0.54882157; -0.12344273; -0.69417095; -0.0118499305; -2.0980453; -0.80793667;0
611;80366493; 0.45356467; -0.547074; -0.12433556; -0.69248104; 0.22845693; -1.6621065; -1.3061419;0
612;80383160; 0.45775667; -0.5460039; -0.12448259; -0.69053805; 0.18537275; -1.1913074; -1.5251942;0
613;80399827; 0.4618056; -0.5454579; -0.12432249; -0.6882989; -0.021816121; -0.9274335; -1.4666643;0
614;80416494; 0.4657307; -0.5448922; -0.12402521; -0.6861526; -0.3587934; -0.8160299; -1.2745237;0
615;80433161; 0.46949542; -0.543998; -0.123853676; -0.68432504; -0.5139977; -0.6005033; -1.2597494;0
616;80449828; 0.4731121; -0.5429148; -0.12397422; -0.6826704; -0.4479542; -0.3398034; -1.3344975;0
617;80466495; 0.47674912; -0.5416853; -0.1244832; -0.6810224; -0.3718342; -0.15853596; -1.3654633;0
618;80483162; 0.4805408; -0.5402847; -0.1256254; -0.679258; -0.4282453; -0.14929458; -1.2428446;0
619;80499829; 0.4844204; -0.538416; -0.12727319; -0.6776774; -0.5110221; -0.41369632; -1.1298151;0
620;80516496; 0.4881496; -0.53587925; -0.12926283; -0.67663485; -0.4489709; -0.51174563; -1.237195;0
621;80533163; 0.49145582; -0.5334908; -0.13165711; -0.6756666; -0.24699746; -0.6881671; -1.2196236;0
622;80549830; 0.4938132; -0.5315363; -0.13366161; -0.6750945; 0.16092977; -1.1121931; -1.0877638;0
623;80566497; 0.49498832; -0.5298903; -0.13434206; -0.67539257; 0.32450354; -1.3026836; -1.007513;0
624;80583164; 0.4949272; -0.52880865; -0.13352531; -0.67644626; 0.23024757; -1.2841519; -0.7272272;0
625;80599831; 0.49369898; -0.5284642; -0.1312603; -0.67805445; -0.1670267; -1.1280203; -0.36221313;0
626;80616498; 0.49156725; -0.5284544; -0.12769087; -0.68028873; -0.53001636; -0.671409; -0.07138252;0
627;80633165; 0.4889364; -0.52839184; -0.1236298; -0.68297833; -0.8139833; -0.12300119; 0.13433743;0
628;80649832; 0.4862016; -0.5281652; -0.11961913; -0.685814; -1.0665418; 0.32110497; 0.39700508;0
629;80666499; 0.48358703; -0.527776; -0.116021544; -0.68857485; -1.1544605; 0.6591531; 0.70155334;0
630;80683166; 0.48129663; -0.5270864; -0.11321955; -0.69116914; -1.1663436; 0.68999994; 1.2104588;0
631;80699833; 0.47964802; -0.5254593; -0.11144114; -0.6938382; -1.006726; 0.31533253; 1.6959782;0
632;80716500; 0.47858068; -0.52299714; -0.11033418; -0.6966068; -0.75973773; -0.37767768; 2.079957;0
633;80733167; 0.4773384; -0.5204998; -0.10909281; -0.6995191; -0.13486364; -1.2669092; 2.601409;0
634;80749834; 0.47459254; -0.5192245; -0.10669298; -0.702698; 0.704408; -1.9247698; 2.7817888;0
635;80766501; 0.46964562; -0.5192726; -0.10200474; -0.70667106; 0.7759981; -2.5102122; 3.0961466;0
636;80783168; 0.4623216; -0.5192142; -0.09564777; -0.71240914; 0.65829843; -1.9535055; 2.998663;0
637;80799835; 0.45370895; -0.5189095; -0.089731395; -0.71890855; 0.6532733; -0.2921102; 2.0385714;0
638;80816502; 0.44533086; -0.51846564; -0.086024664; -0.72489566; 0.83310854; 1.1044687; 0.7772474;0
639;80833169; 0.43891755; -0.5174243; -0.0851522; -0.72963893; 1.1328119; 1.3941557; -0.16483402;0
640;80849836; 0.43527037; -0.51537764; -0.08646559; -0.7331093; 1.3180511; 0.43154183; -0.5360279;0
641;80866503; 0.4334148; -0.5125976; -0.08817875; -0.7359484; 1.5241457; -0.7906648; -0.6637573;0
642;80883170; 0.43156055; -0.5100302; -0.08818393; -0.73881555; 1.6166675; -1.7245642; -0.9621935;0
643;80899837; 0.42903438; -0.5079803; -0.0853967; -0.74201953; 1.5191798; -2.0159018; -1.2626257;0
644;80916504; 0.4254326; -0.5065262; -0.07994689; -0.74568564; 1.2096803; -1.7456025; -1.176075;0
645;80933171; 0.4203763; -0.5057488; -0.0725551; -0.7498252; 0.77291775; -1.1959532; -0.8761759;0
646;80949838; 0.41384923; -0.505407; -0.06445704; -0.75441235; 0.35854763; -0.36874855; -0.6277237;0
647;80966505; 0.4063357; -0.5051855; -0.056803096; -0.7592447; 0.20561881; 0.67087305; -0.67601585;0
648;80983172; 0.39865118; -0.504743; -0.050363157; -0.7640521; 0.07497133; 1.536707; -0.9071388;0
649;80999839; 0.39150155; -0.50406784; -0.045755774; -0.7684716; 0.06349968; 2.2808464; -1.2133083;0
650;81016506; 0.3855408; -0.5031767; -0.043499067; -0.77219146; -0.021189699; 2.6613436; -1.4235744;0
651;81033173; 0.3808891; -0.50222516; -0.043072775; -0.77513754; -0.01477612; 2.4640734; -1.3364811;0
652;81049840; 0.3772229; -0.501177; -0.043359417; -0.77758914; -0.01992678; 1.8941888; -0.98841;0
653;81066507; 0.37407258; -0.4998345; -0.043843765; -0.77994424; -0.108559586; 1.5992178; -0.6811094;0
654;81083174; 0.37119496; -0.49835527; -0.04458912; -0.78222; -0.19887204; 1.7443894; -0.62158966;0
655;81099841; 0.3684582; -0.49730787; -0.04545203; -0.7841286; -0.15415543; 1.8995119; -0.66819286;0
656;81116508; 0.3659188; -0.4966687; -0.046179015; -0.7856788; -0.20013683; 2.2216647; -0.85251904;0
657;81133175; 0.36414936; -0.49623466; -0.04744345; -0.7866991; -0.17766877; 2.6674867; -0.9415188;0
658;81149842; 0.36385208; -0.49582028; -0.050177883; -0.7869284; -0.10117923; 2.6814709; -0.7641821;0
659;81166509; 0.3647392; -0.49527377; -0.0535668; -0.78663844; -0.031154592; 2.3863168; -0.48420715;0
660;81183176; 0.3668552; -0.4946715; -0.05761201; -0.785747; -0.0762933; 2.238516; -0.52457905;0
661;81199843; 0.37023118; -0.49415174; -0.06286564; -0.78408605; -0.23694737; 2.2343218; -0.81325245;0
662;81216510; 0.3750911; -0.4937308; -0.06930153; -0.78149474; -0.3023037; 1.9905494; -0.8299265;0
663;81233177; 0.38124016; -0.49326548; -0.07619223; -0.7781646; -0.31544632; 1.5622814; -0.5308552;0
664;81249844; 0.38834637; -0.49281964; -0.083558224; -0.7741667; -0.3940465; 1.1961517; -0.31696224;0
665;81266511; 0.39629298; -0.4924664; -0.09160364; -0.7694399; -0.6435004; 0.9148345; -0.15336704;0
666;81283178; 0.4046909; -0.4925242; -0.10028064; -0.76393026; -0.7391787; 0.94616926; -0.23649788;0
667;81299845; 0.41286722; -0.49374515; -0.10938785; -0.75748974; -0.5109884; 1.1146401; -0.31893063;0
668;81316512; 0.42059812; -0.49613634; -0.1179259; -0.7503596; -0.2790489; 0.9137939; -0.14520645;0
669;81333179; 0.42827365; -0.4993196; -0.12549357; -0.7426392; -0.3348323; 0.8003303; 0.39628792;0
670;81349846; 0.43643907; -0.5029888; -0.13264918; -0.73411685; -0.8459538; 0.54437566; 1.6471443;0
671;81366513; 0.44457757; -0.50692964; -0.1398782; -0.7251259; -1.5664647; 0.23337524; 2.6340256;0
672;81383180; 0.4525552; -0.511357; -0.14769898; -0.7154671; -2.0778193; 0.431705; 2.9812565;0
673;81399847; 0.4614278; -0.51606435; -0.15684673; -0.70438737; -2.7620056; 0.54103637; 3.0572796;0
674;81416514; 0.47108948; -0.5205859; -0.168721; -0.69180804; -3.368235; 0.7807388; 2.5880194;0
675;81433181; 0.4817878; -0.52452475; -0.18427446; -0.6773457; -3.7047434; 0.6802664; 1.8107328;0
676;81449848; 0.49443036; -0.5266678; -0.20323917; -0.660949; -3.4807508; -0.047614742; 1.177433;0
677;81466515; 0.5090476; -0.526301; -0.22510633; -0.6428103; -2.931657; -1.0354437; 0.6974745;0
678;81483182; 0.52462107; -0.52349746; -0.24832928; -0.62374353; -2.1489716; -2.083953; 0.4729252;0
679;81499849; 0.54022944; -0.51831836; -0.2711181; -0.604974; -1.3121182; -3.0066104; 0.30225182;0
680;81516516; 0.5548957; -0.51140153; -0.29160416; -0.5878149; -0.5854048; -3.8143032; 0.084347725;0
681;81533183; 0.5680048; -0.5039295; -0.30960545; -0.5723375; 0.27550632; -3.882858; -0.22551632;0
682;81549850; 0.5790463; -0.4967868; -0.3251936; -0.5587106; 0.74254906; -4.0216947; -0.14007854;0
683;81566517; 0.5880433; -0.49046853; -0.33840334; -0.54692703; 1.2050238; -3.803548; 0.008164406;0
684;81583184; 0.59523994; -0.48496196; -0.3493905; -0.53705454; 1.441231; -3.8676038; 0.39147472;0
685;81599851; 0.60118204; -0.47961956; -0.35864693; -0.52907246; 1.6247305; -3.519152; 0.44556522;0
686;81616518; 0.6063613; -0.4741479; -0.3669047; -0.52238965; 1.6497021; -3.0542955; 0.1869049;0
687;81633185; 0.6114887; -0.46859944; -0.37401935; -0.5163387; 1.6317708; -2.615698; -0.3038416;0
688;81649852; 0.6169286; -0.46322748; -0.3801297; -0.5102167; 1.3607805; -2.456972; -0.59958935;0
689;81666519; 0.62273; -0.45798272; -0.3856112; -0.5037492; 0.9629328; -2.5674255; -0.62649727;0
690;81683186; 0.6287592; -0.45264485; -0.39065236; -0.49715734; 0.6632539; -2.772252; -0.5992794;0
691;81699853; 0.6349228; -0.4472127; -0.39512113; -0.49066606; 0.6540937; -2.9159536; -0.76811314;0
692;81716520; 0.64105356; -0.442137; -0.39887828; -0.48421225; 0.74052536; -2.819443; -0.96353436;0
693;81733187; 0.6469157; -0.43787152; -0.40212202; -0.47756332; 0.8545847; -2.6982055; -1.0890455;0
694;81749854; 0.6525679; -0.43438596; -0.40480816; -0.47073802; 1.1511543; -2.7422638; -1.0878305;0
695;81766521; 0.6582941; -0.43148726; -0.40659723; -0.46383882; 1.4757655; -2.8459184; -1.027133;0
696;81783188; 0.6643023; -0.42901716; -0.407491; -0.45672524; 1.7019501; -2.813031; -1.0619316;0
697;81799855; 0.67037094; -0.42719686; -0.40773696; -0.44928437; 1.8921063; -2.7209947; -1.114953;0
698;81816522; 0.676133; -0.42630085; -0.4074072; -0.4417368; 2.0719526; -2.612044; -1.1723518;0
699;81833189; 0.68131846; -0.42662883; -0.406274; -0.43443587; 2.0800877; -2.6282392; -1.1163292;0
700;81849856; 0.6857624; -0.428103; -0.40413314; -0.4279421; 1.8007807; -2.739817; -0.8144789;0
701;81866523; 0.6893041; -0.43039718; -0.40126294; -0.4226184; 1.3538606; -2.508821; -0.61802006;0
702;81883190; 0.69196904; -0.4337855; -0.39809933; -0.41776323; 0.833482; -2.2091866; 0.07730675;0
703;81899857; 0.69336313; -0.43840528; -0.39559436; -0.4129809; 0.12861763; -1.240188; 1.059699;0
704;81916524; 0.69289905; -0.4440276; -0.39491478; -0.40837824; -0.28588334; -0.098372295; 1.3359871;0
705;81933191; 0.6913145; -0.449028; -0.39771494; -0.40284127; -0.9372815; 1.2384803; 0.9533224;0
706;81949858; 0.6905036; -0.45207247; -0.40355304; -0.39494336; -1.4888546; 2.341473; 0.536499;0
707;81966525; 0.69172704; -0.45212662; -0.4124376; -0.38339382; -1.8115708; 2.5950704; 0.7271223;0
708;81983192; 0.6955137; -0.44826514; -0.4234179; -0.36883107; -1.2215841; 1.3839158; 1.5189047;0
709;81999859; 0.7016594; -0.4398217; -0.43511716; -0.3534178; 1.6271744E-4; 0.17077418; 1.8915043;0
710;82016526; 0.7089196; -0.42799383; -0.44735444; -0.33782926; 0.7702762; 0.04027614; 1.5371542;0
711;82033193; 0.7156769; -0.4154472; -0.45961097; -0.3224408; 1.2165779; 0.16910543; 1.173459;0
712;82049860; 0.7210476; -0.40428045; -0.47064212; -0.3084538; 1.5260506; -0.08785915; 0.9692402;0
713;82066527; 0.7248912; -0.39508736; -0.47982553; -0.29699564; 1.610398; -0.671713; 0.57754135;0
714;82083194; 0.7275883; -0.3874509; -0.48740202; -0.28798693; 1.5740335; -0.7436967; -0.24037075;0
715;82099861; 0.7296387; -0.38070086; -0.49411952; -0.28025046; 1.33626; -0.37420225; -0.9458971;0
716;82116528; 0.7313884; -0.37425062; -0.5005362; -0.2728942; 0.86318266; 0.05933889; -1.309948;0
717;82133195; 0.732891; -0.3679491; -0.5070632; -0.26527575; 0.22210772; 0.30377916; -1.5012302;0
718;82149862; 0.7344142; -0.3615153; -0.51369834; -0.25701508; -0.31869417; 0.38191682; -1.4690685;0
719;82166529; 0.73609585; -0.35464838; -0.5204373; -0.24805784; -0.7459027; 0.29339764; -1.3653755;0
720;82183196; 0.73783886; -0.34748432; -0.5272197; -0.23851208; -0.9725393; 0.025358662; -1.1404686;0
721;82199863; 0.73960453; -0.34012297; -0.5339483; -0.22847518; -0.9691761; -0.32775694; -0.580039;0
722;82216530; 0.7414036; -0.33229348; -0.5407484; -0.2179296; -0.8702779; -0.8459259; 0.23913765;0
723;82233197; 0.74311465; -0.3234434; -0.54800546; -0.20701492; -0.74419755; -1.433394; 0.75456905;0
724;82249864; 0.7445558; -0.31339282; -0.5558918; -0.19597493; -0.3453369; -1.9330028; 0.82044506;0
725;82266531; 0.7456859; -0.30242375; -0.56414133; -0.18503273; 0.17569862; -2.1841488; 0.64365005;0
726;82283198; 0.7468951; -0.29071507; -0.57211566; -0.174116; 0.8084629; -2.2599144; 0.56788063;0
727;82299865; 0.74872017; -0.2780438; -0.57926065; -0.16299438; 1.4245138; -2.229746; 0.5090208;0
728;82316532; 0.7512129; -0.26428455; -0.58553827; -0.15158558; 1.9245918; -1.9548255; 0.15960312;0
729;82333199; 0.7537825; -0.25039265; -0.59120095; -0.13998948; 2.4572022; -1.413989; -0.30112267;0
730;82349866; 0.75603056; -0.23770575; -0.59614587; -0.12854515; 3.1501567; -0.7711749; -0.4001913;0
731;82366533; 0.75810295; -0.22721365; -0.5997902; -0.11792189; 3.7600253; -0.35387108; -0.09518337;0
732;82383200; 0.76020145; -0.21936694; -0.60175556; -0.108913176; 4.1105037; -0.13447243; 0.35402298;0
733;82399867; 0.76222134; -0.21435262; -0.6021952; -0.10213987; 3.9705968; 0.1501008; 0.5300751;0
734;82416534; 0.763359; -0.21264546; -0.60208887; -0.09774532; 3.409399; 0.5725513; 0.3869152;0
735;82433201; 0.7629998; -0.21456465; -0.60220546; -0.095613346; 2.794239; 0.77949464; 0.31150723;0
736;82449868; 0.76123494; -0.21927525; -0.60279137; -0.09530092; 2.2977204; 0.7505525; 0.4566822;0
737;82466535; 0.7586604; -0.22561961; -0.6034775; -0.096670076; 1.8410311; 0.46418256; 0.5587015;0
738;82483202; 0.7557922; -0.23239802; -0.60403794; -0.09953585; 1.3229696; -0.046133187; 0.5664015;0
739;82499869; 0.7530585; -0.23858346; -0.6043661; -0.10354964; 0.7538444; -0.4918512; 0.55526924;0
740;82516536; 0.7508708; -0.24310648; -0.6044977; -0.10805076; 0.22986251; -0.8403324; 0.57384396;0
741;82533203; 0.74936485; -0.24514161; -0.60476226; -0.11234209; -0.19901101; -1.3532526; 0.6202717;0
742;82549870; 0.7488061; -0.24438494; -0.6051251; -0.115711145; -0.5273337; -1.7633533; 0.4333868;0
743;82566537; 0.7488473; -0.24078771; -0.60616106; -0.117549844; -0.78165925; -2.1409247; 0.21307087;0
744;82583204; 0.74932593; -0.23480488; -0.60793316; -0.11745097; -0.5100436; -2.1336777; 0.03122902;0
745;82599871; 0.7501968; -0.22710669; -0.6102002; -0.115252785; -0.18171604; -1.9256794; 0.09045887;0
746;82616538; 0.75103974; -0.2180234; -0.61322504; -0.111176446; 0.29106393; -1.6791126; 0.16554832;0
747;82633205; 0.7520874; -0.2087907; -0.61600715; -0.10633078; 1.2423431; -1.1103472; 0.18031216;0
748;82649872; 0.7531548; -0.20031914; -0.61842614; -0.100893416; 1.6071972; -0.6951811; 0.21613407;0
749;82666539; 0.7542027; -0.19324246; -0.6202651; -0.09542974; 1.8267741; -0.5614528; 0.114414215;0
750;82683206; 0.754965; -0.18804675; -0.6216531; -0.090629235; 2.3800433; -0.18311556; 0.14827538;0
751;82699873; 0.7555464; -0.18497965; -0.6223719; -0.087095335; 2.4053035; 0.08698219; 0.18472576;0
752;82716540; 0.7559707; -0.18412271; -0.6223664; -0.08524904; 2.3629522; 0.21590966; 0.10004997;0
753;82733207; 0.7561241; -0.18526787; -0.62186676; -0.0850518; 2.0789638; -0.009325407; 0.014491081;0
754;82749874; 0.75609374; -0.18764558; -0.6210526; -0.08605352; 1.5912317; -0.4270102; -0.08531952;0
755;82766541; 0.7558596; -0.19051366; -0.62024546; -0.087615654; 1.1047239; -0.7683896; -0.015099525;0
756;82783208; 0.7555993; -0.19318315; -0.61950314; -0.08925237; 0.90343755; -0.88951427; 0.10361385;0
757;82799875; 0.7556166; -0.1954037; -0.6185716; -0.09072061; 0.81202525; -0.9438924; 0.23586941;0
758;82816542; 0.7559099; -0.19711024; -0.6174843; -0.09198487; 0.6330034; -1.071764; 0.23355675;0
759;82833209; 0.756405; -0.19827043; -0.61635983; -0.092957474; 0.5892879; -1.1722237; 0.27892113;0
760;82849876; 0.7573425; -0.19889696; -0.61487794; -0.0937961; 0.6842581; -1.2535175; 0.31673336;0
761;82866543; 0.75871575; -0.19912924; -0.6129687; -0.09469674; 0.6789747; -1.2733606; 0.15469265;0
762;82883210; 0.7601586; -0.19944476; -0.61089647; -0.09584488; 0.6083379; -1.2047276; -0.016619682;0
763;82899877; 0.7615382; -0.19996952; -0.6087693; -0.097323105; 0.61717427; -1.2670921; -0.01712513;0
764;82916544; 0.763198; -0.2004628; -0.6062302; -0.09913878; 0.7167859; -1.4549434; 0.039787292;0
765;82933211; 0.7653088; -0.20042819; -0.6032464; -0.10111963; 0.6642577; -1.6461945; 0.12927341;0
766;82949878; 0.7675043; -0.19982414; -0.60030246; -0.10317285; 0.45899504; -1.5700231; 0.17259121;0
767;82966545; 0.76940024; -0.19942953; -0.59765977; -0.10513986; 0.38979632; -1.5750839; 0.55118465;0
768;82983212; 0.77114993; -0.19932225; -0.5951407; -0.106799334; 0.018866282; -1.6395128; 0.95904064;0
769;82999879; 0.7724366; -0.19869825; -0.59344965; -0.10806564; -0.44910637; -1.6090212; 1.0175209;0
770;83016546; 0.7733872; -0.1967434; -0.59274685; -0.10869856; -0.89024675; -1.363581; 0.8331194;0
771;83033213; 0.7743548; -0.19376813; -0.59250516; -0.10847257; -1.2856022; -0.9205056; 0.300704;0
772;83049880; 0.7754781; -0.18989956; -0.59253323; -0.107127175; -1.1871672; -0.4825696; -0.18097973;0
773;83066547; 0.7770629; -0.18482782; -0.59242606; -0.105087236; -0.6902384; -0.25065705; -0.20473003;0
774;83083214; 0.7792233; -0.17901449; -0.59179574; -0.10267798; -0.588388; -0.087026; -0.39981937;0
775;83099881; 0.7815203; -0.17306575; -0.59105563; -0.09963858; -0.6533378; 0.13027643; -0.46424294;0
776;83116548; 0.78389347; -0.16740757; -0.5901255; -0.09611324; -0.61270577; 0.11409453; -0.3469181;0
777;83133215; 0.7862674; -0.16189653; -0.58914137; -0.09211756; -0.83079946; 0.11302525; -0.3226223;0
778;83149882; 0.78837466; -0.15662748; -0.5884389; -0.08759591; -0.8524234; 0.2776754; -0.33832455;0
779;83166549; 0.7900481; -0.15207005; -0.5881266; -0.08249991; -0.631522; 0.5400994; -0.3081255;0
780;83183216; 0.79133695; -0.14825821; -0.5880821; -0.077233836; -0.484058; 0.5967655; -0.016373634;0
781;83199883; 0.7923776; -0.14517488; -0.5881094; -0.07203824; -0.5927711; 0.52379847; 0.10623741;0
782;83216550; 0.793115; -0.14273119; -0.5883226; -0.06688231; -0.6982192; 0.60299736; 0.29329967;0
783;83233217; 0.7939522; -0.14064923; -0.5882637; -0.06167383; -0.5485406; 0.55335146; 0.42315102;0
784;83249884; 0.79497457; -0.13872893; -0.58782274; -0.056871586; -0.49042675; 0.48631558; 0.22111225;0
785;83266551; 0.7960106; -0.13737087; -0.5871444; -0.052517258; -0.75554353; 0.7310232; -0.11944389;0
786;83283218; 0.79690015; -0.13695869; -0.5863553; -0.048786234; -0.9799921; 0.76541823; -0.07450771;0
787;83299885; 0.7980557; -0.1374249; -0.5849137; -0.04580217; -0.9484978; 0.48742363; -0.011057854;0
788;83316552; 0.7994455; -0.13857806; -0.5829183; -0.043467674; -0.9167223; 0.32744637; -0.19720268;0
789;83333219; 0.801202; -0.1400849; -0.5802874; -0.041453306; -0.9757588; 0.26336488; -0.19042492;0
790;83349886; 0.80309; -0.14237161; -0.5771963; -0.04026698; -1.2402618; -0.02552909; 0.118961334;0
791;83366553; 0.8052935; -0.14505476; -0.5735035; -0.03943594; -1.7282071; -0.35811737; 0.43110847;0
792;83383220; 0.80813384; -0.14731638; -0.5689783; -0.038485564; -1.9787716; -0.50146115; 0.71968746;0
793;83399887; 0.8116469; -0.14890152; -0.56359863; -0.037606683; -2.1615756; -0.26456222; 0.6584387;0
794;83416554; 0.81577253; -0.1506631; -0.5571942; -0.036748428; -1.8830287; 0.031015553; 0.6894703;0
795;83433221; 0.8209751; -0.15283385; -0.54895985; -0.03584231; -1.4423617; 0.010332334; 1.1896658;0
796;83449888; 0.82716036; -0.15540788; -0.53888977; -0.03538452; -1.1057692; -0.024795298; 1.6414022;0
797;83466555; 0.8335458; -0.1589453; -0.52785265; -0.03618717; -0.9116119; 0.029563723; 1.5477152;0
798;83483222; 0.83994234; -0.1636867; -0.5160179; -0.037805386; -0.7890271; 0.16082774; 1.3284969;0
799;83499889; 0.846443; -0.1702436; -0.5029252; -0.04022362; -0.3713927; -0.0030188777; 1.3774786;0
800;83516556; 0.85326785; -0.17858544; -0.48798165; -0.043762825; -0.12645067; 0.100761876; 1.2887459;0
801;83533223; 0.86020374; -0.18883902; -0.47122416; -0.04834512; 0.09583341; 0.2282616; 1.4267349;0
802;83549890; 0.867082; -0.20067027; -0.4527439; -0.054068234; 0.14965801; 0.048166707; 1.3319225;0
803;83566557; 0.8739096; -0.21317191; -0.43275902; -0.059662737; 4.8770526E-4; -0.3662548; 1.3424797;0
804;83583224; 0.88056487; -0.22558191; -0.41171357; -0.06488687; -0.2654337; -0.4415722; 1.7336769;0
805;83599891; 0.8869995; -0.23763123; -0.38968664; -0.07005477; -0.40716907; -0.33779132; 2.0312338;0
806;83616558; 0.8935159; -0.24867652; -0.36633292; -0.074764006; -0.7058754; -0.27827096; 2.290597;0
807;83633225; 0.89971364; -0.25742322; -0.34379274; -0.077815354; -0.8505951; 0.04836664; 2.3126936;0
808;83649892; 0.90606403; -0.2641304; -0.32084256; -0.07964363; -0.41119477; 0.0066848253; 2.0833445;0
809;83666559; 0.912811; -0.2691042; -0.29656214; -0.08006279; -0.30923286; -0.13539365; 1.8403616;0
810;83683226; 0.919309; -0.27211228; -0.27294138; -0.079554; -0.32539105; -0.35896516; 2.6041107;0
811;83699893; 0.9260112; -0.27429417; -0.24693836; -0.07929249; 0.8924631; -0.1498623; 1.4105206;0
812;83716560; 0.9316092; -0.2752504; -0.22435583; -0.077499755; 0.97950107; 0.27664647; 1.4306841;0
813;83733227; 0.93826795; -0.27290756; -0.1986012; -0.07571292; 0.28192294; -1.1534759; 1.4779949;0
814;83749894; 0.94409835; -0.27022442; -0.17418456; -0.07291835; 1.2175641; -0.17830053; -0.08800316;0
815;83766561; 0.94888777; -0.26851293; -0.1504744; -0.06978762; 1.850345; -0.09734324; -0.61035156;0
816;83783228; 0.9524417; -0.26851878; -0.12722175; -0.06758124; 1.5728226; -0.24746683; -1.2717505;0
817;83799895; 0.9547382; -0.26966152; -0.10690728; -0.065792404; 1.5198112; -0.5947197; -1.7803602;0
818;83816562; 0.9561442; -0.27195257; -0.08768524; -0.06435418; 1.5236524; -0.3399992; -2.2528057;0
819;83833229; 0.9568964; -0.27504912; -0.06897045; -0.062773; 1.1196133; 0.13472456; -2.1419349;0
820;83849896; 0.95712686; -0.27851462; -0.050974067; -0.061152462; 0.71318245; -0.559488; -1.9713287;0
821;83866563; 0.9572607; -0.28088087; -0.03450587; -0.0597283; 0.0037602424; -1.0305637; -1.6726465;0
822;83883230; 0.9575335; -0.28162235; -0.021046236; -0.058100123; -0.2808324; -0.5053212; -1.4954796;0
823;83899897; 0.9581794; -0.28040242; -0.009389158; -0.05638115; -0.15535103; 0.16998205; -1.6054192;0
824;83916564; 0.9591177; -0.27769616; 0.0015689995; -0.05454987; -0.08784259; -0.1713647; -1.3769102;0
825;83933231; 0.9601944; -0.27405912; 0.010957297; -0.0529004; -0.32554337; -0.67135894; -1.0347986;0
826;83949898; 0.96138674; -0.26982135; 0.01710289; -0.051376913; -0.32036787; -0.34672916; -1.2312794;0
827;83966565; 0.96253335; -0.26559752; 0.021315109; -0.050333608; -0.08052162; 0.058930308; -2.004714;0
828;83983232; 0.96325547; -0.26273766; 0.025292106; -0.04968159; -0.21871945; 0.30366358; -2.4512634;0
829;83999899; 0.96347743; -0.2616613; 0.029039187; -0.04900746; -0.4283205; 0.32695565; -2.5462027;0
830;84016566; 0.9632426; -0.26226348; 0.03233353; -0.04833774; -0.40207082; 0.27537075; -1.977046;0
831;84033233; 0.9627485; -0.2637834; 0.035178836; -0.047920108; -0.25346333; 0.023260547; -1.1684732;0
832;84049900; 0.9622087; -0.2655415; 0.037030302; -0.04765571; -0.4879428; -0.07932139; -0.7632551;0
833;84066567; 0.9618803; -0.26672786; 0.03746841; -0.04731481; -0.45639443; 0.10938255; -0.8562803;0
834;84083234; 0.96167725; -0.26744175; 0.03764178; -0.04727737; -0.1394943; -0.14737819; -0.53937626;0
835;84099901; 0.96165556; -0.2674291; 0.03761436; -0.047807746; -0.3736405; -0.411735; -0.115382195;0
836;84116568; 0.96207625; -0.26585677; 0.036982033; -0.04860049; -0.43932882; -0.15537436; 0.060688972;0
837;84133235; 0.9628739; -0.26291326; 0.03594078; -0.04958806; -0.29025888; -0.043721817; 0.09816933;0
838;84149902; 0.9639573; -0.25892112; 0.034396365; -0.050627805; -0.20552547; -0.2039529; -0.16329765;0
839;84166569; 0.9652165; -0.25433496; 0.031527746; -0.051741935; -0.2992923; -0.16693266; -0.6482849;0
840;84183236; 0.96644825; -0.24977857; 0.027794464; -0.053068552; -0.3433823; 0.0735789; -1.2842083;0
841;84199903; 0.967386; -0.2462775; 0.023795165; -0.05427142; -0.45352215; 0.18288925; -1.7468929;0
842;84216570; 0.96799266; -0.2440396; 0.019565707; -0.05524845; -0.5271016; 0.20963493; -1.8302345;0
843;84233237; 0.96820146; -0.24335198; 0.014898975; -0.056072574; -0.27200654; -0.13232705; -1.5505848;0
844;84249904; 0.9681357; -0.24364452; 0.009379668; -0.057119302; -0.124033615; -0.23653415; -1.057909;0
845;84266571; 0.9679238; -0.24437052; 0.0026150236; -0.058308903; -0.1302382; 0.080021665; -1.0954409;0
846;84283238; 0.9676164; -0.2452438; -0.0051116263; -0.059567057; -0.16451095; 0.20743656; -1.3636961;0
847;84299905; 0.967126; -0.24653001; -0.013790962; -0.06082894; -0.2735938; 0.3617088; -1.6415186;0
848;84316572; 0.96636015; -0.24849197; -0.023144025; -0.062164694; -0.06716507; 0.2865139; -1.6096506;0
849;84333239; 0.96543497; -0.25049707; -0.033022624; -0.06400144; 0.0662404; 0.17399813; -1.0482855;0
850;84349906; 0.9643202; -0.2525777; -0.043925874; -0.06604378; -0.064503126; -0.15325524; -0.7975836;0
851;84366573; 0.96314937; -0.2539805; -0.056234326; -0.068376414; -0.43832734; 0.066635914; -1.2542706;0
852;84383240; 0.96173847; -0.25527412; -0.07008121; -0.07059184; -0.038462415; 0.3040898; -1.5731936;0
853;84399907; 0.95975953; -0.25750726; -0.08531453; -0.0726168; 0.47008932; 0.47902; -1.4944811;0
854;84416574; 0.95708287; -0.26096413; -0.101559624; -0.07467281; 1.4527937; 0.08622236; -1.6477537;0
855;84433241; 0.95397484; -0.2645534; -0.11761799; -0.07816558; 1.5161277; -0.10648895; -1.6918173;0
856;84449908; 0.9502112; -0.2686494; -0.13417067; -0.08321317; 0.72233176; 0.45678696; -1.2361097;0
857;84466575; 0.94576585; -0.27315122; -0.15221544; -0.08800993; 0.35537878; 0.20918198; -1.1427193;0
858;84483242; 0.9409487; -0.27731323; -0.1707528; -0.09250143; 0.19616659; -0.3102608; -0.91833305;0
859;84499909; 0.9356132; -0.28147048; -0.19021781; -0.0960187; 0.6730575; -0.61360383; -0.29397202;0
860;84516576; 0.9300036; -0.2844437; -0.21088208; -0.098560095; 1.4885591; -0.9224078; 0.7549286;0
861;84533243; 0.92425334; -0.28552827; -0.23176697; -0.10253687; 0.98197085; -1.1579102; 0.8947964;0
862;84549910; 0.917481; -0.2855206; -0.25557253; -0.10672209; -0.23297068; 0.5279014; -0.0069732666;0
863;84566577; 0.9101331; -0.28482595; -0.28042158; -0.10906776; 0.8535984; 0.059515018; 0.055540085;0
864;84583244; 0.9029229; -0.2839754; -0.30264243; -0.11178445; 1.0145761; -0.76327795; 0.8452387;0
865;84599911; 0.8951653; -0.28287426; -0.32464775; -0.11517463; -0.32479182; 0.68646014; 0.98999786;0
866;84616578; 0.8869923; -0.28016302; -0.34777087; -0.11751119; -0.7335253; 0.6908759; 1.1577673;0
867;84633245; 0.8787492; -0.27633008; -0.3707751; -0.11818382; -1.1111667; -0.09159919; 1.3316317;0
868;84649912; 0.87048143; -0.27006513; -0.39481133; -0.115979925; -0.41721913; -0.9540094; 2.0738535;0
869;84666579; 0.8626484; -0.25969985; -0.41886497; -0.11378081; -0.05582415; -1.0460254; 2.567504;0
870;84683246; 0.8555956; -0.24496256; -0.44207886; -0.11187576; -0.014889986; -0.062535346; 2.4583979;0
871;84699913; 0.8489321; -0.227703; -0.46418992; -0.109515905; -1.429144; 0.37189224; 1.3901453;0
872;84716580; 0.8407902; -0.21135099; -0.48719266; -0.10509977; -1.9692482; 0.41784406; 0.39576817;0
873;84733247; 0.8307344; -0.19770135; -0.5106427; -0.10019389; -0.28112566; -0.21394928; 0.6450405;0
874;84749914; 0.8201739; -0.1855796; -0.53252; -0.0964232; 1.3443741; -0.20960431; 1.1456289;0
875;84766581; 0.8112603; -0.17445281; -0.55015403; -0.093559586; 2.0581975; 0.07200347; 1.5622282;0
876;84783248; 0.8029814; -0.16407448; -0.5655859; -0.09172259; 1.1297369; 0.24302049; 1.2817593;0
877;84799915; 0.79365194; -0.1557249; -0.58099663; -0.091156416; -0.14858337; 0.3807883; 1.0546494;0
878;84816582; 0.7834659; -0.14980638; -0.5961004; -0.09167221; -0.5464373; 0.023520492; 0.8815918;0
879;84833249; 0.7737479; -0.14497097; -0.609844; -0.09158729; -1.188603; -0.60304254; 0.75877;0
880;84849916; 0.7651468; -0.13943318; -0.6220047; -0.09065891; -1.1289988; -1.3590366; 1.0854368;0
881;84866583; 0.7578171; -0.13284656; -0.6324964; -0.089517444; -0.80135787; -1.508644; 1.1210661;0
882;84883250; 0.7517306; -0.12461515; -0.64175177; -0.08675744; -1.0767276; -1.2944008; 1.0096769;0
883;84899917; 0.746657; -0.11590134; -0.6497598; -0.08296108; -1.2807686; -1.1978523; 1.1613913;0
884;84916584; 0.7425644; -0.10777966; -0.6562889; -0.07916347; -0.91993594; -1.0923564; 1.3447437;0
885;84933251; 0.73900807; -0.100952275; -0.66202974; -0.073432595; -0.19567084; 0.5629688; 0.99346733;0
886;84949918; 0.7350905; -0.098525584; -0.66737264; -0.06744241; 1.1508566; 2.8992722; 2.0753183;0
887;84966585; 0.73387295; -0.10285491; -0.6678898; -0.06909922; 0.9125779; 3.3284152; 3.4046936;0
888;84983252; 0.7388687; -0.111225314; -0.6601159; -0.07713168; -1.1654104; 1.6059947; 3.4454794;0
889;84999919; 0.74754274; -0.118954495; -0.6477701; -0.086160354; -2.461158; -1.3460083; 1.1420908;0
890;85016586; 0.7542916; -0.121868506; -0.6386125; -0.09146849; -1.7078346; -3.8433383; -0.63513947;0
891;85033253; 0.7591363; -0.1192428; -0.63336504; -0.09133443; -0.48270038; -3.575395; -0.40623665;0
892;85049920; 0.7636082; -0.11276686; -0.6296118; -0.08817623; 0.06396628; -1.3413188; 0.14399338;0
893;85066587; 0.768063; -0.10630378; -0.6257329; -0.08507278; 1.2640337; 0.18311338; 0.11152649;0
894;85083254; 0.7728558; -0.10315599; -0.6205421; -0.08354797; 2.0756366; 1.3524117; 0.12909794;0
895;85099921; 0.777961; -0.10417339; -0.61389846; -0.08398358; 1.9490062; 2.1346445; 0.4289341;0
896;85116588; 0.78317994; -0.11018349; -0.6056845; -0.087379776; 1.2554396; 2.2390904; 0.9853134;0
897;85133255; 0.7893198; -0.12004471; -0.5947722; -0.09386059; 0.30941927; 1.4109825; 1.5215693;0
898;85149922; 0.7965519; -0.13119623; -0.5812984; -0.1019057; -0.73925704; 0.15039472; 1.7310829;0
899;85166589; 0.8051119; -0.14036272; -0.5658125; -0.10931381; -1.8292644; -0.7973351; 1.726058;0
900;85183256; 0.8144976; -0.14623441; -0.5494888; -0.11520244; -2.6226585; -0.96020854; 1.4799328;0
901;85199923; 0.82414246; -0.14971447; -0.5330429; -0.11933185; -2.262719; -0.78205764; 1.9435339;0
902;85216590; 0.83457714; -0.15115517; -0.5152454; -0.123106554; -1.3638054; -0.08441146; 2.2272673;0
903;85233257; 0.84567416; -0.15213068; -0.49538112; -0.12762982; -0.83295906; 0.6158685; 1.8506222;0
904;85249924; 0.8566181; -0.1542233; -0.47413546; -0.13272612; -0.11374932; 0.4818614; 1.4582825;0
905;85266591; 0.86733174; -0.15765414; -0.4514897; -0.13797888; 0.36608294; 0.31743276; 1.2677746;0
906;85283258; 0.8774615; -0.16248697; -0.42794812; -0.14324723; 0.5009685; 0.31411102; 1.1062946;0
907;85299925; 0.88726604; -0.16678505; -0.40394688; -0.14754196; -0.1820361; -0.34060055; 1.210618;0
908;85316592; 0.89621854; -0.17252831; -0.37963346; -0.15134324; 0.6194744; -0.10432545; 0.6994581;0
909;85333259; 0.904779; -0.17899384; -0.35415742; -0.1546249; 0.21070053; 0.2806364; 0.8793678;0
910;85349926; 0.9128205; -0.18564752; -0.3281606; -0.1568579; 0.25873166; -0.004186956; 0.43558598;0
911;85366593; 0.9202722; -0.19277571; -0.30166456; -0.15790956; 0.16793534; -0.18771267; 0.14434433;0
912;85383260; 0.926595; -0.20002966; -0.2765864; -0.15782955; 0.4151344; -0.42365864; 0.20088673;0
913;85399927; 0.9323324; -0.2071568; -0.25110543; -0.15744436; 0.6230075; -0.41576985; 0.015807152;0
914;85416594; 0.93738914; -0.21459118; -0.22562088; -0.15603791; 0.37212023; -0.25950995; -0.23541069;0
915;85433261; 0.9415049; -0.2227441; -0.20076574; -0.15377536; 0.48529333; -0.2865016; -0.48067188;0
916;85449928; 0.9445363; -0.23215385; -0.17653586; -0.15096608; 0.69723827; 0.023968188; -0.8672447;0
917;85466595; 0.9465115; -0.24297203; -0.15264657; -0.14757913; 0.6806396; 0.09507112; -1.4415054;0
918;85483262; 0.9472886; -0.25591192; -0.12860285; -0.14358023; 0.29898635; -0.24824433; -1.6935043;0
919;85499929; 0.9469893; -0.2702214; -0.10458122; -0.13876092; 0.2263965; -0.73848903; -1.3215122;0
920;85516596; 0.945676; -0.2851434; -0.08085835; -0.13361263; 0.03184903; -0.79914933; -0.0654335;0
921;85533263; 0.94380134; -0.2991575; -0.058060497; -0.12795644; -0.19629349; -0.7340127; 0.9734793;0
922;85549930; 0.9419966; -0.31062007; -0.036650337; -0.12171521; -0.49804878; -0.4551524; 1.2603703;0
923;85566597; 0.9408801; -0.31830338; -0.016893977; -0.11463994; -0.42261177; -0.35112143; 1.1680717;0
924;85583264; 0.94056845; -0.32231796; 8.597048E-4; -0.10696534; -0.4121476; -0.4649246; 0.543128;0
925;85599931; 0.9407973; -0.32371163; 0.016464699; -0.099199064; 0.13163769; -0.54531705; -0.32793903;0
926;85616598; 0.941135; -0.32375243; 0.030982055; -0.09213818; 0.5718865; -0.20774055; -0.67045593;0
927;85633265; 0.9410925; -0.32400796; 0.04460588; -0.08587515; 0.53958166; -0.052595057; -1.285881;0
928;85649932; 0.9405622; -0.32498643; 0.057287518; -0.08028033; 0.43908048; 0.0024595365; -1.4871159;0
929;85666599; 0.93968785; -0.32649592; 0.06887216; -0.07512746; 0.24762033; -0.109750226; -1.4476948;0
930;85683266; 0.9386888; -0.32816857; 0.07888991; -0.070321694; -0.15598471; -0.1839058; -1.6423988;0
931;85699933; 0.9377189; -0.32968694; 0.087512314; -0.0658147; -0.26703316; -0.35925886; -1.8529849;0
932;85716600; 0.9368545; -0.3307165; 0.09524732; -0.06211702; -0.31844142; -0.32197198; -1.180686;0
933;85733267; 0.93626386; -0.3311823; 0.10138064; -0.058739018; -0.545821; -0.028251143; -1.0523958;0
934;85749934; 0.93617797; -0.33049828; 0.10606511; -0.055605758; -0.7829595; -0.031743534; -1.5408459;0
935;85766601; 0.93617; -0.32988292; 0.10952835; -0.052601553; -0.65473956; 0.0641167; -1.7269211;0
936;85783268; 0.93599623; -0.3299563; 0.112085246; -0.04976857; -0.41535822; 0.041192543; -1.6788845;0
937;85799935; 0.93565416; -0.33068025; 0.11381601; -0.047412336; -0.6005442; 0.2412324; -1.5080948;0
938;85816602; 0.93519944; -0.3319026; 0.114835665; -0.04533801; -0.8325694; 0.2971502; -1.4347591;0
939;85833269; 0.93470603; -0.33329532; 0.115454644; -0.04369374; -0.6153981; 0.068897866; -0.91124535;0
940;85849936; 0.93440384; -0.33434328; 0.1153425; -0.042431213; -0.41168973; -0.18879044; -0.502964;0
941;85866603; 0.934472; -0.33460286; 0.114315614; -0.04165121; -0.5581406; -0.09816287; -0.50127125;0
942;85883270; 0.93482876; -0.33429664; 0.112446755; -0.041192558; -0.7575974; -0.029492758; -0.74933624;0
943;85899937; 0.93528366; -0.33371487; 0.11036071; -0.04122693; -0.5875972; -0.23172796; -0.8887625;0
944;85916604; 0.93562126; -0.3336667; 0.10747872; -0.041564614; -0.29185674; -0.1771224; -0.73307514;0
945;85933271; 0.9359005; -0.33393332; 0.103814416; -0.04244257; -0.026667722; -0.16790964; -0.69908524;0
946;85949938; 0.9360415; -0.33459735; 0.09972176; -0.043893132; -0.22731888; -0.09680235; -0.9004364;0
947;85966605; 0.93614817; -0.3354912; 0.094803095; -0.045658056; -0.7262828; 0.023489647; -1.077878;0
948;85983272; 0.93626034; -0.3365001; 0.08897754; -0.047615286; -0.6937753; -0.0543664; -1.4083376;0
949;85999939; 0.93630326; -0.33780122; 0.082150705; -0.04977671; -0.3848351; -0.0049029803; -1.5732765;0
950;86016606; 0.9361012; -0.3397495; 0.074268825; -0.052622277; -0.13334331; -0.056691825; -1.7213659;0
951;86033273; 0.93555826; -0.3425715; 0.0646956; -0.056480497; -0.09980675; 0.35141176; -1.8746753;0
952;86049940; 0.9345523; -0.3466149; 0.05265101; -0.060811725; 0.03715386; 0.98154974; -2.604416;0
953;86066607; 0.93289644; -0.35179287; 0.039538927; -0.06620351; 0.26542956; 0.76311344; -2.8958821;0
954;86083274; 0.93066347; -0.35759893; 0.025753494; -0.07297581; 0.16496952; 0.4795437; -2.275435;0
955;86099941; 0.92822826; -0.36305463; 0.010651253; -0.08043913; -0.066470794; 0.44412246; -1.6680298;0
956;86116608; 0.9260773; -0.3670393; -0.0066704615; -0.087283954; 0.10179333; 0.11509062; -1.6180458;0
957;86133275; 0.9243944; -0.36873764; -0.026105765; -0.094053484; 0.6291634; -0.8496465; -1.70191;0
958;86149942; 0.92270565; -0.36862734; -0.04923752; -0.1015089; 0.20791015; -0.44303197; -1.3707895;0
959;86166609; 0.9204656; -0.3676441; -0.07525677; -0.109166995; 0.48659888; -0.31841633; -1.0433025;0
960;86183276; 0.91749704; -0.3662728; -0.10166246; -0.11708224; 0.10460669; -0.20718868; -0.63440037;0
961;86199943; 0.9145769; -0.36342335; -0.1273098; -0.12355137; -0.03218637; -0.77257943; -0.7177782;0
962;86216610; 0.9113102; -0.35987496; -0.15322296; -0.12855613; 0.121354796; -0.8178053; -0.32495785;0
963;86233277; 0.9074964; -0.35527283; -0.1807969; -0.13245383; 0.8608828; -0.6101752; 0.33781815;0
964;86249944; 0.903066; -0.350167; -0.2072645; -0.13746393; 1.127587; -0.6442524; 0.9955931;0
965;86266611; 0.8984439; -0.3444562; -0.23115912; -0.14392447; -0.13418299; -0.1881921; 0.26524353;0
966;86283278; 0.89380944; -0.33815214; -0.25412422; -0.14892535; -1.1984199; -0.43711713; 0.07985687;0
967;86299945; 0.8888936; -0.33108044; -0.2786824; -0.15030067; -0.7025774; -0.8052539; 1.2500525;0
968;86316612; 0.8838674; -0.32238314; -0.30406573; -0.14963931; 0.41775286; -1.5768794; 2.492343;0
969;86333279; 0.8783042; -0.31215182; -0.32996252; -0.14922403; 0.18703295; -0.18686555; 1.9126081;0
970;86349946; 0.8719995; -0.30166695; -0.35558474; -0.14890808; 0.22083259; 0.4344124; 0.20990181;0
971;86366613; 0.86473197; -0.29290587; -0.3803092; -0.14768147; 0.04786485; 0.066820316; 0.020516396;0
972;86383280; 0.8574607; -0.28390774; -0.40463772; -0.14291985; -0.054076724; 0.008406099; 1.3366795;0
973;86399947; 0.8504269; -0.27472207; -0.4273689; -0.13659325; 0.611295; -1.0265411; 3.519248;0
974;86416614; 0.8427091; -0.26350695; -0.45084068; -0.13095091; -0.22794746; 0.042764064; 2.7247343;0
975;86433281; 0.8332937; -0.25140253; -0.47605127; -0.12567346; 0.08598991; 0.8080915; 1.9936056;0
976;86449948; 0.82374066; -0.23862727; -0.49979243; -0.12130976; 0.12241; 0.96741503; 1.1635513;0
977;86466615; 0.81548566; -0.22445771; -0.52058077; -0.1166093; -0.41594687; 0.95415527; 0.5140743;0
978;86483282; 0.8081549; -0.21094394; -0.5383715; -0.112002864; -0.2591029; 0.2922956; 1.5028505;0
979;86499949; 0.8006063; -0.19718869; -0.55543566; -0.10787732; -1.0131735; 0.17991966; 1.9408112;0
980;86516616; 0.7924944; -0.18368644; -0.5721442; -0.104225345; -1.4673836; 0.14058876; 1.9221916;0
981;86533283; 0.7849107; -0.1714645; -0.58676356; -0.1011127; -0.8970527; -0.28261963; 1.4959688;0
982;86549950; 0.77748185; -0.16054566; -0.6001918; -0.097555; -0.5375902; -0.5758792; 0.89639664;0
983;86566617; 0.76997894; -0.15062727; -0.61291295; -0.09371112; -0.24250083; -0.6859049; 0.83982754;0
984;86583284; 0.7626159; -0.14135467; -0.624775; -0.08995607; -0.4751519; -0.8399304; 1.0318165;0
985;86599951; 0.7557382; -0.13314071; -0.63526994; -0.086979486; -0.44522798; -0.98677987; 1.2389135;0
986;86616618; 0.75007915; -0.1250405; -0.64403677; -0.08344231; -0.6563597; -0.41560346; 1.1975489;0
987;86633285; 0.74557406; -0.116676696; -0.6513089; -0.07939055; -0.59682786; 0.057745468; 1.2810965;0
988;86649952; 0.742128; -0.108947605; -0.6570112; -0.07558484; -0.52443427; 0.22161996; 1.1486549;0
989;86666619; 0.7397196; -0.102076635; -0.6613273; -0.071003385; 0.09351782; 0.86416835; 0.71159744;0
990;86683286; 0.73788404; -0.09742968; -0.6645924; -0.06596694; 0.89323735; 2.236417; 0.7999983;0
991;86699953; 0.7375466; -0.098850876; -0.6648334; -0.0651928; 1.4111768; 3.144197; 1.6527176;0
992;86716620; 0.7412887; -0.10623005; -0.65902543; -0.06994202; 0.23339714; 2.1379492; 2.2505465;0
993;86733287; 0.7489802; -0.115463585; -0.64798844; -0.076209776; -1.1607918; 0.019885836; 1.6076679;0
994;86749954; 0.7570761; -0.12215893; -0.6367851; -0.08011093; -1.5996138; -1.750412; 0.42592144;0
995;86766621; 0.7644149; -0.12453925; -0.6275117; -0.0799309; -1.3777943; -1.679282; 0.5941849;0
996;86783288; 0.7713663; -0.12355488; -0.619537; -0.076826416; -0.91979915; -0.64785457; 0.8258667;0
997;86799955; 0.7781519; -0.12280799; -0.6114904; -0.074010305; -0.040171538; 0.49791366; 1.0565767;0
998;86816622; 0.785929; -0.12493032; -0.60111046; -0.07330918; 0.49052778; 1.1713194; 1.4303169;0
999;86833289; 0.79480505; -0.13116506; -0.5876829; -0.07556241; 0.4903776; 1.36154; 1.4704008;0
1000;86849956; 0.80452096; -0.14130554; -0.5712361; -0.08042612; 0.021737529; 0.93380076; 1.3642073;0
1001;86866623; 0.81461734; -0.15477052; -0.55202657; -0.08781469; -0.0082306415; 0.41065705; 1.4699945;0
1002;86883290; 0.82522374; -0.16994178; -0.52995265; -0.0963121; -0.6192368; -0.056112368; 1.5560846;0
1003;86899957; 0.8358247; -0.18515632; -0.50612026; -0.104673095; -1.1278208; -0.44307745; 1.4955349;0
1004;86916624; 0.8460892; -0.20026772; -0.48099273; -0.11257011; -1.1887434; -0.4507025; 1.4237766;0
1005;86933291; 0.85554385; -0.21517701; -0.4556343; -0.1189163; -1.2452899; -0.24441142; 1.6717396;0
1006;86949958; 0.86456996; -0.22898605; -0.42982754; -0.123825304; -0.7017551; -0.19768603; 1.9070559;0
1007;86966625; 0.8733651; -0.24182706; -0.40314555; -0.12738392; -0.71704835; -0.26754656; 1.6598072;0
1008;86983292; 0.8814711; -0.25427684; -0.37653318; -0.12874329; -0.77965117; -0.23681466; 1.3790932;0
1009;86999959; 0.88897544; -0.26573926; -0.35038218; -0.12781924; -0.22081381; -0.19373298; 1.6605978;0
1010;87016626; 0.8960137; -0.27632493; -0.32401788; -0.12576479; 0.37910882; 0.028844794; 1.6942844;0
1011;87033293; 0.9026667; -0.28626674; -0.2967895; -0.123126864; 0.91096485; -0.052944407; 1.7554674;0
1012;87049960; 0.90898156; -0.29539376; -0.26829734; -0.12046451; 0.80890167; -0.3577651; 1.6575823;0
1013;87066627; 0.9146711; -0.30292112; -0.24058193; -0.117200784; 0.24107057; -0.11321736; 1.0602694;0
1014;87083294; 0.9197459; -0.30842704; -0.21474904; -0.11323974; 0.6357605; 0.08486653; 0.5717764;0
1015;87099961; 0.92446876; -0.31246454; -0.18913206; -0.109327696; 1.0604188; -0.07015267; -0.09651375;0
1016;87116628; 0.92876494; -0.31561914; -0.1634384; -0.10520646; 0.68111485; -0.29295596; -0.21547318;0
1017;87133295; 0.93245447; -0.31802154; -0.13894725; -0.10042277; 0.6910711; -0.5252056; -0.37415314;0
1018;87149962; 0.9355297; -0.31985503; -0.115628675; -0.09543184; 0.6752682; -0.4514481; -0.8656063;0
1019;87166629; 0.9380824; -0.32117578; -0.09353853; -0.089991376; 0.7641598; -0.45732942; -1.2445498;0
1020;87183296; 0.93971527; -0.32322854; -0.072655745; -0.084732674; 0.94666183; -0.4189024; -1.5393381;0
1021;87199963; 0.9404518; -0.32605907; -0.052781623; -0.0803123; 1.0169634; -0.11980898; -1.8918114;0
1022;87216630; 0.9402784; -0.3299151; -0.034178644; -0.07658036; 0.5605106; 0.15006481; -2.2308826;0
1023;87233297; 0.9395021; -0.33432278; -0.016812814; -0.07267393; 0.1135053; -0.1729351; -2.2071595;0
1024;87249964; 0.93837357; -0.33880553; -0.0012163729; -0.06829764; -0.19078362; -0.35291758; -1.961442;0
1025;87266631; 0.93688816; -0.3435792; 0.0120159; -0.063639104; -0.30036503; 0.03165569; -1.9383836;0
1026;87283298; 0.9349098; -0.34916845; 0.023487946; -0.058936335; -0.18873064; -0.011421065; -2.0089746;0
1027;87299965; 0.9326284; -0.35501775; 0.03409551; -0.054811373; -0.0605669; -0.10582556; -1.3499842;0
1028;87316632; 0.9302978; -0.36046383; 0.044319365; -0.051455915; 0.07713664; -0.0398575; -0.42385387;0
1029;87333299; 0.9283963; -0.36450955; 0.053565733; -0.048416037; -0.10836651; 0.07668216; -0.09479427;0
1030;87349966; 0.92745703; -0.3660086; 0.061270855; -0.04590134; -0.17755572; 0.14451297; -0.32863235;0
1031;87366633; 0.927367; -0.36529797; 0.06777928; -0.044201855; -0.19950151; -0.021444056; -0.59542465;0
1032;87383300; 0.9278369; -0.36326727; 0.07286679; -0.042965725; -0.2706677; -0.19141538; -0.7583294;0
1033;87399967; 0.9286835; -0.36043307; 0.07656856; -0.04209838; -0.32419175; -0.1029979; -0.843812;0
1034;87416634; 0.9296688; -0.35735235; 0.07929809; -0.041558757; -0.28007475; 0.048290867; -0.78133106;0
1035;87433301; 0.9305803; -0.35456836; 0.081298195; -0.04113774; -0.32992747; -0.037813697; -0.77964115;0
1036;87449968; 0.9313674; -0.3522068; 0.082697004; -0.040827032; -0.42861906; -0.16899525; -0.9414959;0
1037;87466635; 0.9319459; -0.35055113; 0.08333117; -0.04058295; -0.51959074; 0.057632145; -0.9743624;0
1038;87483302; 0.9323811; -0.34934938; 0.0835948; -0.04040628; -0.44559515; 0.14520764; -0.90041924;0
1039;87499969; 0.9326973; -0.348488; 0.08378576; -0.04014972; -0.4458322; 0.024937565; -0.8738594;0
1040;87516636; 0.93289065; -0.34803483; 0.08363169; -0.039906546; -0.28494135; 0.041861072; -0.5637474;0
1041;87533303; 0.9332162; -0.34739748; 0.08267909; -0.03983643; -0.054151267; 0.033158816; -0.3880167;0
1042;87549970; 0.9336933; -0.34633625; 0.0815106; -0.04030205; -0.28038818; -0.11756446; -0.18311405;0
1043;87566637; 0.9343964; -0.3448285; 0.079620354; -0.040713225; -0.4757305; 0.22583011; -0.11542988;0
1044;87583304; 0.93519926; -0.3430468; 0.07766735; -0.041100174; -0.22765242; 0.38603795; -0.2531433;0
1045;87599971; 0.93590355; -0.3415016; 0.07576605; -0.041482866; -0.15200154; 0.19467352; -0.38287926;0
1046;87616638; 0.93661094; -0.33999726; 0.073543526; -0.04187342; -0.31560734; 0.124869086; -0.3130293;0
1047;87633305; 0.9372408; -0.3387357; 0.071009174; -0.042376526; -0.33911228; 0.26301172; -0.28111935;0
1048;87649972; 0.93782693; -0.33753785; 0.0685378; -0.043029327; -0.34006724; 0.28839406; -0.23952866;0
1049;87666639; 0.9384268; -0.3362997; 0.06593807; -0.043704726; -0.67359316; 0.24287142; -0.39145374;0
1050;87683306; 0.93910944; -0.33486676; 0.06296482; -0.04441907; -0.7882472; 0.18023594; -0.5207863;0
1051;87699973; 0.93984896; -0.33338758; 0.05926989; -0.044989105; -0.77191424; 0.19179267; -0.6590338;0
1052;87716640; 0.94058025; -0.3320369; 0.054700825; -0.045477565; -0.75415367; 0.12823586; -1.1338215;0
1053;87733307; 0.94115037; -0.33123153; 0.049029775; -0.046019148; -0.2502467; 0.026427278; -1.2652388;0
1054;87749974; 0.94151044; -0.33106264; 0.04213578; -0.046692662; 0.21131438; 0.26786017; -1.4373322;0
1055;87766641; 0.94170254; -0.33120453; 0.034244794; -0.048241775; 0.09449474; 0.36027384; -1.681737;0
1056;87783308; 0.9416612; -0.33183923; 0.024786243; -0.05042559; -0.08576904; 0.3596672; -1.740201;0
1057;87799975; 0.94167954; -0.33202276; 0.014108487; -0.052932195; 0.1411596; 0.078390464; -1.9602618;0
1058;87816642; 0.9417335; -0.3315724; 0.0024364952; -0.056496613; -0.31152707; 0.33306402; -2.254447;0
1059;87833309; 0.9412784; -0.33201537; -0.011461183; -0.060245894; -0.55386776; 0.8270489; -2.519611;0
1060;87849976; 0.9400211; -0.3339394; -0.027807415; -0.06380914; 0.16108546; 0.67553115; -2.8470626;0
1061;87866643; 0.938134; -0.3364168; -0.04470035; -0.06877661; 1.4161848; -0.455835; -2.0916195;0
1062;87883310; 0.936022; -0.33795238; -0.06142306; -0.07667038; 0.7649712; 0.48012012; -0.6986847;0
1063;87899977; 0.9341067; -0.33740285; -0.07976814; -0.085095; -0.09718567; 0.5114345; -0.25448418;0
1064;87916644; 0.93243; -0.33474866; -0.10056771; -0.09167401; -0.20827793; -0.56184226; -0.7046213;0
1065;87933311; 0.9301816; -0.33160987; -0.123573564; -0.09760588; -0.04488101; -0.8216781; -0.84175205;0
1066;87949978; 0.9269929; -0.32862833; -0.14862727; -0.102945395; 0.7508852; -0.20060891; -1.1347704;0
1067;87966645; 0.9223397; -0.32709947; -0.17434171; -0.10909123; 0.94369483; 0.6242728; -1.2956657;0
1068;87983312; 0.916115; -0.32780716; -0.2002758; -0.114741676; 1.373024; 0.2056632; -0.9663143;0
1069;87999979; 0.90941983; -0.32861182; -0.2244857; -0.12073274; 1.374836; -1.1799394; 0.20195389;0
1070;88016646; 0.9023453; -0.32827768; -0.24856637; -0.12736376; -0.047754884; -0.27130294; 1.1609945;0
1071;88033313; 0.89537686; -0.32470912; -0.27409908; -0.13316919; -0.14319246; -0.22388846; 1.9013796;0
1072;88049980; 0.88836825; -0.31848985; -0.30032122; -0.13846825; -0.6380602; 0.07796713; 1.1516609;0
1073;88066647; 0.88118184; -0.3109515; -0.32690158; -0.14129132; -0.8007767; -0.32138056; 0.6409693;0
1074;88083314; 0.8742768; -0.30225337; -0.35238683; -0.14179848; -0.5164506; -0.32851174; 1.289917;0
1075;88099981; 0.8680596; -0.29153866; -0.3763816; -0.14076476; -0.5462391; 0.024169797; 2.0241604;0
1076;88116648; 0.8616796; -0.28002194; -0.39985982; -0.1385933; -0.62962997; 0.67297626; 2.2309294;0
1077;88133315; 0.8540211; -0.26824734; -0.42476556; -0.1351503; -0.2944363; 1.2145907; 1.5828447;0
1078;88149982; 0.845196; -0.25659755; -0.45028776; -0.13054687; 0.38898852; 1.0578707; 1.7422314;0
1079;88166649; 0.83669436; -0.2446958; -0.4734381; -0.12618612; 0.7859869; -0.25408238; 2.5046377;0
1080;88183316; 0.8289704; -0.23196995; -0.49374464; -0.12334724; -0.14133663; 0.28937888; 1.8399668;0
1081;88199983; 0.8215478; -0.21860003; -0.51257837; -0.120569214; -1.0160215; 0.894268; 1.3587303;0
1082;88216650; 0.8146223; -0.20586593; -0.5294128; -0.11718417; -1.1023252; 0.2819426; 1.010706;0
1083;88233317; 0.8068599; -0.1938673; -0.5463555; -0.11352673; -2.07476; 0.18395855; 1.4084282;0
1084;88249984; 0.7984852; -0.18345445; -0.5625729; -0.11080453; -0.96014994; 0.58336055; 1.415618;0
1085;88266651; 0.790198; -0.17525917; -0.5770186; -0.109183006; 0.06747141; 0.35023686; 1.3510876;0
1086;88283318; 0.7821555; -0.16988367; -0.58946; -0.10913032; 0.94917953; -0.086736776; 1.6122437;0
1087;88299985; 0.77499765; -0.16596632; -0.5997483; -0.11016243; 0.98476946; -0.2786442; 1.7150812;0
1088;88316652; 0.7685012; -0.16201814; -0.60895485; -0.11104068; 0.10000327; 0.0819337; 1.2412281;0
1089;88333319; 0.7623183; -0.15893504; -0.61720335; -0.112564124; -0.54812574; 0.37980583; 0.9748974;0
1090;88349986; 0.7570399; -0.15753664; -0.62350416; -0.11539354; -0.7637004; 0.19951773; 1.0048828;0
1091;88366653; 0.75343055; -0.15604542; -0.62771976; -0.11815407; -0.9898745; 0.07275134; 1.1781158;0
1092;88383320; 0.75135845; -0.1532553; -0.63046163; -0.12038018; -0.9355291; -0.03737718; 1.0944328;0
1093;88399987; 0.7501483; -0.15063447; -0.63231176; -0.12152756; -0.72833174; 0.36406255; 0.34745407;0
1094;88416654; 0.748967; -0.14998658; -0.6338107; -0.12180513; 0.15530261; 0.8363708; 0.082211494;0
1095;88433321; 0.7488932; -0.15276654; -0.6329243; -0.1234026; 0.73603666; 0.95110273; 0.8755541;0
1096;88449988; 0.7517466; -0.15846156; -0.62744236; -0.12682049; -0.14415245; 0.45159015; 1.385293;0
1097;88466655; 0.75704294; -0.16460417; -0.6186949; -0.13041651; -1.4382348; -0.47032133; 0.9611025;0
1098;88483322; 0.7629637; -0.16883208; -0.6098337; -0.13223103; -1.711343; -1.0616596; 0.5844488;0
1099;88499989; 0.7690097; -0.1705613; -0.60183877; -0.13161801; -1.4920384; -0.9854243; 0.88158417;0
1100;88516656; 0.77526057; -0.17051825; -0.59423083; -0.12955509; -1.1240529; -0.3817332; 1.0789967;0
1101;88533323; 0.7820657; -0.1700837; -0.58591276; -0.12708654; -0.41776672; 0.26630497; 1.240591;0
1102;88549990; 0.78984904; -0.17185494; -0.57495743; -0.12660287; -0.24300507; 0.88123417; 1.4764194;0
1103;88566657; 0.7985949; -0.17698084; -0.56076324; -0.12832993; -0.3233222; 0.8637806; 1.5264883;0
1104;88583324; 0.80799276; -0.1852952; -0.54350793; -0.13195698; -0.46060252; 0.39637664; 1.7389545;0
1105;88599991; 0.81790924; -0.19450839; -0.5239119; -0.13677464; -0.7644179; 0.11274742; 2.0476494;0
1106;88616658; 0.8282108; -0.20331606; -0.5025071; -0.14218362; -0.97378516; 0.28955635; 1.9058456;0
1107;88633325; 0.8389216; -0.21185543; -0.4790518; -0.14777493; -0.87909347; 0.57042027; 1.9002295;0
1108;88649992; 0.8495606; -0.22112986; -0.45368564; -0.15335555; -0.8546018; 0.500393; 1.7875471;0
1109;88666659; 0.8594025; -0.23072301; -0.42794144; -0.15830539; -0.75122523; 0.42700318; 1.6367998;0
1110;88683326; 0.8683465; -0.24048233; -0.40215716; -0.1625189; -0.28419182; 0.291249; 1.2891626;0
1111;88699993; 0.87623096; -0.2507214; -0.37652615; -0.16609101; 0.2670477; 0.68393534; 0.5187092;0
1112;88716660; 0.88348985; -0.26186228; -0.3495825; -0.16931038; 1.109541; 0.5572189; 0.33557224;0
1113;88733327; 0.8899478; -0.27360502; -0.3215851; -0.17238462; 1.1538955; 0.9517195; 0.49103165;0
1114;88749994; 0.89565873; -0.28564605; -0.29178125; -0.17625463; 0.9374234; -0.4770893; 1.1371164;0
1115;88766661; 0.90035534; -0.29800338; -0.26133448; -0.1796068; -0.7022292; -1.1659936; 1.0397968;0
1116;88783328; 0.90548456; -0.30596858; -0.23283634; -0.17963362; -2.3247018; -0.935186; 1.8176594;0
1117;88799995; 0.9104787; -0.31154233; -0.2074406; -0.17589298; -0.7763947; -0.7722614; 0.5291195;0
1118;88816662; 0.91536665; -0.3147729; -0.18339778; -0.17142724; 0.5406072; -0.38443267; 0.731164;0
1119;88833329; 0.91966426; -0.3174814; -0.15910898; -0.16765349; 0.8172085; 0.031015776; -0.120532036;0
1120;88849996; 0.9230145; -0.32038173; -0.13601533; -0.16401169; 0.5968101; -0.05257293; -0.3719225;0
1121;88866663; 0.92549646; -0.3237863; -0.11398015; -0.16008529; 0.99089617; -0.17999588; -0.6273556;0
1122;88883330; 0.92726624; -0.3278609; -0.09124062; -0.15607697; 0.97920823; -0.12935522; -0.76109886;0
1123;88899997; 0.92839104; -0.3320119; -0.068605594; -0.15215604; 0.56043553; -0.057431206; -0.5385561;0
1124;88916664; 0.9288889; -0.3360919; -0.04718612; -0.14826074; 0.19634518; -0.23073936; -0.47835732;0
1125;88933331; 0.9291538; -0.33941612; -0.027552515; -0.1439127; 0.24857537; -0.2698188; -0.34404945;0
1126;88949998; 0.92956334; -0.34119505; -0.009235265; -0.1393295; 0.45525894; 0.07451899; -0.46759033;0
1127;88966665; 0.9301825; -0.341232; 0.008042123; -0.13511732; 0.13551375; 0.077860735; -0.41460037;0
1128;88983332; 0.93062943; -0.34085748; 0.023791932; -0.13106982; -0.24389756; -0.27482593; -0.45535374;0
1129;88999999; 0.93104; -0.34017536; 0.03711904; -0.12675788; -0.007260204; -0.010524107; -0.81234455;0
1130;89016666; 0.93149936; -0.33909127; 0.048453722; -0.12238689; 0.44823372; 0.41279846; -1.480936;0
1131;89033333; 0.9317418; -0.33807886; 0.05867672; -0.11881603; 0.40565467; 0.43523538; -2.107294;0
1132;89050000; 0.93172777; -0.3372655; 0.0682849; -0.11607125; 0.20844531; 0.2911614; -2.3378649;0
1133;89066667; 0.9312902; -0.33738637; 0.076788664; -0.11389734; -0.3799966; 0.26751617; -2.113576;0
1134;89083334; 0.9307231; -0.33801734; 0.08385237; -0.11165837; -0.52437663; 0.26837155; -1.8489051;0
1135;89100001; 0.930153; -0.33866042; 0.090070345; -0.10959836; -0.5011645; 0.056351192; -1.3336592;0
1136;89116668; 0.92964745; -0.33939472; 0.09501899; -0.10741657; -0.47226286; -0.0021613704; -0.994812;0
1137;89133335; 0.9295029; -0.3396346; 0.09811581; -0.10510038; -0.49267504; 0.14922641; -1.115819;0
1138;89150002; 0.92929333; -0.3401312; 0.10059235; -0.102985285; -0.51168615; 0.06620052; -1.2220659;0
1139;89166669; 0.9286816; -0.34185234; 0.102578215; -0.10082439; -0.61351; 0.021357333; -0.9166918;0
1140;89183336; 0.9279724; -0.3441112; 0.10371783; -0.09847661; -0.31483084; 0.2291761; -0.7683611;0
1141;89200003; 0.92722756; -0.34621733; 0.104963325; -0.09677606; -0.2132061; 0.28067774; -0.8935909;0
1142;89216670; 0.9264398; -0.34832; 0.10601712; -0.095618755; -0.43271998; 0.40475962; -0.7170057;0
1143;89233337; 0.9258663; -0.34981486; 0.106732555; -0.094917245; -0.47959125; 0.2899075; -0.34994125;0
1144;89250004; 0.92563206; -0.3504557; 0.106903754; -0.09464558; -0.39019114; 0.07185248; -0.09954929;0
1145;89266671; 0.92571545; -0.3504387; 0.10626734; -0.09460896; -0.5559248; 0.32708728; -0.12530708;0
1146;89283338; 0.9260337; -0.3501042; 0.10469847; -0.09448245; -0.36530074; 0.58979994; -0.3158865;0
1147;89300005; 0.9264289; -0.34948814; 0.10312554; -0.094618365; -0.021143822; 0.5816207; -0.46110725;0
1148;89316672; 0.9266993; -0.34891316; 0.10204841; -0.095258825; -0.2841615; 0.28029308; -0.41603565;0
1149;89333339; 0.9268414; -0.34886652; 0.10037641; -0.095822126; -0.63259166; 0.28173473; -0.32552052;0
1150;89350006; 0.9270072; -0.34887046; 0.098234735; -0.09642188; -0.15897304; 0.3753498; -0.28126335;0
1151;89366673; 0.9271335; -0.3487379; 0.09641041; -0.09752282; -0.03864472; 0.28728345; -0.17003155;0
1152;89383340; 0.92736626; -0.34842268; 0.09419472; -0.09859465; -0.3948204; 0.3285323; -0.31581116;0
1153;89400007; 0.9278654; -0.34758645; 0.09122311; -0.09963973; -0.38478476; 0.2041936; -0.49260712;0
1154;89416674; 0.92829555; -0.34694162; 0.08786731; -0.100887895; -0.35606262; 0.102780424; -0.7530756;0
1155;89433341; 0.92858523; -0.3467576; 0.08386369; -0.10225203; -0.2982077; 0.1579937; -1.0389786;0
1156;89450008; 0.92868555; -0.34717652; 0.078921996; -0.103841; -0.18894003; 0.27264467; -1.2880993;0
1157;89466675; 0.9285232; -0.3483551; 0.07282506; -0.105783194; -0.024608664; 0.36802772; -1.5917978;0
1158;89483342; 0.9279879; -0.3503712; 0.065883294; -0.108341865; -0.20620607; 0.49501637; -1.7545605;0
1159;89500009; 0.92713654; -0.35307723; 0.058208697; -0.11120363; -0.36941466; 0.31763962; -1.607933;0
1160;89516676; 0.92620504; -0.35590473; 0.04946558; -0.11414737; -0.2755374; -9.6624653E-4; -1.3347692;0
1161;89533343; 0.9252965; -0.35854772; 0.0389479; -0.11727468; -0.18378523; 0.25996658; -1.4103975;0
1162;89550010; 0.92414284; -0.3614217; 0.026729776; -0.120913506; -0.21411505; 0.53742033; -1.8391232;0
1163;89566677; 0.92243856; -0.36518776; 0.012834771; -0.12482165; -0.23003829; 0.7784514; -2.0244136;0
1164;89583344; 0.92022043; -0.36981288; -0.0025403872; -0.12816575; 0.31085217; 0.6344567; -2.297265;0
1165;89600011; 0.9174672; -0.374955; -0.018410929; -0.13162133; 0.9842239; -0.07245687; -2.3535652;0
1166;89616678; 0.9147855; -0.37863612; -0.034878135; -0.13633037; 1.1492268; -0.38864455; -1.727994;0
1167;89633345; 0.9127216; -0.37890083; -0.05234542; -0.14364435; 0.18028308; -0.36932677; -0.27714157;0
1168;89650012; 0.9115028; -0.37586668; -0.07285586; -0.1502647; -1.1535848; -0.21834376; 0.22449112;0
1169;89666679; 0.91113317; -0.3696016; -0.09773957; -0.15387636; -1.2631824; -0.4379676; -0.31805325;0
1170;89683346; 0.91021436; -0.36283275; -0.1257267; -0.1550972; -0.07077342; -0.93407875; -0.761528;0
1171;89700013; 0.9075932; -0.3577783; -0.15518583; -0.15552168; 0.83026236; -0.41318494; -0.94683933;0
1172;89716680; 0.90363085; -0.3535055; -0.1840374; -0.15689297; 1.654889; 0.022567209; -0.8867893;0
1173;89733347; 0.8986194; -0.35071477; -0.2094542; -0.16003513; 1.9978198; -0.15694745; 0.05646801;0
1174;89750014; 0.89296967; -0.34822103; -0.23317477; -0.16424605; 0.7971163; 0.091486536; 0.9923868;0
1175;89766681; 0.8868277; -0.3446981; -0.25763416; -0.16835883; -0.19692408; -0.108110756; 1.0701008;0
