DeviceTag:,Xsens DOT 2,,,,,,,,,,,,,,,,,
FirmwareVersion:,1.3.0,,,,,,,,,,,,,,,,,
AppVersion:,2020.1.1,,,,,,,,,,,,,,,,,
Measurement Mode:,Sensor fusion Mode - Extended (Quaternion),,,,,,,,,,,,,,,,,
StartTime:,2020-08-03 15:46:12.324 +0200,,,,,,,,,,,,,,,,,
© Xsens Technologies B. V. 2005-2020,,,,,,,,,,,,,,,,,,,
PacketCounter,SampleTimeFine,Quat_W,Quat_X,Quat_Y,Quat_Z,FreeAcc_X,FreeAcc_Y,FreeAcc_Z,Status
1, 346922842, 0.07607222, -0.4548552, 0.17681234, -0.86951655, 0.026324183, -0.044162277, 0.10431099, 0
2, 346939509, 0.07574735, -0.45455578, 0.17633796, -0.8697978, 0.023583997, -0.017476758, 0.1393137, 0
3, 346956176, 0.07559041, -0.45433754, 0.17597649, -0.86999875, 0.04365901, 0.007567646, 0.11932945, 0
4, 346972843, 0.07560295, -0.4540977, 0.17582189, -0.8701541, 0.02540222, 0.008416828, 0.08853245, 0
5, 346989510, 0.075654134, -0.45394045, 0.17577581, -0.87024087, 0.03209445, -3.3219614E-5, 0.112771034, 0
6, 347006177, 0.07567648, -0.45378655, 0.17574586, -0.87032527, 0.055812247, 0.012379908, 0.145195, 0
7, 347022844, 0.075730205, -0.4536476, 0.17573239, -0.8703958, 0.0480459, -0.0044531603, 0.10093784, 0
8, 347039511, 0.07570948, -0.45350578, 0.17588735, -0.8704402, 0.018667173, 0.013142031, 0.12427044, 0
9, 347056178, 0.07571461, -0.4533973, 0.17598534, -0.87047637, 0.045016654, 0.044864275, 0.1334238, 0
10, 347072845, 0.07580415, -0.45331997, 0.1760225, -0.87050134, 0.035963893, 0.038855072, 0.15288353, 0
11, 347089512, 0.07588476, -0.45326203, 0.17602663, -0.8705237, 0.039760537, 0.007920014, 0.14644814, 0
12, 347106179, 0.07593902, -0.45320654, 0.17604615, -0.870544, 0.027886258, -0.01321702, 0.13501644, 0
13, 347122846, 0.07597695, -0.45313865, 0.17607357, -0.8705704, -0.001971, -0.038804587, 0.11205673, 0
14, 347139513, 0.07599411, -0.45306253, 0.17619276, -0.8705844, -0.03167116, -0.006383558, 0.13126469, 0
15, 347156180, 0.0759059, -0.4529718, 0.17630889, -0.8706158, -0.008022816, -0.02182671, 0.13059711, 0
16, 347172847, 0.07602118, -0.45292497, 0.17632744, -0.8706264, -0.009927873, -0.00595039, 0.12917519, 0
17, 347189514, 0.07610546, -0.45288956, 0.1763382, -0.8706352, 0.0029244993, 0.013175391, 0.09852886, 0
18, 347206181, 0.07592578, -0.45284665, 0.17647643, -0.87064517, -0.007796677, 0.010612535, 0.10137844, 0
19, 347222848, 0.07612136, -0.45290357, 0.176395, -0.8706151, -0.0050259405, -0.020209007, 0.105597496, 0
20, 347239515, 0.07641045, -0.45295885, 0.17616883, -0.8706068, 0.004905998, -0.024791889, 0.1384821, 0
21, 347256182, 0.07672216, -0.45303655, 0.17594115, -0.8705849, 0.011350477, -0.066609345, 0.112766266, 0
22, 347272849, 0.07702351, -0.45315892, 0.17577045, -0.87052906, -0.024068896, -0.059959725, 0.1090889, 0
23, 347289516, 0.07663384, -0.45311445, 0.17599627, -0.8705411, -0.048157416, -0.072012074, 0.13106155, 0
24, 347306183, 0.07672966, -0.4531485, 0.17602558, -0.8705089, -0.025763206, -0.025407473, 0.15357399, 0
25, 347322850, 0.07663815, -0.45311365, 0.17615862, -0.87050825, -0.019145435, -0.051123, 0.12950325, 0
26, 347339517, 0.076947264, -0.45315564, 0.17616855, -0.87045705, 0.0010358568, -0.047487956, 0.11218071, 0
27, 347356184, 0.07643165, -0.4530122, 0.17657495, -0.87049484, 0.06486923, -0.050960533, 0.13318253, 0
28, 347372851, 0.076835364, -0.4530304, 0.17647254, -0.87047064, 0.04792921, -0.053245395, 0.13298607, 0
29, 347389518, 0.076830424, -0.45293602, 0.17647971, -0.87051874, 0.04139622, -0.036032245, 0.11638546, 0
30, 347406185, 0.07715, -0.45289418, 0.1763073, -0.8705472, 0.02102177, -0.09881597, 0.111198425, 0
31, 347422852, 0.07662901, -0.4526996, 0.17665993, -0.8706228, 0.0043065078, -0.117341064, 0.08128166, 0
32, 347439519, 0.07642319, -0.45258164, 0.1768834, -0.87065685, 0.019431887, -0.081387356, 0.11892891, 0
33, 347456186, 0.07607849, -0.45242813, 0.17714481, -0.8707138, 0.028571857, -0.072841614, 0.15104198, 0
34, 347472853, 0.07608487, -0.4523716, 0.17717247, -0.8707369, 0.01659963, -0.071410604, 0.114136696, 0
35, 347489520, 0.075662285, -0.45221835, 0.17735447, -0.87081623, 0.035231564, -0.05610368, 0.09899998, 0
36, 347506187, 0.074938476, -0.45200685, 0.17762074, -0.8709344, 0.059728656, -0.12685797, 0.056370735, 0
37, 347522854, 0.07421397, -0.45183322, 0.17791916, -0.8710257, 0.04323382, -0.14466825, 0.05825138, 0
38, 347539521, 0.07327172, -0.45164362, 0.17840777, -0.87110376, 0.036172442, -0.08727125, 0.08736992, 0
39, 347556188, 0.07230694, -0.45147166, 0.17886731, -0.87117934, 0.051964123, -0.0070698825, 0.16952229, 0
40, 347572855, 0.071416885, -0.45135197, 0.17924024, -0.8712382, 0.04579807, -0.010644274, 0.17086983, 0
41, 347589522, 0.07006347, -0.4511466, 0.17993161, -0.8713118, 0.097848006, -0.07880198, 0.13942719, 0
42, 347606189, 0.068632096, -0.4509301, 0.18086487, -0.8713446, 0.12275696, -0.06691539, 0.12521553, 0
43, 347622856, 0.0669983, -0.45064083, 0.18192638, -0.87140036, 0.10153081, -0.01740241, 0.15894508, 0
44, 347639523, 0.065463595, -0.45025817, 0.18266541, -0.87156034, 0.13557911, 0.0333818, 0.23058224, 0
45, 347656190, 0.06411085, -0.44973686, 0.18305475, -0.8718484, 0.14915483, -6.249702E-4, 0.15136337, 0
46, 347672857, 0.062404566, -0.44907308, 0.18371344, -0.8721756, 0.20198177, -0.0613975, 0.048239708, 0
47, 347689524, 0.06065217, -0.448422, 0.18448497, -0.8724713, 0.2772355, -0.044755593, 0.043657303, 0
48, 347706191, 0.058698077, -0.44765425, 0.18547691, -0.8727889, 0.3106064, 0.03284868, 0.124653816, 0
49, 347722858, 0.056933075, -0.4468977, 0.18636315, -0.87310475, 0.36727816, 0.15806776, 0.060546875, 0
50, 347739525, 0.05507624, -0.4461446, 0.18725406, -0.8734182, 0.2986466, 0.058825787, -0.032381058, 0
51, 347756192, 0.053230155, -0.4453148, 0.18808019, -0.8737787, 0.2693576, 0.07358936, 0.11288452, 0
52, 347772859, 0.050530605, -0.4442959, 0.18939984, -0.87417245, 0.2436223, 0.0746066, 0.08063221, 0
53, 347789526, 0.049054872, -0.4435317, 0.19019054, -0.8744728, 0.1670783, -0.012635117, 0.049567223, 0
54, 347806193, 0.04719796, -0.4426924, 0.19157809, -0.8746973, 0.10389873, 0.042363416, 0.042366028, 0
55, 347822860, 0.045115776, -0.4417103, 0.19306359, -0.8749771, 0.1141174, 0.04398661, 0.08040333, 0
56, 347839527, 0.043840375, -0.44091433, 0.194063, -0.8752222, 0.12460671, 0.01725921, 0.058259964, 0
57, 347856194, 0.042516112, -0.44021288, 0.19510522, -0.87540895, 0.05717868, -0.017940281, 1.1444092E-5, 0
58, 347872861, 0.04036231, -0.4393117, 0.1965763, -0.8756345, 0.033959456, -0.10169063, 0.07607174, 0
59, 347889528, 0.039573785, -0.43873292, 0.19748347, -0.87575656, -0.016828755, -0.10332296, 0.11336613, 0
60, 347906195, 0.038711395, -0.4380784, 0.19854356, -0.87588304, -0.04502501, -0.14252317, 0.08810139, 0
61, 347922862, 0.03824729, -0.43751547, 0.19954495, -0.87595737, -0.076424375, -0.09799488, 0.015899658, 0
62, 347939529, 0.037746433, -0.43702298, 0.20054504, -0.8759964, -0.030598588, -0.14913112, 0.023560524, 0
63, 347956196, 0.037179805, -0.43661007, 0.20159498, -0.8759855, -0.06291503, -0.20159158, -0.007013321, 0
64, 347972863, 0.036643602, -0.43638408, 0.20267595, -0.87587124, -0.061654218, -0.17276594, -0.033093452, 0
65, 347989530, 0.036281273, -0.43629044, 0.2034862, -0.87574506, -0.08354451, -0.12168207, 0.091303825, 0
66, 348006197, 0.03593529, -0.43622786, 0.20399417, -0.8756723, -0.035176747, -0.08845655, 0.16390896, 0
67, 348022864, 0.035892133, -0.43629357, 0.204086, -0.87561995, -0.017572558, -0.040866844, 0.10374832, 0
68, 348039531, 0.036511827, -0.43665877, 0.20364748, -0.8755144, -0.06828639, -0.0852512, 0.100328445, 0
69, 348056198, 0.036788136, -0.4370617, 0.20323111, -0.87539864, -0.10110037, -0.032773025, 0.11436558, 0
70, 348072865, 0.037082855, -0.43748775, 0.20274365, -0.8752865, -0.14441669, -0.06954116, 0.07639599, 0
71, 348089532, 0.037323628, -0.4378298, 0.2022244, -0.8752253, -0.10978217, -0.10644129, 0.0106573105, 0
72, 348106199, 0.037169367, -0.43813822, 0.20213275, -0.87509865, -0.07406011, -0.16666785, -0.010112762, 0
73, 348122866, 0.037222557, -0.43849432, 0.20220225, -0.874902, -0.11591094, -0.18286218, 0.02290535, 0
74, 348139533, 0.036908638, -0.43872803, 0.20268352, -0.8746867, -0.086248115, -0.14639832, 0.07027912, 0
75, 348156200, 0.036736846, -0.4389954, 0.20312409, -0.8744574, -0.047659922, -0.0815456, 0.083091736, 0
76, 348172867, 0.03540658, -0.43902087, 0.20414385, -0.87426203, -0.018622827, -0.13076732, 0.05980301, 0
77, 348189534, 0.035061516, -0.43933213, 0.20463079, -0.8740058, -0.011744645, -0.18972975, 0.0927639, 0
78, 348206201, 0.03459584, -0.43974388, 0.20524868, -0.8736723, -0.025295336, -0.18257818, 0.09766865, 0
79, 348222868, 0.03364255, -0.44010606, 0.20601135, -0.8733475, -0.028257841, -0.1558171, 0.1281395, 0
80, 348239535, 0.0329966, -0.44057322, 0.20654397, -0.8730108, 0.034860957, -0.13629748, 0.15601254, 0
81, 348256202, 0.031305067, -0.44080004, 0.20752403, -0.8727261, 0.050615236, -0.17088158, 0.14057732, 0
82, 348272869, 0.030569158, -0.44114974, 0.20803723, -0.8724532, 0.05050121, -0.09062774, 0.23443413, 0
83, 348289536, 0.03081415, -0.44149894, 0.20798232, -0.8722812, 0.109550394, 0.052123096, 0.39894485, 0
84, 348306203, 0.030351691, -0.44143355, 0.20813864, -0.8722931, 0.22930792, 0.002284456, 0.32111263, 0
85, 348322870, 0.030402701, -0.44143412, 0.20820495, -0.8722753, 0.2107871, -0.15606306, 0.19569588, 0
86, 348339537, 0.028795902, -0.44111577, 0.20942453, -0.8721988, 0.18453504, -0.14428042, 0.1361742, 0
87, 348356204, 0.02635556, -0.44053456, 0.21112968, -0.8721588, 0.16521485, 0.016018266, 0.2545128, 0
88, 348372871, 0.02590591, -0.44042453, 0.21166879, -0.87209713, 0.18655397, 0.014682517, 0.21904945, 0
89, 348389538, 0.02482179, -0.4401748, 0.21239746, -0.8720776, 0.24318478, -0.09933797, 0.18500996, 0
90, 348406205, 0.02476102, -0.44023007, 0.21280648, -0.8719517, 0.14626162, -0.02135438, 0.15707111, 0
91, 348422872, 0.025143303, -0.44030422, 0.2128749, -0.8718866, 0.122304305, 0.0033644848, 0.16766357, 0
92, 348439539, 0.024832603, -0.44012138, 0.21317036, -0.87191564, 0.17702952, -0.025479415, 0.17646027, 0
93, 348456206, 0.024504289, -0.43997377, 0.21350096, -0.87191856, 0.20205693, -0.08990151, 0.12004185, 0
94, 348472873, 0.02429975, -0.43992278, 0.21382691, -0.87187004, 0.1859229, -0.08250563, 0.13337898, 0
95, 348489540, 0.024198469, -0.43993866, 0.21405195, -0.87180966, 0.1361861, -0.0022417232, 0.17038345, 0
96, 348506207, 0.024253875, -0.4400113, 0.21403128, -0.8717766, 0.044445887, -0.005207314, 0.21673489, 0
97, 348522874, 0.024229806, -0.44006258, 0.21397205, -0.871766, -0.038072675, -0.026652051, 0.20928478, 0
98, 348539541, 0.024254303, -0.44015008, 0.21398996, -0.87171656, -0.10966335, -0.07304412, 0.15089893, 0
99, 348556208, 0.024867298, -0.4404162, 0.21387677, -0.87159276, -0.14456166, -0.06539359, 0.1202631, 0
100, 348572875, 0.024954781, -0.44055414, 0.21396819, -0.871498, -0.0671286, -0.077907324, 0.13599873, 0
101, 348589542, 0.025143042, -0.44073707, 0.213958, -0.8714026, -0.020113071, -0.12031031, 0.1301632, 0
102, 348606209, 0.025081512, -0.44084528, 0.21407741, -0.87132025, -0.004363937, -0.15513271, 0.07626438, 0
103, 348622876, 0.02502427, -0.44096074, 0.21431187, -0.871206, -0.055764485, -0.16781797, 0.043748856, 0
104, 348639543, 0.025084637, -0.44110137, 0.21451575, -0.8710827, -0.1116311, -0.10911529, 0.083293915, 0
105, 348656210, 0.024951879, -0.4412043, 0.2147374, -0.8709799, -0.1314683, -0.13106121, 0.06315613, 0
106, 348672877, 0.024924418, -0.4413324, 0.2148542, -0.87088686, -0.12754714, -0.1504988, 0.07088947, 0
107, 348689544, 0.024841832, -0.44150603, 0.21503429, -0.87075686, -0.09615702, -0.12705874, 0.089447975, 0
108, 348706211, 0.024603497, -0.4416248, 0.21520391, -0.8706615, -0.075422086, -0.11953836, 0.09033489, 0
109, 348722878, 0.024585731, -0.4416855, 0.215014, -0.8706781, 0.029945815, 0.03653961, 0.26540756, 0
110, 348739545, 0.024727453, -0.44165638, 0.21418624, -0.87089306, 0.07054805, 0.051716894, 0.32854462, 0
111, 348756212, 0.025383256, -0.44155228, 0.21289474, -0.8712434, 0.04080781, -0.09227026, 0.35098076, 0
112, 348772879, 0.025774755, -0.44131818, 0.21200515, -0.8715675, 0.09946586, -0.19296092, 0.33283043, 0
113, 348789546, 0.025760833, -0.4409628, 0.21168444, -0.87182564, 0.08852795, -0.18832423, 0.23477554, 0
114, 348806213, 0.025731698, -0.44043544, 0.21170889, -0.8720871, 0.045077443, -0.16909806, 0.31850433, 0
115, 348822880, 0.02588957, -0.43991286, 0.2119589, -0.8722854, -0.002378686, -0.21409695, 0.2247982, 0
116, 348839547, 0.026010312, -0.4394365, 0.21246366, -0.87239903, -0.07888712, -0.19420359, 0.12729454, 0
117, 348856214, 0.026603447, -0.4390002, 0.21253857, -0.8725826, 0.06894164, -0.016795447, 0.16983795, 0
118, 348872881, 0.027464503, -0.4383853, 0.21177076, -0.8730515, 0.18995976, 0.107604116, 0.3180933, 0
119, 348889548, 0.028422967, -0.4375371, 0.21014743, -0.87383825, 0.11161523, 0.060961384, 0.3264923, 0
120, 348906215, 0.029789161, -0.43677545, 0.20826343, -0.8746246, 0.0980241, -0.242814, 0.10468197, 0
121, 348922882, 0.030145034, -0.43613538, 0.20760508, -0.8750882, 0.0941821, -0.24587224, 0.008646965, 0
122, 348939549, 0.03106696, -0.43574145, 0.20698102, -0.8754, 0.18870406, 0.053209472, 0.30426884, 0
123, 348956216, 0.032264005, -0.43514016, 0.20519818, -0.87607515, 0.21765725, 0.45270723, 0.57037735, 0
124, 348972883, 0.03356996, -0.4342689, 0.20171511, -0.8772664, 0.2938153, 0.32485434, 0.40112686, 0
125, 348989550, 0.0353894, -0.4335791, 0.19751194, -0.87849176, 0.26836294, -0.08024291, 0.054675102, 0
126, 349006217, 0.03697885, -0.43320674, 0.1945498, -0.8792706, 0.092303805, -0.5108318, -0.24487019, 0
127, 349022884, 0.03724564, -0.43282983, 0.19405268, -0.8795547, -0.009731948, -0.5471932, -0.15031338, 0
128, 349039551, 0.038185623, -0.43263188, 0.1946216, -0.87948614, -0.13719825, -0.4117756, 0.030626297, 0
129, 349056218, 0.03824123, -0.4321059, 0.19631469, -0.87936586, -0.37055895, -0.17734836, 0.08663082, 0
130, 349072885, 0.03802977, -0.43179458, 0.19790435, -0.8791718, -0.79712665, -0.058965694, -0.1462822, 0
131, 349089552, 0.03827558, -0.43166283, 0.19889207, -0.87900287, -0.9489181, 0.07536604, -0.06056595, 0
132, 349106219, 0.039174244, -0.43166882, 0.19946808, -0.87883, -1.0904381, 0.31830227, 0.038108826, 0
133, 349122886, 0.040819716, -0.43160412, 0.19947235, -0.87878567, -1.0257763, 0.12452407, 0.19951153, 0
134, 349139553, 0.04358822, -0.43182096, 0.1996523, -0.8785054, -0.7939443, 0.23866227, 0.16243744, 0
135, 349156220, 0.046964448, -0.43218517, 0.20002976, -0.87806624, -0.6635088, 0.3442761, 0.124326706, 0
136, 349172887, 0.05159765, -0.43297607, 0.20011835, -0.87739617, -0.4468637, 0.5434033, 0.23250961, 0
137, 349189554, 0.056556746, -0.43426576, 0.19967155, -0.8765544, -0.2586969, 0.6434456, 0.14000893, 0
138, 349206221, 0.063794434, -0.4367472, 0.19775763, -0.8752576, -0.15738098, 0.6541784, -0.06474781, 0
139, 349222888, 0.07164338, -0.4401332, 0.19526847, -0.8735113, -0.111768395, 0.7905955, -0.06010914, 0
140, 349239555, 0.08010884, -0.44429797, 0.1919606, -0.8713982, -0.06060445, 0.90590763, -0.07103729, 0
141, 349256222, 0.08961632, -0.4492914, 0.18765506, -0.86884624, -0.19454564, 0.8405549, -0.13035202, 0
142, 349272889, 0.09994326, -0.4551506, 0.18293142, -0.8656716, -0.22284919, 0.7934332, -0.19454288, 0
143, 349289556, 0.11053967, -0.46158952, 0.17796123, -0.8620023, -0.2594081, 0.67362165, -0.1790533, 0
144, 349306223, 0.12122065, -0.4683397, 0.17297204, -0.85793144, -0.3281406, 0.62024504, 0.0027475357, 0
145, 349322890, 0.13149327, -0.47548366, 0.16844712, -0.8533769, -0.3701324, 0.6081675, -0.02382183, 0
146, 349339557, 0.1408977, -0.4831351, 0.16454415, -0.84832525, -0.17583345, 0.81827486, -0.41773415, 0
147, 349356224, 0.15125546, -0.4915449, 0.15984866, -0.84258884, -0.2181998, 1.2379575, -0.5826521, 0
148, 349372891, 0.16313596, -0.50049925, 0.15368901, -0.8362229, -0.3959636, 1.3820983, -0.41134357, 0
149, 349389558, 0.17586383, -0.5096438, 0.14647114, -0.8293873, -0.4657105, 1.1833364, -0.30534267, 0
150, 349406225, 0.18861493, -0.5188609, 0.13879582, -0.82215893, -0.45222002, 1.0010241, -0.32615852, 0
151, 349422892, 0.20077333, -0.528123, 0.13161126, -0.8145284, -0.40143964, 0.9535568, -0.3325224, 0
152, 349439559, 0.2121658, -0.5376428, 0.12519473, -0.8063833, -0.35425106, 0.9819492, -0.42344666, 0
153, 349456226, 0.22281562, -0.54755044, 0.119084366, -0.7977233, -0.46400565, 1.123125, -0.44799423, 0
154, 349472893, 0.23280711, -0.55785096, 0.1130137, -0.7885638, -0.78774786, 1.0793606, -0.59082603, 0
155, 349489560, 0.24280979, -0.56816465, 0.1058124, -0.7791265, -0.9022818, 0.87932205, -0.44528866, 0
156, 349506227, 0.25269893, -0.57821244, 0.09724164, -0.76964915, -1.0177851, 0.61617124, -0.24166393, 0
157, 349522894, 0.26230988, -0.58771867, 0.08741974, -0.7603555, -1.0457996, 0.29203567, -0.06962395, 0
158, 349539561, 0.2713565, -0.5965636, 0.076930135, -0.7513728, -1.1256304, 0.011455821, 0.15376282, 0
159, 349556228, 0.2798374, -0.6046992, 0.066363335, -0.7427165, -1.0378001, -0.13699444, 0.3417759, 0
160, 349572895, 0.28770098, -0.61207026, 0.056214165, -0.73446584, -0.86523056, -0.409081, 0.4861946, 0
161, 349589562, 0.29437736, -0.6187938, 0.04674254, -0.72681034, -0.70969677, -0.74136543, 0.696455, 0
162, 349606229, 0.299482, -0.62500536, 0.03819583, -0.7198764, -0.5397598, -1.2029067, 0.91459465, 0
163, 349622896, 0.30334872, -0.63057137, 0.031227127, -0.7137128, -0.35682136, -1.2985156, 1.1927376, 0
164, 349639563, 0.30687782, -0.6352079, 0.025612928, -0.7082957, -0.32580683, -1.2929646, 1.5161734, 0
165, 349656230, 0.31065133, -0.6389078, 0.021272136, -0.70344996, -0.16504669, -1.1922563, 1.5566912, 0
166, 349672897, 0.31501254, -0.6418567, 0.018235771, -0.6988966, 0.07225318, -1.202685, 1.607851, 0
167, 349689564, 0.31951952, -0.64430887, 0.016971372, -0.69461316, 0.4260202, -1.5332108, 1.6719122, 0
168, 349706231, 0.32400402, -0.64680004, 0.018141394, -0.6901767, 0.7234663, -1.4640009, 1.4779329, 0
169, 349722898, 0.32871205, -0.6493345, 0.021629296, -0.6854541, 0.73135585, -1.1642642, 1.4205751, 0
170, 349739565, 0.33376098, -0.6521174, 0.02699801, -0.6801615, 0.6629003, -0.44248524, 1.5169811, 0
171, 349756232, 0.3393138, -0.6551284, 0.033617847, -0.6741992, 0.31389445, -0.0316025, 1.5836363, 0
172, 349772899, 0.34524536, -0.6583697, 0.041841112, -0.66753745, 0.18495479, 0.359996, 1.6980963, 0
173, 349789566, 0.35222206, -0.66148436, 0.05174821, -0.6600773, 0.14520559, 0.82157147, 1.8857965, 0
174, 349806233, 0.3610625, -0.6641966, 0.06267513, -0.65157545, -0.001290955, 1.4633912, 1.9843702, 0
175, 349822900, 0.3716405, -0.66590387, 0.07443746, -0.6425857, -0.2652866, 1.8265803, 2.2198162, 0
176, 349839567, 0.3841718, -0.6658136, 0.0855816, -0.63386285, -0.34900466, 1.921936, 2.1064234, 0
177, 349856234, 0.39874828, -0.66385496, 0.095745824, -0.6254048, -0.57778364, 2.2000394, 2.053462, 0
178, 349872901, 0.41541225, -0.66020584, 0.10471009, -0.6169269, -0.73088986, 2.0719354, 1.79245, 0
179, 349889568, 0.4335432, -0.65539587, 0.11300199, -0.60805345, -0.637716, 1.7740389, 1.2330236, 0
180, 349906235, 0.45224264, -0.6500401, 0.12117286, -0.5985345, -0.91667056, 1.4014854, 0.84391785, 0
181, 349922902, 0.47083083, -0.64429814, 0.12918895, -0.58865124, -1.1623921, 1.1425569, 0.5885706, 0
182, 349939569, 0.48924682, -0.638485, 0.1369065, -0.5781288, -1.3216207, 0.9835019, 0.58862877, 0
183, 349956236, 0.5082029, -0.632227, 0.14387804, -0.5668507, -1.8516477, 0.8008476, 0.8162298, 0
184, 349972903, 0.5279061, -0.624719, 0.14975825, -0.5555319, -2.347519, 0.43025976, 0.8074932, 0
185, 349989570, 0.5480511, -0.616337, 0.1543112, -0.5440207, -2.4572134, 0.20046742, 0.49762058, 0
186, 350006237, 0.5687058, -0.6072652, 0.15720029, -0.53206456, -2.391949, -0.06944592, 0.0963974, 0
187, 350022904, 0.58899736, -0.597975, 0.15875039, -0.51991165, -2.3339968, -0.3211367, -0.22816753, 0
188, 350039571, 0.607985, -0.5891592, 0.15950194, -0.5077467, -2.225165, -0.7158724, -0.46116447, 0
189, 350056238, 0.6260207, -0.5809212, 0.15948391, -0.49517223, -1.8770795, -1.1735356, -0.9832201, 0
190, 350072905, 0.6436518, -0.57340366, 0.15861282, -0.48141927, -1.6166972, -1.1861846, -1.6032228, 0
191, 350089572, 0.6606951, -0.56687707, 0.156602, -0.46648714, -1.5929415, -0.98835844, -1.9603548, 0
192, 350106239, 0.67693126, -0.56110924, 0.15303852, -0.45111132, -1.4728879, -0.80076134, -2.0548544, 0
193, 350122906, 0.69252425, -0.55551314, 0.14749297, -0.43596244, -1.3818604, -0.62363535, -2.1101174, 0
194, 350139573, 0.70739836, -0.5500071, 0.14019284, -0.42122182, -1.1114235, -0.5760566, -2.3612595, 0
195, 350156240, 0.7214671, -0.5447065, 0.13172205, -0.40673235, -0.87608486, -0.4802453, -2.5212026, 0
196, 350172907, 0.73448175, -0.5401247, 0.12252742, -0.39216173, -0.84355253, -0.480651, -2.5330124, 0
197, 350189574, 0.7461741, -0.536773, 0.11276998, -0.37733778, -0.8746519, -0.62303567, -2.244244, 0
198, 350206241, 0.7565902, -0.53433454, 0.10264502, -0.36266205, -0.81293064, -1.0106597, -1.4883995, 0
199, 350222908, 0.7658706, -0.53251535, 0.09252168, -0.34829745, -0.620675, -1.1860605, -0.82862186, 0
200, 350239575, 0.7739067, -0.5314648, 0.082998306, -0.3342554, -0.32722363, -1.2310466, -0.5798578, 0
201, 350256242, 0.78051186, -0.5316108, 0.07454925, -0.32036823, 0.12339301, -1.0877218, -0.42716694, 0
202, 350272909, 0.78539443, -0.5336199, 0.06752653, -0.3063451, 0.41019538, -0.7692581, -0.5400467, 0
203, 350289576, 0.7885594, -0.5377839, 0.06149427, -0.2918613, 0.6570752, -0.5269385, -0.33220387, 0
204, 350306243, 0.79065037, -0.54315805, 0.05579555, -0.27702034, 0.48984754, -0.4865819, 0.12897587, 0
205, 350322910, 0.7925047, -0.5483479, 0.049582303, -0.26228687, 0.28965285, -0.5705065, 0.5369072, 0
206, 350339577, 0.7946648, -0.55231017, 0.042584646, -0.2482936, 0.20622535, -0.7990427, 1.0195322, 0
207, 350356244, 0.7981311, -0.5535805, 0.03471671, -0.23522803, 0.34155372, -0.693626, 0.9591665, 0
208, 350372911, 0.8027427, -0.5524883, 0.026169691, -0.22288491, 0.39317796, -0.39009672, 0.6065712, 0
209, 350389578, 0.8076859, -0.5503055, 0.017285654, -0.21097517, 0.48367107, 0.0023254289, 0.30439472, 0
210, 350406245, 0.8124893, -0.5479181, 0.008000827, -0.19896011, 0.47862974, 0.20091446, -0.13074589, 0
211, 350422912, 0.8166336, -0.54612887, -0.0016778498, -0.18668644, 0.4893763, 0.23352768, -0.34400177, 0
212, 350439579, 0.82007295, -0.5449684, -0.011665178, -0.17422837, 0.4944073, 0.111025594, -0.23690605, 0
213, 350456246, 0.8230092, -0.5440759, -0.022022726, -0.16172269, 0.3850106, -0.29172242, -0.024518967, 0
214, 350472913, 0.82567775, -0.5430223, -0.032464694, -0.14943552, 0.4189705, -0.630391, 0.38391972, 0
215, 350489580, 0.8284632, -0.541226, -0.042757105, -0.1374662, 0.43389386, -0.7052625, 0.5014744, 0
216, 350506247, 0.8313531, -0.5387546, -0.052739263, -0.12576172, 0.45337602, -0.6660069, 0.21173763, 0
217, 350522914, 0.8339598, -0.5362506, -0.062358033, -0.114279106, 0.44296548, -0.59725076, -0.1430502, 0
218, 350539581, 0.83607095, -0.53409576, -0.071753554, -0.10286142, 0.40825245, -0.57584536, -0.31806087, 0
219, 350556248, 0.83779657, -0.53215224, -0.080811195, -0.09155513, 0.34428203, -0.5817904, -0.28640842, 0
220, 350572915, 0.8393755, -0.53003687, -0.089584276, -0.08053839, 0.24110751, -0.61847645, -0.29647064, 0
221, 350589582, 0.8406372, -0.52806365, -0.09793503, -0.069917865, 0.23107949, -0.5024947, -0.32699394, 0
222, 350606249, 0.84147406, -0.52649426, -0.105665915, -0.059681635, 0.22228073, -0.39029565, -0.40552235, 0
223, 350622916, 0.84187657, -0.52536744, -0.11297136, -0.04972249, 0.086951904, -0.3133616, -0.6010666, 0
224, 350639583, 0.84189147, -0.5246086, -0.120027944, -0.039997652, -0.10150657, -0.3884557, -0.69853497, 0
225, 350656250, 0.8415953, -0.5241218, -0.12683438, -0.03047906, -0.21164973, -0.44227716, -0.55666065, 0
226, 350672917, 0.8412962, -0.52344364, -0.1333426, -0.021189336, -0.2871947, -0.3917145, -0.48221684, 0
227, 350689584, 0.8410345, -0.5225194, -0.13960458, -0.012126663, -0.32860416, -0.31151178, -0.65100574, 0
228, 350706251, 0.84057015, -0.52177566, -0.14554295, -0.0033293376, -0.34538808, -0.20212187, -0.6662884, 0
229, 350722918, 0.8399798, -0.5211104, -0.15117148, 0.0052016536, -0.33200905, -0.21052462, -0.5879383, 0
230, 350739585, 0.8394265, -0.52031106, -0.15640058, 0.013433723, -0.34557965, -0.18033785, -0.37342548, 0
231, 350756252, 0.83895934, -0.5193336, -0.16118573, 0.021473695, -0.38424742, -0.16948943, -0.3831997, 0
232, 350772919, 0.8384095, -0.518446, -0.16557954, 0.0294712, -0.3888265, -0.008889557, -0.5096588, 0
233, 350789586, 0.8376017, -0.5179535, -0.16954952, 0.03744485, -0.409531, 0.11082666, -0.56245136, 0
234, 350806253, 0.8365516, -0.51786, -0.17309599, 0.045192894, -0.3932569, 0.17859401, -0.4750471, 0
235, 350822920, 0.8355285, -0.5177695, -0.17617027, 0.052659046, -0.3690171, 0.23199482, -0.3713169, 0
236, 350839587, 0.8344763, -0.5177952, -0.17877953, 0.05981141, -0.291289, 0.22788756, -0.30877972, 0
237, 350856254, 0.8334601, -0.5178316, -0.18092825, 0.066794656, -0.28159985, 0.26225847, -0.25100422, 0
238, 350872921, 0.83237565, -0.5180855, -0.18258601, 0.073500745, -0.16260053, 0.21978834, -0.10368633, 0
239, 350889588, 0.83123535, -0.518537, -0.18385176, 0.07979613, -0.006514285, 0.1452566, 0.21457767, 0
240, 350906255, 0.83007383, -0.51910985, -0.18481134, 0.085725114, 0.09513941, 0.18677011, 0.50246525, 0
241, 350922922, 0.8287212, -0.5200238, -0.18568204, 0.09121688, 0.13156822, 0.03859264, 0.95606136, 0
242, 350939589, 0.82719755, -0.52113664, -0.18695861, 0.09596478, 0.21761993, -0.27672514, 1.617733, 0
243, 350956256, 0.82551205, -0.5224177, -0.18890586, 0.09962903, 0.47162652, -0.6136991, 2.3710403, 0
244, 350972923, 0.82386607, -0.52366227, -0.19124709, 0.102219805, 0.89307475, -0.57252127, 2.7654657, 0
245, 350989590, 0.8220147, -0.5253058, -0.19354989, 0.10433675, 1.2673758, -0.3182771, 2.3041058, 0
246, 351006257, 0.8197298, -0.5275665, -0.19572443, 0.106819846, 1.3351072, -0.14248548, 1.760436, 0
247, 351022924, 0.8171489, -0.5301625, -0.19786273, 0.10976167, 1.3588997, -0.10718206, 1.5127668, 0
248, 351039591, 0.81489956, -0.5323204, -0.19959548, 0.112860724, 1.1823173, 0.08613161, 1.4020414, 0
249, 351056258, 0.8135297, -0.5334086, -0.20057349, 0.11583101, 0.80222243, 0.32821, 1.1334505, 0
250, 351072925, 0.8129748, -0.5332211, -0.20159924, 0.11877177, 0.28166655, 0.14004517, 1.0373144, 0
251, 351089592, 0.812704, -0.5322208, -0.20351171, 0.12181188, 0.20579654, 7.107712E-5, 0.7216034, 0
252, 351106259, 0.8126262, -0.53079724, -0.2056699, 0.12487893, 0.2712247, 0.07802927, 0.78682137, 0
253, 351122926, 0.81263983, -0.5291497, -0.20800368, 0.12788202, 0.38141805, 0.065831274, 0.679719, 0
254, 351139593, 0.81256604, -0.527649, -0.21034688, 0.13068761, 0.53871775, -0.11186242, 0.722085, 0
255, 351156260, 0.8126534, -0.5260078, -0.2124882, 0.133271, 0.66367257, -0.44282743, 1.1862078, 0
256, 351172927, 0.8133677, -0.5236509, -0.21407142, 0.1356398, 0.8819569, -0.6108716, 1.4233246, 0
257, 351189594, 0.81469744, -0.5207063, -0.21460155, 0.1381346, 1.1125375, -0.5469416, 0.946414, 0
258, 351206261, 0.8162125, -0.5176713, -0.21432815, 0.1409936, 0.98302495, -0.3563324, 0.1352396, 0
259, 351222928, 0.81739223, -0.51528203, -0.21367638, 0.14387074, 0.7400814, -0.07067927, -0.30998802, 0
260, 351239595, 0.8185971, -0.5131594, -0.212408, 0.14646292, 0.6139751, 0.05999758, -0.31550694, 0
261, 351256262, 0.82028556, -0.5106269, -0.21051356, 0.14858553, 0.43789184, 0.052644007, -0.43283653, 0
262, 351272929, 0.82240975, -0.50752467, -0.20850503, 0.15029524, 0.12767641, 0.07187953, -0.7362051, 0
263, 351289596, 0.824598, -0.5042881, -0.20666145, 0.15173872, 0.06761915, -0.04162057, -1.1966133, 0
264, 351306263, 0.82640195, -0.50169516, -0.20501716, 0.152747, 0.19717978, -0.085350655, -1.2230635, 0
265, 351322930, 0.8281038, -0.49942124, -0.20337376, 0.15317826, 0.32805723, -0.18996097, -1.2658958, 0
266, 351339597, 0.8298952, -0.49719104, -0.20161237, 0.15306675, 0.42276627, -0.14287731, -1.2114449, 0
267, 351356264, 0.8315555, -0.49527955, -0.19982976, 0.1525906, 0.4112919, -0.14152884, -0.97784615, 0
268, 351372931, 0.8331805, -0.49356812, -0.1979722, 0.15169038, 0.4995948, -0.2199544, -0.9660034, 0
269, 351389598, 0.8347261, -0.4921988, -0.1959648, 0.15024082, 0.58757365, -0.07889449, -0.89398956, 0
270, 351406265, 0.83617693, -0.49111578, -0.19387922, 0.14841345, 0.40737113, -0.08777913, -1.0537138, 0
271, 351422932, 0.8373122, -0.49057397, -0.19200307, 0.14622761, 0.2722855, -0.03264362, -0.8834095, 0
272, 351439599, 0.8383876, -0.49012583, -0.19018753, 0.1439223, 0.07962996, -0.11005197, -0.52686405, 0
273, 351456266, 0.8397114, -0.48929432, -0.18819201, 0.14163803, -0.23098187, -0.18340847, -0.16876602, 0
274, 351472933, 0.8413942, -0.48784035, -0.1861341, 0.13936883, -0.52348065, -0.2425871, -0.07042694, 0
275, 351489600, 0.8432138, -0.48607996, -0.18426767, 0.13698296, -0.64047474, -0.14620116, -0.10935879, 0
276, 351506267, 0.84499127, -0.48431313, -0.18253823, 0.13458169, -0.65315855, -0.014814438, 0.2134409, 0
277, 351522934, 0.84687114, -0.48232925, -0.18088663, 0.1320983, -0.49069175, -0.14008003, 0.4489956, 0
278, 351539601, 0.8489945, -0.47996196, -0.17910232, 0.12949577, -0.3922211, -0.089834325, 0.39189243, 0
279, 351556268, 0.8511293, -0.47755855, -0.17734356, 0.12675963, -0.42920443, -0.016693288, 0.37776947, 0
280, 351572935, 0.85301733, -0.4755843, -0.17569959, 0.123745084, -0.42981395, -0.02721449, 0.61025333, 0
281, 351589602, 0.85484767, -0.47372544, -0.17401528, 0.12058373, -0.38750318, -0.163953, 0.8565321, 0
282, 351606269, 0.85692936, -0.47149634, -0.17221132, 0.11708309, -0.21018879, -0.17690603, 1.0988274, 0
283, 351622936, 0.85897064, -0.4694269, -0.17055652, 0.11278346, 0.08173634, -0.25911185, 1.268261, 0
284, 351639603, 0.8607719, -0.46787995, -0.16904497, 0.10763766, 0.61813265, -0.24862553, 1.3578186, 0
285, 351656270, 0.862189, -0.46698275, -0.16787887, 0.1018616, 0.87981147, -0.36919603, 1.8023882, 0
286, 351672937, 0.863265, -0.4666105, -0.16729958, 0.09518866, 1.2183948, -0.43593967, 1.9127903, 0
287, 351689604, 0.86394787, -0.4668744, -0.16712932, 0.08770337, 1.5740759, 0.040639125, 1.5464993, 0
288, 351706271, 0.8639652, -0.4683388, -0.16680568, 0.08000411, 1.7774361, 0.6793249, 0.8468962, 0
289, 351722938, 0.8636468, -0.4704488, -0.16579846, 0.072836526, 1.6091082, 0.89580595, 0.33388042, 0
290, 351739605, 0.8634103, -0.47239763, -0.16421022, 0.06633252, 1.3189692, 0.755951, 0.39761925, 0
291, 351756272, 0.86389375, -0.473151, -0.16183482, 0.06022603, 1.2759103, 0.5780282, 0.7409458, 0
292, 351772939, 0.8651848, -0.47261393, -0.15859279, 0.054236323, 1.1122581, 0.48428217, 0.2773838, 0
293, 351789606, 0.8668781, -0.47137326, -0.15501307, 0.047986835, 1.1460168, 0.4707869, -0.29262066, 0
294, 351806273, 0.8683186, -0.47055903, -0.15132858, 0.041211776, 1.3632345, 0.30559316, -0.33488083, 0
295, 351822940, 0.8695853, -0.47004336, -0.1474167, 0.033922873, 1.5883988, 0.25515145, -0.42355156, 0
296, 351839607, 0.8702364, -0.4706159, -0.1432617, 0.026214626, 1.6062133, 0.19898956, -0.53714275, 0
297, 351856274, 0.8698411, -0.47303373, -0.13885354, 0.018357338, 1.2875634, 0.18651016, -0.71969795, 0
298, 351872941, 0.86858493, -0.47698385, -0.13391325, 0.010758466, 0.9957643, 0.21864752, -0.9202671, 0
299, 351889608, 0.86690813, -0.48171854, -0.12809281, 0.0034166835, 0.5580742, 0.57214844, -1.1231337, 0
300, 351906275, 0.8649117, -0.48683035, -0.122115865, -0.003707164, -0.11560923, 0.73037684, -1.4279404, 0
301, 351922942, 0.86302924, -0.49146435, -0.116368204, -0.010181591, -0.5588569, 0.83766824, -1.3287401, 0
302, 351939609, 0.8616798, -0.4948989, -0.11106806, -0.01577942, -0.90384513, 0.47920105, -1.1228857, 0
303, 351956276, 0.8610045, -0.4969674, -0.10612988, -0.020806972, -0.7599735, 0.52075946, -1.065649, 0
304, 351972943, 0.8606897, -0.49825945, -0.10148611, -0.02555712, -0.56212986, 0.78283, -1.0109854, 0
305, 351989610, 0.8604076, -0.49940407, -0.09690123, -0.030106962, -0.41782624, 0.8513052, -0.8999567, 0
306, 352006277, 0.86005145, -0.5005717, -0.09244323, -0.034575313, -0.33432773, 0.9409381, -1.0442381, 0
307, 352022944, 0.8594164, -0.50210756, -0.088223994, -0.0388569, -0.16470832, 1.1412263, -1.2561913, 0
308, 352039611, 0.8583406, -0.5043205, -0.08415553, -0.042802375, 0.0174629, 1.2399381, -1.1185322, 0
309, 352056278, 0.85708225, -0.506783, -0.08020253, -0.046375137, 0.075523406, 1.2982055, -0.7611761, 0
310, 352072945, 0.8560116, -0.5088767, -0.07639069, -0.049545906, 0.047843676, 1.4536471, -0.5245943, 0
311, 352089612, 0.8552639, -0.5103738, -0.072869696, -0.052291133, -0.022162203, 1.6198112, -0.36289978, 0
312, 352106279, 0.85478944, -0.5113657, -0.069734074, -0.054584205, -0.027838428, 1.6758972, -0.11541653, 0
313, 352122946, 0.854568, -0.5119137, -0.06679957, -0.056546953, 0.13758127, 1.7489183, 0.13019943, 0
314, 352139613, 0.85463995, -0.51197135, -0.06396478, -0.058191027, 0.19452724, 1.8122705, 0.06361866, 0
315, 352156280, 0.8547718, -0.51195115, -0.061163843, -0.059431452, 0.20215456, 1.7199134, 0.12078953, 0
316, 352172947, 0.8547993, -0.5120913, -0.058506567, -0.060495928, 0.2221117, 1.337687, 0.42665195, 0
317, 352189614, 0.8548744, -0.51211655, -0.05582716, -0.06173873, 0.39453736, 1.0595498, 0.8573866, 0
318, 352206281, 0.8550536, -0.51192147, -0.053127613, -0.063238785, 0.50629145, 1.0502069, 0.9133835, 0
319, 352222948, 0.85493064, -0.5122017, -0.050665144, -0.064635456, 0.4537627, 1.102753, 0.9928112, 0
320, 352239615, 0.8541168, -0.51357925, -0.0489153, -0.06580478, 0.34038496, 0.8129573, 1.9764891, 0
321, 352256282, 0.8527965, -0.51566195, -0.048110202, -0.06721709, 0.40050784, 0.34672627, 3.3364496, 0
322, 352272949, 0.8514416, -0.5176124, -0.04813624, -0.06935149, 0.55976146, 0.28414443, 3.4087753, 0
323, 352289616, 0.8494854, -0.52045155, -0.048551355, -0.07175872, 0.8229128, 0.4367747, 2.78856, 0
324, 352306283, 0.846677, -0.5246526, -0.049102843, -0.07395064, 0.98067594, 0.26993346, 2.6737995, 0
325, 352322950, 0.84387654, -0.5288474, -0.049915865, -0.07551806, 0.9823497, 0.049416926, 2.391961, 0
326, 352339617, 0.84175164, -0.53206295, -0.050612953, -0.07618078, 0.6320978, 0.06817458, 1.8531876, 0
327, 352356284, 0.8402181, -0.53440017, -0.051416572, -0.07621195, 0.18169312, 0.16461818, 1.1731243, 0
328, 352372951, 0.8391653, -0.5359866, -0.05246947, -0.07595289, -0.12857619, 0.17030525, 0.80813026, 0
329, 352389618, 0.83886963, -0.53635556, -0.053797044, -0.075685665, -0.39681068, 0.08727868, 0.78978634, 0
330, 352406285, 0.8392442, -0.53559214, -0.055479273, -0.07572317, -0.57733047, -0.113977306, 0.5090475, 0
331, 352422952, 0.839762, -0.53451055, -0.057445798, -0.07615781, -0.50613356, -0.16979386, 0.13567543, 0
332, 352439619, 0.83999366, -0.5338343, -0.059422273, -0.07682642, -0.48704502, -0.42382348, 0.25050163, 0
333, 352456286, 0.84009016, -0.5333506, -0.061247908, -0.077694416, -0.47847128, -0.99533004, 0.60624504, 0
334, 352472953, 0.84023106, -0.5328399, -0.06249873, -0.07867155, -0.27009767, -1.3252829, 0.23801613, 0
335, 352489620, 0.8403807, -0.532424, -0.06315363, -0.07936229, -0.07185955, -1.2201179, -0.27857685, 0
336, 352506287, 0.84053177, -0.53215396, -0.063204445, -0.079533786, 0.0011263656, -1.1764904, -0.5411444, 0
337, 352522954, 0.8409594, -0.5315444, -0.06292553, -0.07931105, -0.009003186, -1.1274021, -0.58955, 0
338, 352539621, 0.84187055, -0.53017414, -0.06250407, -0.079150304, 0.012379964, -0.86500764, -0.6897993, 0
339, 352556288, 0.8431338, -0.52819765, -0.06206871, -0.07926002, 0.02170037, -0.44237775, -1.0760756, 0
340, 352572955, 0.84439135, -0.5261744, -0.06179153, -0.079544656, -0.016112154, -0.024971537, -1.5646219, 0
341, 352589622, 0.8452215, -0.5247893, -0.06169737, -0.07995175, -0.06999258, 0.2430748, -1.7338419, 0
342, 352606289, 0.8456285, -0.524019, -0.061609607, -0.08076318, -0.08428592, 0.3587857, -1.5839767, 0
343, 352622956, 0.8458517, -0.5234513, -0.0616239, -0.082085684, -0.15942486, 0.37839583, -1.3774118, 0
344, 352639623, 0.8460298, -0.5228989, -0.061523233, -0.08382675, -0.26951274, 0.31074446, -1.0279322, 0
345, 352656290, 0.8464312, -0.5219218, -0.061395466, -0.08593183, -0.3805825, 0.21339586, -0.72344494, 0
346, 352672957, 0.84693646, -0.5207312, -0.061193645, -0.08828812, -0.46297064, 0.296464, -0.63685226, 0
347, 352689624, 0.84746665, -0.5194971, -0.060859572, -0.090669274, -0.43461084, 0.3929349, -0.5564518, 0
348, 352706291, 0.84791243, -0.51840645, -0.060338914, -0.09305994, -0.34378487, 0.4401587, -0.3994999, 0
349, 352722958, 0.84822017, -0.5175445, -0.05954243, -0.09553401, -0.21326235, 0.44408897, -0.21501064, 0
350, 352739625, 0.8484959, -0.5166859, -0.0584208, -0.09838377, -0.03587989, 0.48362124, -0.16117668, 0
351, 352756292, 0.84864837, -0.5159652, -0.05700194, -0.10162964, 0.0072149145, 0.6755871, -0.07250404, 0
352, 352772959, 0.84836054, -0.5159061, -0.055257875, -0.10523274, 0.08450813, 0.685976, 0.18425083, 0
353, 352789626, 0.84761757, -0.5165432, -0.052963436, -0.109198794, 0.11053889, 0.71414536, 0.46695423, 0
354, 352806293, 0.84654135, -0.51769984, -0.050489128, -0.11316932, -0.11323954, 0.8543175, 0.59627914, 0
355, 352822960, 0.8452472, -0.51913184, -0.048108466, -0.1172473, -0.44565096, 0.7931925, 0.7106657, 0
356, 352839627, 0.8438162, -0.52066547, -0.046220526, -0.121438816, -0.8657818, 0.5048661, 1.2196283, 0
357, 352856294, 0.84274244, -0.5214301, -0.044924956, -0.12601405, -1.0961998, 0.10513602, 1.9517374, 0
358, 352872961, 0.8425144, -0.5205428, -0.04452442, -0.13124016, -0.9589088, -0.33127347, 2.4058475, 0
359, 352889628, 0.8426965, -0.51869065, -0.044853847, -0.13715887, -0.74294204, -0.61575, 2.4960432, 0
360, 352906295, 0.84265876, -0.5170088, -0.045776162, -0.14329837, -0.49573943, -0.86627275, 2.450366, 0
361, 352922962, 0.8422409, -0.51599675, -0.046528567, -0.14904544, -0.10111461, -0.8715271, 2.227066, 0
362, 352939629, 0.84143645, -0.5159266, -0.04681324, -0.15367208, 0.3612178, -0.68529475, 1.2751045, 0
363, 352956296, 0.8408175, -0.5160088, -0.046499565, -0.15684564, 0.45651516, -0.28646716, 0.14672661, 0
364, 352972963, 0.8402047, -0.5165279, -0.04582397, -0.15860945, 0.19309415, -0.15143852, -0.18397617, 0
365, 352989630, 0.8402495, -0.51602787, -0.04507629, -0.1602069, 0.123239934, -0.35908294, 0.15399551, 0
366, 353006297, 0.84158456, -0.5132758, -0.044210307, -0.16226725, 0.19494472, -0.42262098, 0.27197838, 0
367, 353022964, 0.8439028, -0.5087897, -0.043045994, -0.16465084, 0.2405863, -0.49352866, -0.18664932, 0
368, 353039631, 0.8461055, -0.5044546, -0.04144338, -0.16707915, 0.29170257, -0.5847363, -0.5931454, 0
369, 353056298, 0.8475857, -0.5013603, -0.039357215, -0.1693803, 0.33337185, -0.7491001, -0.7006502, 0
370, 353072965, 0.84825754, -0.49960572, -0.036735445, -0.17177214, 0.48487106, -0.9037912, -0.47907925, 0
371, 353089632, 0.84857184, -0.4983294, -0.033729464, -0.17452246, 0.76222044, -0.81552637, -0.6055727, 0
372, 353106299, 0.8486628, -0.4975684, -0.030205129, -0.1768806, 0.76330847, -0.42619362, -0.9941902, 0
373, 353122966, 0.8485941, -0.49730158, -0.026292985, -0.17857765, 0.4561994, -0.0135643305, -1.3905964, 0
374, 353139633, 0.848243, -0.49769315, -0.022266388, -0.17969833, 0.017956864, 0.4326263, -1.6719999, 0
375, 353156300, 0.84786385, -0.49830067, -0.018591303, -0.18022121, -0.45770445, 0.7266621, -1.6823072, 0
376, 353172967, 0.84775525, -0.49865574, -0.015390869, -0.18005161, -0.64844996, 0.8577893, -1.300931, 0
377, 353189634, 0.84812725, -0.4981944, -0.012768615, -0.17978218, -0.57718927, 0.796927, -1.029499, 0
378, 353206301, 0.84877414, -0.49726695, -0.010713922, -0.17942964, -0.47973397, 0.91603184, -1.0881596, 0
379, 353222968, 0.8493354, -0.49657923, -0.009040616, -0.17876922, -0.36666244, 0.9258774, -1.0451107, 0
380, 353239635, 0.849593, -0.49648997, -0.0074307304, -0.17786568, -0.13561082, 0.94370836, -0.9582672, 0
381, 353256302, 0.8493551, -0.49727774, -0.00590074, -0.17685488, -0.07913339, 0.88508695, -0.79166603, 0
382, 353272969, 0.8489319, -0.49838376, -0.00456087, -0.17581014, -0.13503814, 0.9759964, -0.69847393, 0
383, 353289636, 0.8486226, -0.49935383, -0.003742054, -0.17456563, -0.20852208, 1.1401659, -0.70870304, 0
384, 353306303, 0.84850824, -0.5001153, -0.003478704, -0.17294046, -0.2133691, 1.3719107, -0.6298685, 0
385, 353322970, 0.8485848, -0.50065774, -0.0037932668, -0.1709769, -0.17120394, 1.4175196, -0.4402418, 0
386, 353339637, 0.8489732, -0.5007827, -0.004786704, -0.16864224, -0.22430974, 1.5143188, -0.30545044, 0
387, 353356304, 0.8493848, -0.50107205, -0.006186826, -0.1656381, -0.15468368, 1.5061259, -0.08943558, 0
388, 353372971, 0.8497031, -0.5017387, -0.0073500443, -0.16189763, -0.0314561, 1.4299284, 0.24449635, 0
389, 353389638, 0.8499267, -0.5026079, -0.007947467, -0.1579517, -0.08835467, 1.1594471, 0.272748, 0
390, 353406305, 0.8501746, -0.5033063, -0.008426626, -0.15432787, -0.091507204, 0.73781, 0.6302004, 0
391, 353422972, 0.8502702, -0.50400627, -0.008189772, -0.15150249, 0.26245728, 0.46985015, 1.2372503, 0
392, 353439639, 0.8506309, -0.5040211, -0.0073160445, -0.14945942, 0.51896524, 0.60865796, 1.0051689, 0
393, 353456306, 0.8505535, -0.5049209, -0.0060494985, -0.14689748, 0.32200962, 0.8113507, 0.5273771, 0
394, 353472973, 0.8496255, -0.50753886, -0.00474552, -0.14324892, 0.050048064, 1.0389845, 0.6205692, 0
395, 353489640, 0.8478312, -0.5117723, -0.0037222914, -0.13877854, -0.2732508, 1.1152219, 1.5178957, 0
396, 353506307, 0.84551185, -0.5166833, -0.0032311028, -0.1346839, -0.32372552, 0.7630138, 2.513342, 0
397, 353522974, 0.8432168, -0.52115923, -0.0031918448, -0.13179576, -0.18707807, 0.5997045, 2.6769562, 0
398, 353539641, 0.8409453, -0.5253429, -0.003354676, -0.12967852, -0.13926335, 0.72256416, 2.224043, 0
399, 353556308, 0.83854413, -0.5296135, -0.003951239, -0.12782718, -0.18829247, 0.756004, 1.9308052, 0
400, 353572975, 0.8357759, -0.5343843, -0.004833259, -0.12605727, -0.19611791, 0.63157606, 1.7405128, 0
401, 353589642, 0.8331448, -0.5387731, -0.0060317046, -0.12473538, -0.30848244, 0.74336743, 1.3638248, 0
402, 353606309, 0.83051515, -0.5430955, -0.007534202, -0.12343789, -0.49635845, 0.79407316, 1.0268421, 0
403, 353622976, 0.82808304, -0.5470427, -0.009515375, -0.122205295, -0.61398524, 0.5564713, 0.8607378, 0
404, 353639643, 0.8260591, -0.5502435, -0.0121280905, -0.12129916, -0.68718374, 0.27608186, 0.69042873, 0
405, 353656310, 0.82435095, -0.5528286, -0.0152964005, -0.12080623, -0.77036834, -0.21227697, 0.5385494, 0
406, 353672977, 0.8230716, -0.5546394, -0.019156585, -0.12067762, -0.80314106, -0.5909611, 0.5121527, 0
407, 353689644, 0.8222004, -0.55567443, -0.023716953, -0.121044435, -0.63904524, -0.8864466, 0.2565651, 0
408, 353706311, 0.82155347, -0.5562794, -0.028683567, -0.1215816, -0.49097827, -1.0445136, 0.042966843, 0
409, 353722978, 0.8211416, -0.55645394, -0.034090973, -0.12216808, -0.55892044, -1.2426041, 0.012119293, 0
410, 353739645, 0.82095414, -0.5561796, -0.039837122, -0.12293791, -0.52606404, -1.5003284, -0.07840443, 0
411, 353756312, 0.82131565, -0.5549175, -0.04595315, -0.1240857, -0.41832495, -1.588081, -0.19377327, 0
412, 353772979, 0.8220807, -0.5528775, -0.052077055, -0.12569712, -0.17163192, -1.5862156, -0.40541935, 0
413, 353789646, 0.8232412, -0.55017513, -0.0580292, -0.12734106, 0.013657731, -1.3982912, -0.60794735, 0
414, 353806313, 0.8248019, -0.54686594, -0.06424341, -0.12850793, 0.021087442, -0.98085976, -0.80957794, 0
415, 353822980, 0.8264472, -0.5433436, -0.071012765, -0.12931287, -0.016917333, -0.72157896, -0.9504843, 0
416, 353839647, 0.828127, -0.53954256, -0.07836294, -0.13023233, -0.12689467, -0.5498714, -0.99935913, 0
417, 353856314, 0.8298469, -0.53532225, -0.086408176, -0.13160351, -0.27081496, -0.32487473, -0.995183, 0
418, 353872981, 0.83157897, -0.5306753, -0.0951863, -0.1334232, -0.45985708, -0.22623222, -0.9718218, 0
419, 353889648, 0.833344, -0.5255892, -0.10468465, -0.13541345, -0.7275085, -0.30862847, -0.89565754, 0
420, 353906315, 0.83516824, -0.5199451, -0.11492927, -0.13763835, -0.8858017, -0.42513326, -0.9240284, 0
421, 353922982, 0.8370323, -0.5136283, -0.12609339, -0.1402324, -1.1273562, -0.3366418, -0.7984581, 0
422, 353939649, 0.83879316, -0.5066856, -0.13829404, -0.14343093, -1.1474228, -0.48402983, -0.6744909, 0
423, 353956316, 0.8405898, -0.49890763, -0.15128171, -0.14702268, -1.1648604, -0.34994486, -0.44452858, 0
424, 353972983, 0.8424942, -0.4901953, -0.16496323, -0.15066972, -1.1650957, -0.052745033, -0.33836842, 0
425, 353989650, 0.844398, -0.48064676, -0.17951272, -0.15410383, -1.2961003, 0.37585, -0.31929684, 0
426, 354006317, 0.84619904, -0.47038627, -0.19478598, -0.1573033, -1.531753, 0.5864627, 0.059560776, 0
427, 354022984, 0.8480512, -0.45898494, -0.2108003, -0.16033418, -1.8165416, 0.52563494, 0.76734734, 0
428, 354039651, 0.85030717, -0.4455656, -0.22767165, -0.16314533, -1.9942304, 0.5616697, 1.2199631, 0
429, 354056318, 0.85275155, -0.43031844, -0.24546602, -0.16549648, -1.9685881, 0.56240374, 1.2221842, 0
430, 354072985, 0.8549397, -0.41419962, -0.2634972, -0.16759442, -1.8751494, 0.4893995, 1.200469, 0
431, 354089652, 0.85660404, -0.39785075, -0.28132385, -0.1697148, -1.8677204, 0.058854986, 1.2513885, 0
432, 354106319, 0.8578937, -0.38107315, -0.29884562, -0.17174105, -1.7771096, -0.2600837, 1.3512993, 0
433, 354122986, 0.8587748, -0.3643194, -0.31578413, -0.17337745, -1.8305795, -0.6726748, 1.4749699, 0
434, 354139653, 0.85959077, -0.34686017, -0.3319547, -0.17492823, -1.7636954, -1.2848567, 1.4380484, 0
435, 354156320, 0.8604047, -0.3284277, -0.34715566, -0.17698632, -1.7119043, -1.9894035, 1.537199, 0
436, 354172987, 0.860967, -0.3094634, -0.361289, -0.18011199, -1.3602344, -2.5773766, 1.4526911, 0
437, 354189654, 0.8609222, -0.2913053, -0.37394607, -0.18471684, -0.6782523, -2.2129643, 1.0020876, 0
438, 354206321, 0.86025625, -0.27518907, -0.38461703, -0.19053076, 0.2191321, -1.1148437, 0.11834335, 0
439, 354222988, 0.8589837, -0.26261303, -0.39299035, -0.19682994, 0.4781159, -0.072659366, -0.84614754, 0
440, 354239655, 0.8572295, -0.25388667, -0.39948213, -0.20276858, 0.061901018, 0.24195814, -1.5884533, 0
441, 354256322, 0.8554909, -0.24726601, -0.4046185, -0.20804046, -0.63022584, -0.30749953, -1.8743329, 0
442, 354272989, 0.8540772, -0.24068475, -0.409129, -0.21269305, -1.1368372, -1.2533723, -1.9018569, 0
443, 354289656, 0.8532564, -0.23248869, -0.41324252, -0.21710598, -1.0109025, -1.9366665, -1.9088573, 0
444, 354306323, 0.85288066, -0.2228822, -0.41684544, -0.22172046, -0.41769296, -1.721701, -1.9066458, 0
445, 354322990, 0.852174, -0.21444862, -0.41972157, -0.22726037, 0.4255711, -1.056607, -1.8826976, 0
446, 354339657, 0.85064584, -0.20992988, -0.4212984, -0.23418067, 1.0931283, -0.93908095, -1.7128973, 0
447, 354356324, 0.8478655, -0.21082145, -0.42157748, -0.24280205, 1.3859982, -1.1147262, -1.401331, 0
448, 354372991, 0.84381455, -0.21667819, -0.42064866, -0.2531482, 1.5400089, -1.4095376, -1.0534992, 0
449, 354389658, 0.8386068, -0.22645552, -0.41880083, -0.26469624, 1.3145796, -1.1645194, -0.75708294, 0
450, 354406325, 0.83210725, -0.23946956, -0.41688064, -0.2765223, 0.7398042, -0.7909408, -0.6699343, 0
451, 354422992, 0.82427764, -0.25523937, -0.4155519, -0.28764158, 0.08136408, -0.6283324, -0.6969166, 0
452, 354439659, 0.8156772, -0.27206525, -0.41527352, -0.29698652, -0.7245157, -0.5865749, -0.51173496, 0
453, 354456326, 0.807736, -0.28693745, -0.4160058, -0.30359668, -1.9922937, -0.9601149, -0.15123081, 0
454, 354472993, 0.8007577, -0.29659727, -0.41974357, -0.30762708, -2.4608693, -1.0260608, 0.17393875, 0
455, 354489660, 0.79533726, -0.29994202, -0.42693067, -0.30855405, -2.9600706, -1.0035303, 0.4737873, 0
456, 354506327, 0.7918335, -0.29728684, -0.43766814, -0.30507168, -3.377192, -1.2087398, 0.6607475, 0
457, 354522994, 0.790564, -0.28795162, -0.4518686, -0.296495, -2.6500175, -1.2857596, 0.82652855, 0
458, 354539661, 0.7909589, -0.2742492, -0.4677558, -0.28351024, -1.669023, -1.2524452, 0.9916363, 0
459, 354556328, 0.7925641, -0.2579035, -0.48396295, -0.26666397, -1.1396903, -1.1454878, 0.9909849, 0
460, 354572995, 0.7950623, -0.24006292, -0.49957016, -0.24632806, -0.83706677, -1.1272172, 0.81600475, 0
461, 354589662, 0.7978385, -0.22177853, -0.51417124, -0.22337855, -0.4322135, -0.9702018, 0.59791565, 0
462, 354606329, 0.8004312, -0.20431653, -0.5272547, -0.19891986, -0.2734167, -0.7756478, 0.40889168, 0
463, 354622996, 0.8025688, -0.18812458, -0.5387731, -0.17383242, -0.16522615, -0.6743663, 0.2923355, 0
464, 354639663, 0.8042118, -0.17343219, -0.5486782, -0.14872414, -0.14866115, -0.4571201, 0.19331264, 0
465, 354656330, 0.80524504, -0.16106454, -0.55691886, -0.124426745, -0.22987592, -0.32044783, 0.1113472, 0
466, 354672997, 0.8057385, -0.15098482, -0.5636942, -0.10119191, -0.41141805, -0.43331966, 0.09191704, 0
467, 354689664, 0.8057809, -0.14293376, -0.5692459, -0.07904582, -0.5467489, -0.8168094, 0.19597721, 0
468, 354706331, 0.80545735, -0.1359407, -0.57394964, -0.057813995, -0.67164123, -1.1231033, 0.268178, 0
469, 354722998, 0.8048253, -0.1292577, -0.57807356, -0.037168056, -0.69671047, -1.5041562, 0.47060585, 0
470, 354739665, 0.80391484, -0.122091286, -0.5818348, -0.016877737, -0.5265116, -1.8982347, 0.8782759, 0
471, 354756332, 0.8028001, -0.11365539, -0.58530885, 0.0031723888, -0.114280835, -2.051114, 1.4501162, 0
472, 354772999, 0.80158156, -0.10398377, -0.5883341, 0.02278521, 0.43966204, -1.9282912, 1.9413481, 0
473, 354789666, 0.80034447, -0.093484335, -0.5907284, 0.041847378, 1.0281762, -1.5166888, 2.1240206, 0
474, 354806333, 0.7990886, -0.082594566, -0.59243745, 0.06046031, 1.4310962, -0.9661001, 2.111806, 0
475, 354823000, 0.79769975, -0.07197156, -0.5935738, 0.07853221, 1.7515906, -0.580012, 1.8585196, 0
476, 354839667, 0.79622984, -0.061656874, -0.5941093, 0.096189454, 1.9836878, -0.14788964, 1.4375725, 0
477, 354856334, 0.79467565, -0.051820762, -0.59405935, 0.11358106, 2.0664935, 0.22191079, 0.7870569, 0
478, 354873001, 0.7930124, -0.04281525, -0.5934831, 0.13068289, 2.1840224, 0.32732186, 0.25511074, 0
479, 354889668, 0.7913179, -0.034275595, -0.5923306, 0.14760627, 2.3612761, 0.1934256, -0.060809135, 0
480, 354906335, 0.78974557, -0.02594216, -0.5904661, 0.16425847, 2.621696, 0.110349044, -0.29150486, 0
481, 354923002, 0.788354, -0.017742973, -0.5878958, 0.1804549, 2.7973952, 0.21847264, -0.524189, 0
482, 354939669, 0.7870957, -0.010096614, -0.5848344, 0.19582951, 3.0266407, 0.33159503, -0.6752262, 0
483, 354956336, 0.78587574, -0.003236665, -0.58165926, 0.20991246, 3.271319, 0.40886158, -0.73253536, 0
484, 354973003, 0.78471744, 0.0027627908, -0.578606, 0.22232395, 3.5842772, 0.4318151, -0.6781254, 0
485, 354989670, 0.7837282, 0.007776022, -0.5757786, 0.2327888, 3.861668, 0.47807196, -0.5114441, 0
486, 355006337, 0.78299356, 0.011712592, -0.5733157, 0.24102943, 4.010736, 0.52242327, -0.45380974, 0
487, 355023004, 0.78256136, 0.014575843, -0.5713007, 0.24698696, 4.0309153, 0.569729, -0.45423317, 0
488, 355039671, 0.78238255, 0.016132578, -0.5698243, 0.2508372, 3.9473643, 0.36558688, -0.45088387, 0
489, 355056338, 0.7824115, 0.01671742, -0.5688461, 0.25292066, 3.8941016, 0.2899545, -0.41396332, 0
490, 355073005, 0.78263825, 0.016507458, -0.56830704, 0.25344434, 3.8310611, 0.37574545, -0.38815594, 0
491, 355089672, 0.7829608, 0.015457338, -0.5682533, 0.25263375, 3.7281532, 0.42199427, -0.34175587, 0
492, 355106339, 0.7832142, 0.01386183, -0.5686554, 0.25103068, 3.5078292, 0.5818548, -0.39218044, 0
493, 355123006, 0.7832273, 0.011655925, -0.5695586, 0.24904649, 3.2254305, 0.72271514, -0.427557, 0
494, 355139673, 0.78280485, 0.008916225, -0.5710327, 0.24710543, 3.027098, 0.70549995, -0.42408466, 0
495, 355156340, 0.7818962, 0.0061576515, -0.572945, 0.24563482, 2.878314, 0.642391, -0.29287052, 0
496, 355173007, 0.78050005, 0.0037392331, -0.57506484, 0.24517022, 2.7017388, 0.5229836, -0.06935978, 0
497, 355189674, 0.7787268, 0.0019136774, -0.5772012, 0.2458083, 2.6434402, 0.5051875, 0.24645615, 0
498, 355206341, 0.7766808, 5.9136003E-4, -0.57925594, 0.24744983, 2.511453, 0.71643806, 0.4362688, 0
499, 355223008, 0.77444416, -9.4955135E-4, -0.5812236, 0.24983348, 2.3535256, 0.83868843, 0.5472784, 0
500, 355239675, 0.7720352, -0.0027860454, -0.5832279, 0.25259048, 2.1507256, 0.80132294, 0.63112545, 0
501, 355256342, 0.76947814, -0.004668331, -0.5852734, 0.25561485, 1.9697602, 0.709453, 0.6899185, 0
502, 355273009, 0.76684344, -0.0067740274, -0.5873009, 0.25881463, 1.7449375, 0.735292, 0.7040415, 0
503, 355289676, 0.76426595, -0.0092424285, -0.58919317, 0.26204127, 1.4767662, 0.8796458, 0.6585798, 0
504, 355306343, 0.76178384, -0.012364123, -0.5910312, 0.2649843, 1.1028894, 0.8904711, 0.47332764, 0
505, 355323010, 0.7593422, -0.016185962, -0.5929364, 0.26751873, 0.78442854, 0.6720779, 0.24026585, 0
506, 355339677, 0.756926, -0.020138884, -0.59498173, 0.26954836, 0.5090816, 0.49696612, 0.09925175, 0
507, 355356344, 0.7545923, -0.023926508, -0.5970485, 0.2712069, 0.26879668, 0.24882597, 0.017652512, 0
508, 355373011, 0.7524589, -0.027442515, -0.5989628, 0.2725771, 0.10710741, 0.097182006, -0.008085251, 0
509, 355389678, 0.750681, -0.030286316, -0.60047776, 0.27384248, -0.068973415, -0.075208336, 0.014120102, 0
510, 355406345, 0.7492917, -0.03226375, -0.6015635, 0.27503556, -0.13398573, -0.36136922, -0.0024662018, 0
511, 355423012, 0.74835235, -0.03312509, -0.60215265, 0.27619883, -0.19484116, -0.3129819, -0.122457504, 0
512, 355439679, 0.74787676, -0.033218294, -0.6022567, 0.2772469, -0.20806642, -0.18961683, -0.20477295, 0
513, 355456346, 0.7477779, -0.032914866, -0.60204786, 0.27800235, -0.23268682, -0.044642996, -0.18172646, 0
514, 355473013, 0.7478485, -0.03231983, -0.6018518, 0.278307, -0.21951878, 0.13423733, 0.07423496, 0
515, 355489680, 0.74793917, -0.031630687, -0.6019688, 0.27788875, -0.057972107, 0.3159091, 0.72931004, 0
516, 355506347, 0.7480618, -0.031056223, -0.6024902, 0.27649012, 0.21112274, 0.5346104, 1.4979105, 0
517, 355523014, 0.74840015, -0.030555386, -0.60315686, 0.27416682, 0.23428315, 0.7103108, 1.833643, 0
518, 355539681, 0.74893916, -0.030281022, -0.603805, 0.2712834, -0.14793518, 0.8669254, 1.223011, 0
519, 355556348, 0.7493913, -0.031047907, -0.6046803, 0.2679784, -0.65084964, 0.67097515, 0.2324667, 0
520, 355573015, 0.74947816, -0.032437496, -0.6059449, 0.26469442, -0.94783103, 0.08765146, -0.51410294, 0
521, 355589682, 0.74926555, -0.033378426, -0.6072311, 0.2622202, -1.0305783, -0.5213346, -0.7684841, 0
522, 355606349, 0.7489896, -0.032977864, -0.608097, 0.26104993, -0.95603174, -1.0184733, -0.62273884, 0
523, 355623016, 0.7487568, -0.030761529, -0.60839915, 0.26128355, -0.969398, -1.1640521, -0.35954952, 0
524, 355639683, 0.7486266, -0.02758704, -0.6083876, 0.2620379, -0.84222853, -0.9856405, -0.15618896, 0
525, 355656350, 0.7483728, -0.024626408, -0.6085662, 0.26264185, -0.9255274, -0.5535684, -0.007701874, 0
526, 355673017, 0.74772716, -0.023470148, -0.60958385, 0.26222643, -0.99758303, -0.101327054, 0.06677914, 0
527, 355689684, 0.74649376, -0.025059082, -0.6117328, 0.26058438, -0.8973017, -0.13108945, 0.37500763, 0
528, 355706351, 0.7448344, -0.028799959, -0.61440825, 0.2586444, -0.7950566, -0.5863729, 0.9996023, 0
529, 355723018, 0.74284464, -0.033828124, -0.61696744, 0.25766435, -0.83889556, -1.3546151, 1.5376396, 0
530, 355739685, 0.74063396, -0.039089378, -0.6187734, 0.25895005, -1.1452571, -1.774182, 1.6826878, 0
531, 355756352, 0.73801386, -0.044492196, -0.6198613, 0.26292634, -1.615655, -2.2671115, 1.7379551, 0
532, 355773019, 0.7348935, -0.05020331, -0.6201311, 0.26990882, -1.902646, -2.573423, 1.5490942, 0
533, 355789686, 0.7312842, -0.05653124, -0.6194148, 0.27991956, -1.9825081, -2.7781904, 1.4970808, 0
534, 355806353, 0.727073, -0.06374968, -0.61772645, 0.29277495, -1.855242, -2.8684452, 1.5135374, 0
535, 355823020, 0.722, -0.07225664, -0.6151976, 0.3082678, -1.5931516, -2.973834, 1.6978874, 0
536, 355839687, 0.7160557, -0.0820332, -0.6116797, 0.32616726, -1.3557223, -3.1328773, 1.990941, 0
537, 355856354, 0.7091052, -0.0929951, -0.60719085, 0.34618372, -1.1692486, -2.9954863, 2.137621, 0
538, 355873021, 0.7010037, -0.10548804, -0.6018108, 0.36782074, -1.0449933, -2.452562, 2.4664164, 0
539, 355889688, 0.69163877, -0.11929581, -0.59557843, 0.3907593, -0.7488998, -2.292287, 2.5372152, 0
540, 355906355, 0.6808004, -0.13406557, -0.58871627, 0.41467163, -0.33975622, -2.029663, 2.476512, 0
541, 355923022, 0.66828865, -0.14980085, -0.5811966, 0.4395025, -0.1770102, -1.5160736, 2.7613173, 0
542, 355939689, 0.6543109, -0.16592549, -0.57267493, 0.46517918, 0.102254495, -0.7616775, 2.968608, 0
543, 355956356, 0.63880825, -0.18272187, -0.56328, 0.49117643, 0.17646661, 0.036938645, 3.1260366, 0
544, 355973023, 0.6216248, -0.20034625, -0.5530918, 0.51723826, 0.32742727, 0.92579556, 2.8959293, 0
545, 355989690, 0.6023944, -0.21886604, -0.54222983, 0.54333013, 0.36750403, 1.5084343, 2.7103367, 0
546, 356006357, 0.58119076, -0.23778275, -0.530186, 0.56972045, 0.1848546, 1.5826074, 2.6491022, 0
547, 356023024, 0.5584398, -0.25683245, -0.51634395, 0.5962994, 0.18593551, 1.7921648, 2.414507, 0
548, 356039691, 0.5341422, -0.27611843, -0.5005579, 0.6228119, 0.17049345, 2.2518864, 1.9773388, 0
549, 356056358, 0.50836855, -0.29553914, -0.48283803, 0.6489126, 0.07535896, 2.8374035, 1.4000673, 0
550, 356073025, 0.48106143, -0.314787, -0.46379253, 0.67408276, -0.09911145, 2.9296625, 0.9006939, 0
551, 356089692, 0.45225617, -0.33336538, -0.4436554, 0.6982148, -0.20245446, 3.15798, 0.8149786, 0
552, 356106359, 0.42247534, -0.35075393, -0.42190012, 0.7214489, -0.19209397, 3.7391548, 0.3046713, 0
553, 356123026, 0.39146748, -0.36716595, -0.39920554, 0.7433569, -0.27743793, 3.827478, -0.4728794, 0
554, 356139693, 0.35918835, -0.38281104, -0.37582734, 0.7636723, -0.16646607, 3.9051902, -1.0894499, 0
555, 356156360, 0.32607386, -0.39761376, -0.35191652, 0.78213555, -0.36196047, 3.9422526, -1.4870968, 0
556, 356173027, 0.2927532, -0.41095206, -0.32731184, 0.7989261, -0.75206107, 3.6180887, -2.0046482, 0
557, 356189694, 0.25946042, -0.4226478, -0.30267957, 0.81390184, -0.98002106, 3.228057, -2.745194, 0
558, 356206361, 0.22679608, -0.43281594, -0.27832392, 0.8269049, -1.0401486, 2.8997996, -3.2466602, 0
559, 356223028, 0.1952816, -0.44147146, -0.25508693, 0.8377952, -1.4758469, 1.8245809, -3.91846, 0
560, 356239695, 0.16470487, -0.44885916, -0.23433404, 0.846456, -1.4855363, 1.0150375, -4.5336013, 0
561, 356256362, 0.1358937, -0.45457715, -0.21648002, 0.85324717, -1.390286, 0.94233084, -4.3159566, 0
562, 356273029, 0.110472985, -0.45884347, -0.20094532, 0.85841787, -1.7155125, 0.4067201, -4.45469, 0
563, 356289696, 0.08898162, -0.46168178, -0.18798053, 0.862321, -2.0273118, -0.36200508, -4.390923, 0
564, 356306363, 0.07236114, -0.46312666, -0.17784674, 0.86524576, -1.9843389, -0.8909196, -4.074315, 0
565, 356323030, 0.061090834, -0.46348384, -0.17087807, 0.8673254, -1.9886564, -1.5255109, -3.9662218, 0
566, 356339697, 0.054845117, -0.4630882, -0.16741101, 0.8686295, -1.9891723, -2.1186316, -3.6750813, 0
567, 356356364, 0.053288132, -0.46202847, -0.16781151, 0.869213, -1.9819177, -2.0135043, -3.2727828, 0
568, 356373031, 0.056803986, -0.46059474, -0.17139126, 0.86905295, -1.8579973, -1.5603116, -2.913476, 0
569, 356389698, 0.06572878, -0.45890662, -0.1774595, 0.86809856, -1.7305877, -1.2116582, -2.5213523, 0
570, 356406365, 0.080011494, -0.45669907, -0.18557574, 0.86636484, -1.5895116, -1.0187896, -2.1063337, 0
571, 356423032, 0.09881862, -0.4535926, -0.19554539, 0.8638592, -1.2143074, -1.1305859, -1.7468271, 0
572, 356439699, 0.121267885, -0.449138, -0.20751101, 0.8605291, -0.9731069, -1.1153303, -1.4583149, 0
573, 356456366, 0.1472214, -0.44296077, -0.22146167, 0.85619414, -0.7640076, -0.8618283, -1.4621677, 0
574, 356473033, 0.17645995, -0.4347899, -0.23741747, 0.85056144, -0.8463851, -0.5693892, -1.5919085, 0
575, 356489700, 0.20836525, -0.42434692, -0.25483945, 0.84354764, -0.95506614, -0.35293764, -1.9366374, 0
576, 356506367, 0.24223395, -0.4116104, -0.2737004, 0.8348591, -0.72317773, -0.09346088, -2.46946, 0
577, 356523034, 0.27648062, -0.39663178, -0.2938981, 0.82454085, -0.05615735, 0.29959592, -2.7196035, 0
578, 356539701, 0.30983868, -0.3794592, -0.3154744, 0.8127045, -0.639542, 1.2428335, -2.381271, 0
579, 356556368, 0.34195063, -0.36018464, -0.33686614, 0.79991263, -0.87541556, 2.0777445, -2.3607712, 0
580, 356573035, 0.37192923, -0.3395236, -0.3575456, 0.78648305, -0.8365182, 2.8097782, -1.8259773, 0
581, 356589702, 0.40073928, -0.31843477, -0.3768541, 0.77200437, 0.09739845, 3.8450568, -1.2345896, 0
582, 356606369, 0.42920688, -0.29606164, -0.3940774, 0.75685805, -0.19176249, 3.713323, -0.9052267, 0
583, 356623036, 0.4556001, -0.2726866, -0.4094231, 0.74192005, 0.1844079, 3.748965, -1.505908, 0
584, 356639703, 0.4793365, -0.24898948, -0.4255533, 0.7260492, 0.52573824, 3.1404915, -0.98599434, 0
585, 356656370, 0.50130206, -0.22489284, -0.4413697, 0.70944643, 0.9947379, 3.1237555, -0.6726818, 0
586, 356673037, 0.5214321, -0.20099945, -0.45694396, 0.6920347, 1.390264, 3.321514, -0.3292246, 0
587, 356689704, 0.5388998, -0.17765759, -0.47259688, 0.67429894, 0.8172876, 3.5255818, -0.17290592, 0
588, 356706371, 0.55457366, -0.15478282, -0.48692942, 0.6568045, 1.0447899, 3.223785, 0.9912119, 0
589, 356723038, 0.57001597, -0.13096206, -0.4987808, 0.6396488, 1.3011185, 2.1621237, 1.7173939, 0
590, 356739705, 0.5856927, -0.105641596, -0.5076406, 0.62298244, 1.3922825, 1.3303779, 1.8874722, 0
591, 356756372, 0.60078275, -0.07874034, -0.5140774, 0.6071134, 1.4741911, 0.5610889, 1.8585606, 0
592, 356773039, 0.61327136, -0.050590284, -0.5206094, 0.59186727, 0.89586496, 0.7314987, 0.4539461, 0
593, 356789706, 0.6226777, -0.024569273, -0.5292842, 0.57578564, 0.18721512, 1.4627285, 0.5273924, 0
594, 356806373, 0.6303792, -7.876819E-4, -0.53894335, 0.5587161, 0.7953362, 1.3683034, 1.8966084, 0
595, 356823040, 0.6379567, 0.023897622, -0.5460209, 0.5424975, 1.7716178, 0.11164948, 3.0865984, 0
596, 356839707, 0.6455956, 0.051559873, -0.54894096, 0.5284069, 1.8765906, -0.8211506, 2.7590246, 0
597, 356856374, 0.6524003, 0.081817225, -0.54884046, 0.5161936, 1.0319057, -0.9447547, 2.186266, 0
598, 356873041, 0.6577015, 0.112809345, -0.54730064, 0.5051404, 0.691419, -0.43144202, 1.5550852, 0
599, 356889708, 0.6613652, 0.14231752, -0.54578245, 0.4944345, 0.10074623, 0.29495412, 1.4522638, 0
600, 356906375, 0.66376364, 0.1686516, -0.5447502, 0.48396653, -0.43440995, 0.53350294, 1.7202597, 0
601, 356923042, 0.6650441, 0.19212604, -0.54391766, 0.47429875, -0.30765352, -0.13889855, 1.7434902, 0
602, 356939709, 0.6645387, 0.21362633, -0.54371333, 0.46597204, -0.31278178, -0.3859957, 1.3937197, 0
603, 356956376, 0.66271913, 0.2310085, -0.54528886, 0.45836723, -1.1566554, 0.22225234, 1.5177336, 0
604, 356973043, 0.6604515, 0.2427927, -0.54893166, 0.45114514, -1.7400515, 0.67022777, 1.8617668, 0
605, 356989710, 0.6580106, 0.24833395, -0.5548176, 0.4444454, -1.4676839, -0.41149205, 2.0915556, 0
606, 357006377, 0.65503144, 0.24982664, -0.5615806, 0.4394883, -0.2915673, -2.0686288, 2.2846537, 0
607, 357023044, 0.6516966, 0.24983788, -0.5676208, 0.43667084, 0.54258394, -3.0559928, 2.529337, 0
608, 357039711, 0.6486655, 0.24941342, -0.5721762, 0.43547952, 0.7012357, -3.2092938, 2.3202868, 0
609, 357056378, 0.64652574, 0.24809588, -0.5757487, 0.434705, 0.37892196, -3.1027107, 1.8648329, 0
610, 357073045, 0.6455932, 0.24530007, -0.57890177, 0.43348852, 0.19999537, -3.221103, 1.3727646, 0
611, 357089712, 0.6458462, 0.24100384, -0.5818488, 0.43157125, 0.10265816, -3.5406036, 1.231616, 0
612, 357106379, 0.6472969, 0.23576479, -0.5840834, 0.4292673, -0.011124687, -3.7760305, 1.1000099, 0
613, 357123046, 0.6497612, 0.2300557, -0.5852753, 0.42701226, -0.26951638, -3.9084442, 0.94360447, 0
614, 357139713, 0.65292174, 0.22412711, -0.58538926, 0.4251845, -0.72659814, -3.5718422, 0.82915974, 0
615, 357156380, 0.6566072, 0.21733212, -0.58491814, 0.42368215, -1.2084268, -2.9590142, 0.8861666, 0
616, 357173047, 0.66063845, 0.20912088, -0.58423555, 0.42248806, -1.2207035, -2.5568275, 1.1822033, 0
617, 357189714, 0.6648293, 0.19893982, -0.5836443, 0.42164746, -1.3982631, -2.1890242, 1.4515238, 0
618, 357206381, 0.66896665, 0.18625788, -0.5832543, 0.42143598, -1.6597426, -1.8324802, 1.6574163, 0
619, 357223048, 0.6730339, 0.17029855, -0.5831611, 0.42184028, -1.8539144, -1.4395918, 1.5906973, 0
620, 357239715, 0.6767128, 0.15111245, -0.5830832, 0.42336842, -1.4923927, -1.5581535, 1.7179804, 0
621, 357256382, 0.6796207, 0.12973645, -0.5823481, 0.42679846, -0.92259264, -1.856777, 2.1181707, 0
622, 357273049, 0.6815883, 0.10672301, -0.58061206, 0.432365, -0.9651678, -1.2346437, 2.105525, 0
623, 357289716, 0.68245596, 0.08085192, -0.5784963, 0.439387, -0.7653383, -0.7806754, 2.2208261, 0
624, 357306383, 0.6820625, 0.052778408, -0.57568, 0.44788384, -0.35014465, -1.006222, 2.4480925, 0
625, 357323050, 0.68021894, 0.023605894, -0.5717455, 0.45809844, -0.050021753, -0.92008877, 2.5595226, 0
626, 357339717, 0.6768281, -0.0062630177, -0.56666315, 0.46985066, 0.14309612, -0.55850255, 2.4145193, 0
627, 357356384, 0.6718625, -0.0367476, -0.56039196, 0.4829215, 0.3631558, -0.1869822, 2.350603, 0
628, 357373051, 0.66523886, -0.06799195, -0.5529902, 0.49702927, 0.7942202, 0.36821344, 2.1503773, 0
629, 357389718, 0.656791, -0.10023662, -0.5448, 0.5116379, 0.7817401, 0.78904355, 1.77637, 0
630, 357406385, 0.6461837, -0.13338844, -0.53608173, 0.52656686, 0.9852322, 0.90463585, 1.3852224, 0
631, 357423052, 0.63321835, -0.16680622, -0.52694213, 0.5417971, 1.0639603, 0.9231151, 1.2934656, 0
632, 357439719, 0.61821324, -0.19938627, -0.5164396, 0.55798715, 1.5448831, 0.9912461, 1.5917683, 0
633, 357456386, 0.6018046, -0.23049393, -0.5039145, 0.57513136, 1.5073267, 1.4796667, 1.4457092, 0
634, 357473053, 0.5833366, -0.26028687, -0.48992896, 0.5932459, 1.1371696, 1.9240599, 0.9000025, 0
635, 357489720, 0.5620739, -0.28959385, -0.4751889, 0.61188734, 1.3257673, 2.080565, 0.34165, 0
636, 357506387, 0.5377707, -0.3180641, -0.4598381, 0.6310221, 1.5734882, 2.0830479, 0.5019312, 0
637, 357523054, 0.5112355, -0.34497827, -0.44273284, 0.6508594, 1.6291296, 2.5147064, 0.7015104, 0
638, 357539721, 0.48339868, -0.3695606, -0.42331803, 0.67123365, 1.231591, 2.5661242, 0.52700424, 0
639, 357556388, 0.45441797, -0.3914844, -0.40162405, 0.692058, 0.80746, 2.4728875, -0.022169113, 0
640, 357573055, 0.4242801, -0.41098517, -0.37823817, 0.7127521, 0.5356003, 2.4247959, -0.69606495, 0
641, 357589722, 0.39304882, -0.42825162, -0.35389566, 0.73271626, 0.31456375, 2.084754, -1.5922451, 0
642, 357606389, 0.3614555, -0.4431383, -0.32895222, 0.7515126, 0.37323323, 2.0080051, -1.6318913, 0
643, 357623056, 0.33102235, -0.45537624, -0.3032718, 0.7688204, -0.036148414, 1.8308738, -1.9391971, 0
644, 357639723, 0.30251446, -0.46535787, -0.2773695, 0.7842163, -0.7677214, 0.9777704, -3.0501657, 0
645, 357656390, 0.27515683, -0.47362047, -0.2532073, 0.7974087, -1.1259234, 0.035195913, -3.5482922, 0
646, 357673057, 0.24933031, -0.47996873, -0.2322728, 0.8084033, -1.0286222, -0.7050409, -3.7508268, 0
647, 357689724, 0.22533897, -0.48476967, -0.21537106, 0.81721365, -1.3903543, -0.8239593, -3.7995048, 0
648, 357706391, 0.20493044, -0.48800036, -0.20178324, 0.8241025, -1.6350963, -1.134276, -3.5487213, 0
649, 357723058, 0.18965065, -0.48966047, -0.19163361, 0.8291826, -1.8329675, -1.3318355, -3.176422, 0
650, 357739725, 0.18022712, -0.49005458, -0.18455933, 0.83264923, -1.9597908, -1.8202019, -3.1433454, 0
651, 357756392, 0.17579238, -0.48941314, -0.18136537, 0.834674, -1.8657101, -2.3185558, -2.9419193, 0
652, 357773059, 0.17548135, -0.48808542, -0.18229663, 0.8353136, -1.9212729, -2.158006, -2.8003702, 0
653, 357789726, 0.17909518, -0.4863554, -0.18624616, 0.83468413, -1.8333381, -1.5144836, -2.5351343, 0
654, 357806393, 0.18714008, -0.48428702, -0.19251448, 0.8326974, -1.6483752, -0.77335024, -2.1687121, 0
655, 357823060, 0.19954616, -0.48181948, -0.20042971, 0.82937413, -1.3140659, -0.52314574, -1.861022, 0
656, 357839727, 0.21521096, -0.47872552, -0.20968662, 0.82494825, -1.017415, -0.6766735, -1.6536846, 0
657, 357856394, 0.23330034, -0.47462642, -0.22042976, 0.81958133, -0.8961916, -0.93206257, -1.399662, 0
658, 357873061, 0.252887, -0.46942946, -0.23341796, 0.81314343, -0.7574967, -0.9810563, -1.3567057, 0
659, 357889728, 0.27354506, -0.46332338, -0.2485108, 0.8054496, -0.6988681, -0.43610206, -1.3569527, 0
660, 357906395, 0.29535022, -0.45656088, -0.26463556, 0.79642373, -0.6971679, 0.29575413, -1.2703009, 0
661, 357923062, 0.3189934, -0.4488514, -0.28025302, 0.78628, -0.73303145, 1.0627595, -0.8401623, 0
662, 357939729, 0.3450557, -0.43890646, -0.29332536, 0.7760541, -0.55345106, 1.1646119, -0.71992016, 0
663, 357956396, 0.37276867, -0.4266291, -0.30437627, 0.76576, -0.21314418, 0.93879443, -0.9715328, 0
664, 357973063, 0.4006725, -0.41248176, -0.31565586, 0.75477415, 0.35132146, 0.39720252, -1.680953, 0
665, 357989730, 0.42677888, -0.3969329, -0.32884216, 0.74308074, -0.19339794, 0.4556829, -2.24156, 0
666, 358006397, 0.45072156, -0.3802242, -0.34345075, 0.7309743, -0.78024995, 1.458463, -1.628767, 0
667, 358023064, 0.47520682, -0.36146876, -0.35541767, 0.7191656, -0.44941494, 2.45878, 0.08447456, 0
668, 358039731, 0.5032533, -0.33881646, -0.3618495, 0.70781827, 1.0225997, 2.317418, 1.1099873, 0
669, 358056398, 0.5345873, -0.31150773, -0.36328325, 0.6965678, 1.613291, 1.5560648, 1.0574188, 0
670, 358073065, 0.56414664, -0.28054076, -0.36494285, 0.68545926, -0.17316253, 1.0568416, -1.623723, 0
671, 358089732, 0.5855691, -0.25193393, -0.37277412, 0.67429936, -2.629142, 1.6711489, -3.510439, 0
672, 358106399, 0.5998461, -0.22867458, -0.38654312, 0.66217756, -1.329167, 2.4855585, -1.6897669, 0
673, 358123066, 0.6133411, -0.20684978, -0.39985174, 0.64895815, 1.3023022, 2.3733892, 1.5967093, 0
674, 358139733, 0.62988293, -0.18182126, -0.40768972, 0.6355939, 2.1810632, 1.6165688, 2.499219, 0
675, 358156400, 0.64702946, -0.1531275, -0.41193527, 0.62307006, 1.1390618, 1.6551623, 0.81988907, 0
676, 358173067, 0.66001177, -0.12591794, -0.41838542, 0.6111341, -1.1832347, 2.4134579, -0.75333214, 0
677, 358189734, 0.6678094, -0.10425416, -0.4286432, 0.59952384, -1.2780039, 2.3910053, -0.24583149, 0
678, 358206401, 0.6736421, -0.08597372, -0.4403843, 0.5872635, 0.40526587, 1.3215091, 1.616705, 0
679, 358223068, 0.6799782, -0.06656248, -0.44976234, 0.57525206, 1.2702936, 0.28282744, 2.339696, 0
680, 358239735, 0.68705815, -0.042938523, -0.45529595, 0.5646373, 1.3839219, -0.6007225, 1.751831, 0
681, 358256402, 0.6937199, -0.015581267, -0.45914763, 0.55470294, 0.66282004, -0.2866873, 0.5232725, 0
682, 358273069, 0.69814867, 0.011316147, -0.46441525, 0.544776, -0.69428533, 0.6264045, 0.0036067963, 0
683, 358289736, 0.69997925, 0.034256432, -0.47269076, 0.53424805, -1.0204602, 1.1030381, -0.06583977, 0
684, 358306403, 0.700459, 0.053054232, -0.48323017, 0.5225258, -0.23419598, 0.6766558, 0.8915472, 0
685, 358323070, 0.7006084, 0.07063829, -0.49327287, 0.510727, 0.43337464, -0.051267754, 1.5566111, 0
686, 358339737, 0.7007896, 0.089551, -0.50132006, 0.49955487, 1.0541729, -0.62048215, 1.4480429, 0
687, 358356404, 0.7007513, 0.11006126, -0.5075029, 0.48915955, 0.9179628, -0.734745, 1.2406368, 0
688, 358373071, 0.70011604, 0.13147007, -0.5123703, 0.47961646, 0.36106864, -0.65618855, 1.1018562, 0
689, 358389738, 0.69898146, 0.1527868, -0.5167249, 0.4701897, -0.2701181, -0.33716008, 0.7808676, 0
690, 358406405, 0.6964385, 0.17322756, -0.52139693, 0.4616415, -0.18645227, -0.043275014, 0.8161316, 0
691, 358423072, 0.6935199, 0.19154735, -0.52619094, 0.45328236, 0.05209819, -0.005951256, 1.1701441, 0
692, 358439739, 0.691368, 0.20717864, -0.53047645, 0.44461706, -0.114503, -0.060528204, 1.3360786, 0
693, 358456406, 0.6895778, 0.22049882, -0.5339613, 0.43674952, -0.5372295, -0.13221171, 1.1935844, 0
694, 358473073, 0.6882164, 0.22999588, -0.5381022, 0.42884496, -0.7494483, -0.4074906, 1.2600594, 0
695, 358489740, 0.6872119, 0.23619008, -0.5426611, 0.42127815, -0.74944204, -0.97509986, 1.5213404, 0
696, 358506407, 0.6865402, 0.23985411, -0.54721206, 0.4143592, -0.6820216, -1.435708, 1.6318207, 0
697, 358523074, 0.68624765, 0.24124065, -0.55147463, 0.40834406, -0.78904724, -1.7748822, 1.6238146, 0
698, 358539741, 0.686274, 0.24044898, -0.55549353, 0.4032883, -0.75245994, -2.165469, 1.5303564, 0
699, 358556408, 0.68644387, 0.23823372, -0.5590195, 0.39942318, -0.68965906, -2.5709152, 1.330884, 0
700, 358573075, 0.6868567, 0.23485579, -0.5619779, 0.39655197, -0.6491795, -2.7665505, 1.2601309, 0
701, 358589742, 0.687586, 0.23054476, -0.5642871, 0.39453346, -0.647838, -2.8583007, 1.2342672, 0
702, 358606409, 0.68874377, 0.22534965, -0.5657998, 0.39334768, -0.68355983, -2.8620028, 1.1186152, 0
703, 358623076, 0.6901471, 0.21944498, -0.56664467, 0.3930101, -0.6792447, -2.8921306, 1.0831738, 0
704, 358639743, 0.6917213, 0.21280982, -0.56682247, 0.39363438, -0.8739723, -2.7169237, 1.103199, 0
705, 358656410, 0.6934111, 0.20492804, -0.566706, 0.3950086, -1.0202714, -2.407431, 1.1536198, 0
706, 358673077, 0.69520384, 0.19534954, -0.566378, 0.39717513, -1.0240036, -2.109226, 1.2834349, 0
707, 358689744, 0.69701153, 0.1837886, -0.565937, 0.4001424, -1.1651355, -1.6601044, 1.2979584, 0
708, 358706411, 0.6987839, 0.169813, -0.56523997, 0.40419117, -0.954711, -1.4311079, 1.4947023, 0
709, 358723078, 0.7004103, 0.15393946, -0.56373304, 0.40979928, -0.49041826, -1.564181, 1.7858362, 0
710, 358739745, 0.7016221, 0.13690704, -0.56115407, 0.41724232, -0.4049505, -1.6380862, 2.0020723, 0
711, 358756412, 0.7022147, 0.11865313, -0.55764204, 0.4264427, -0.3572354, -1.6520756, 2.1155348, 0
712, 358773079, 0.70201606, 0.09928984, -0.55313724, 0.437443, -0.31131554, -1.6509513, 2.3163567, 0
713, 358789746, 0.7015512, 0.07787281, -0.5477035, 0.44920465, -0.47611523, -1.3930097, 2.4406404, 0
714, 358806413, 0.6996461, 0.055153184, -0.5417403, 0.4625721, -0.30717653, -1.1271174, 2.280138, 0
715, 358823080, 0.6963589, 0.030014038, -0.5357944, 0.47656077, -0.34092924, -0.89581335, 2.306818, 0
716, 358839747, 0.69143814, 0.0027736663, -0.5297386, 0.49120748, -0.21607356, -0.6894413, 2.3250713, 0
717, 358856414, 0.6846985, -0.026087027, -0.5233076, 0.5066148, 0.04404904, -0.65303785, 2.3904572, 0
718, 358873081, 0.6759441, -0.0565374, -0.51630986, 0.5228091, 0.10818742, -0.3056709, 2.3916788, 0
719, 358889748, 0.6644049, -0.08942425, -0.5096239, 0.5393095, -0.02002229, 0.30260062, 2.0823317, 0
720, 358906415, 0.6489442, -0.124625385, -0.5038943, 0.55626655, 0.087505326, 0.6196384, 1.5420828, 0
721, 358923082, 0.62905777, -0.16179699, -0.49901006, 0.57367164, 0.8317909, 0.55171376, 1.523447, 0
722, 358939749, 0.6060404, -0.19894572, -0.4929316, 0.59173995, 1.1984999, 0.15598053, 2.0762854, 0
723, 358956416, 0.58217824, -0.2336525, -0.48309666, 0.6108149, 1.3197161, 0.30771577, 2.3112545, 0
724, 358973083, 0.55910873, -0.26459652, -0.46896538, 0.630444, 1.2226999, 0.35500205, 1.689579, 0
725, 358989750, 0.5365015, -0.29207155, -0.45176548, 0.65020806, 0.964504, 0.7767926, 1.2046423, 0
726, 359006417, 0.51417345, -0.31602773, -0.432032, 0.67015123, 0.24933675, 1.2058738, 0.34601402, 0
727, 359023084, 0.4909905, -0.33794978, -0.41173315, 0.6893447, 0.08600533, 1.3007331, -1.311532, 0
728, 359039751, 0.46603552, -0.3589521, -0.39284968, 0.70684916, 0.19455819, 1.2753652, -2.1042418, 0
729, 359056418, 0.4394222, -0.37854287, -0.3751317, 0.72311246, 0.18014552, 1.4417924, -1.9883013, 0
730, 359073085, 0.41280702, -0.3962269, -0.35738796, 0.7381534, 0.19342509, 1.8856988, -1.7034407, 0
731, 359089752, 0.3875109, -0.41190106, -0.339056, 0.7518084, -0.12122728, 2.0574207, -1.9883046, 0
732, 359106419, 0.36276716, -0.4257301, -0.3211593, 0.7642073, 0.028557803, 1.5121999, -2.8934808, 0
733, 359123086, 0.3366838, -0.43852553, -0.305402, 0.7752877, -0.01563026, 1.1297549, -3.133635, 0
734, 359139753, 0.30999324, -0.45052788, -0.2905504, 0.7851824, -0.28721583, 2.066244, -1.9612508, 0
735, 359156420, 0.28677228, -0.46094877, -0.2736694, 0.79397416, -0.60650957, 2.489533, -1.34519, 0
736, 359173087, 0.26718724, -0.46986628, -0.25555405, 0.80158025, -0.9369898, 1.7181388, -2.070664, 0
737, 359189754, 0.24887607, -0.47743806, -0.23836029, 0.80826986, -1.3451821, 0.36232692, -2.8246207, 0
738, 359206421, 0.23012602, -0.4841122, -0.22441445, 0.81382895, -1.6045848, -0.12552667, -2.8970456, 0
739, 359223088, 0.21297579, -0.48965135, -0.21290714, 0.81826353, -1.7063887, 0.3980406, -2.3754086, 0
740, 359239755, 0.19977072, -0.4937088, -0.20268789, 0.82174385, -1.9045051, 0.6480398, -2.0127301, 0
741, 359256422, 0.19111717, -0.49620238, -0.19369748, 0.8244639, -1.9237584, -0.09052755, -2.4068017, 0
742, 359273089, 0.18553045, -0.49727705, -0.18791804, 0.82642776, -1.7903258, -0.9193416, -2.5748048, 0
743, 359289756, 0.1822157, -0.4970399, -0.18580969, 0.8277836, -1.825533, -1.0192244, -2.5511794, 0
744, 359306423, 0.18183552, -0.49563906, -0.18660977, 0.82852674, -1.8630601, -0.572751, -2.2940812, 0
745, 359323090, 0.18556613, -0.49322945, -0.18932539, 0.82852143, -1.9356046, -0.3404165, -2.2416987, 0
746, 359339757, 0.19355157, -0.48993784, -0.1938224, 0.8276072, -1.7773716, -0.5059477, -2.1881976, 0
747, 359356424, 0.20500442, -0.48577026, -0.2005819, 0.82569337, -1.4959183, -0.7916088, -2.2130451, 0
748, 359373091, 0.2192984, -0.48066515, -0.20970714, 0.8227359, -1.3484713, -0.6935174, -2.1040664, 0
749, 359389758, 0.23645978, -0.47445604, -0.22063014, 0.8187202, -1.2165158, -0.38766333, -1.92416, 0
750, 359406425, 0.25663054, -0.46697962, -0.23302574, 0.8134935, -0.97815984, -0.22876619, -1.8312492, 0
751, 359423092, 0.2794354, -0.45806685, -0.24677536, 0.8069662, -0.81392694, -0.2924419, -1.8761182, 0
752, 359439759, 0.30449834, -0.44768232, -0.26183033, 0.7989419, -0.6648315, -0.38341647, -1.9358759, 0
753, 359456426, 0.33104604, -0.4358493, -0.27860364, 0.7891933, -0.3391679, -0.29359946, -1.963654, 0
754, 359473093, 0.359231, -0.42212337, -0.29566666, 0.77804136, -0.018168977, 0.19675432, -1.6772108, 0
755, 359489760, 0.38948017, -0.4063647, -0.31170276, 0.76551706, 0.5350774, 0.8345558, -1.1569424, 0
756, 359506427, 0.42127842, -0.38799134, -0.32519835, 0.7524863, 0.19209318, 0.8875626, -0.88624954, 0
757, 359523094, 0.4534098, -0.36599773, -0.33520377, 0.7403419, 0.023364704, 0.5658719, -0.8764963, 0
758, 359539761, 0.48472974, -0.3411652, -0.34375608, 0.72833866, 0.17113861, 0.27028874, -0.5898342, 0
759, 359556428, 0.51451933, -0.31453046, -0.35193834, 0.71587837, 0.23381154, 0.60371083, -0.2794447, 0
760, 359573095, 0.5415666, -0.28666064, -0.36041978, 0.7033, 0.3210855, 0.6544028, -0.29171658, 0
761, 359589762, 0.5640309, -0.25811476, -0.37107465, 0.69105095, -0.6716541, 0.29969713, -1.6721144, 0
762, 359606429, 0.58139634, -0.23053902, -0.3846628, 0.6788716, -0.76697284, 0.72449315, -2.408132, 0
763, 359623096, 0.5954549, -0.2051388, -0.40024358, 0.66570187, 0.76319104, 1.412928, -0.57956123, 0
764, 359639763, 0.6090118, -0.18083484, -0.41463533, 0.65152365, 2.0850534, 1.6824461, 1.8784161, 0
765, 359656430, 0.6230456, -0.15523052, -0.42498174, 0.6380519, 1.6815541, 1.3738313, 2.4341373, 0
766, 359673097, 0.6356394, -0.1293216, -0.43328544, 0.62570316, -0.16547647, 1.1908575, 1.021308, 0
767, 359689764, 0.64548993, -0.10601932, -0.4426032, 0.61335737, -0.5605021, 0.86327857, 0.2850294, 0
768, 359706431, 0.65375423, -0.084407225, -0.45250556, 0.60060114, 0.08349192, 0.30554226, 0.60423946, 0
769, 359723098, 0.6613951, -0.06304826, -0.4619559, 0.5875203, 0.869087, 0.1310776, 1.3876657, 0
770, 359739765, 0.66806555, -0.042633384, -0.4710642, 0.57443136, 0.33055264, 0.7304066, 1.6975594, 0
771, 359756432, 0.6733086, -0.023873257, -0.48020452, 0.56168604, -0.82664055, 0.9824139, 1.1831274, 0
772, 359773099, 0.67658705, -0.008301343, -0.49064147, 0.5490301, -0.8420321, 0.66665757, 1.2962408, 0
773, 359789766, 0.6789022, 0.004844796, -0.5011516, 0.5365795, -0.14462182, 0.25786304, 1.7361822, 0
774, 359806433, 0.68153715, 0.018071637, -0.5095608, 0.52491, 0.5553197, -0.22851555, 2.2618208, 0
775, 359823100, 0.68448246, 0.032799274, -0.515523, 0.5144377, 0.45816356, -0.6567702, 1.8715849, 0
776, 359839767, 0.68732524, 0.048788883, -0.5199928, 0.50479007, -0.14807868, -0.6914226, 1.244894, 0
777, 359856434, 0.6897558, 0.06526147, -0.52405626, 0.49532306, -0.679019, -0.54192346, 0.8775625, 0
778, 359873101, 0.6916072, 0.08149342, -0.52847654, 0.48554385, -0.9644588, -0.36981356, 0.64708424, 0
779, 359889768, 0.6929134, 0.096627384, -0.53357875, 0.4752157, -1.1113775, -0.032007556, 0.71637726, 0
780, 359906435, 0.69381624, 0.110668935, -0.5390064, 0.46459168, -0.98590267, 0.2172247, 0.8795204, 0
781, 359923102, 0.694981, 0.123137236, -0.54463744, 0.4530018, -0.7370599, 0.4406026, 1.0016174, 0
782, 359939769, 0.6959878, 0.134237, -0.55039155, 0.4411945, -0.7167439, 0.5256358, 1.1111622, 0
783, 359956436, 0.6965643, 0.1443047, -0.556061, 0.4298519, -0.73040146, 0.3216871, 1.1958628, 0
784, 359973103, 0.69685346, 0.15314241, -0.56155574, 0.41904616, -0.85942876, 0.112410925, 1.1922274, 0
785, 359989770, 0.6974095, 0.15970246, -0.567134, 0.4080147, -0.7899654, -0.03900681, 1.2104435, 0
786, 360006437, 0.6976954, 0.1646351, -0.57246274, 0.39800134, -0.66547364, -0.40365356, 1.3706894, 0
787, 360023104, 0.6977476, 0.1690528, -0.5767771, 0.38974324, -0.575836, -0.959909, 1.284771, 0
788, 360039771, 0.6972664, 0.17377779, -0.58012134, 0.38351303, -0.69430095, -1.5288649, 1.0496311, 0
789, 360056438, 0.6961902, 0.17885643, -0.5827339, 0.37914723, -0.4687326, -1.6470754, 0.91047287, 0
790, 360073105, 0.6950548, 0.18344153, -0.58473027, 0.37595296, -0.30661687, -1.666686, 1.0305595, 0
791, 360089772, 0.69424343, 0.1870215, -0.58628947, 0.37325045, -0.289038, -1.8958955, 0.96428204, 0
792, 360106439, 0.6938757, 0.18905523, -0.58789116, 0.37037942, -0.5681297, -2.1052547, 0.8305855, 0
793, 360123106, 0.6940344, 0.18934041, -0.58972996, 0.36699766, -0.59266293, -2.386499, 0.71829414, 0
794, 360139773, 0.69471323, 0.1878629, -0.5917802, 0.3631517, -0.5345504, -2.709702, 0.78811073, 0
795, 360156440, 0.69574517, 0.18515334, -0.59372586, 0.3593722, -0.46704417, -2.8793461, 0.7798624, 0
796, 360173107, 0.69708633, 0.18153384, -0.59511787, 0.35630465, -0.524044, -2.7720957, 0.84839344, 0
797, 360189774, 0.69869804, 0.17643586, -0.5962585, 0.35379308, -0.6505859, -2.6920679, 0.79689884, 0
798, 360206441, 0.70032763, 0.16930346, -0.59749174, 0.3519706, -0.7297305, -2.395111, 0.9165287, 0
799, 360223108, 0.7019146, 0.15966931, -0.59879154, 0.35110155, -0.8419724, -2.0309937, 1.0423889, 0
800, 360239775, 0.70346457, 0.14733802, -0.59982485, 0.35162687, -0.7294028, -2.0184655, 1.2087755, 0
801, 360256442, 0.70476377, 0.13284527, -0.600311, 0.35396174, -0.5611874, -2.1033154, 1.4531612, 0
802, 360273109, 0.70562714, 0.11623441, -0.60023135, 0.3581961, -0.56329197, -2.128702, 1.519393, 0
803, 360289776, 0.70579314, 0.09765641, -0.5995664, 0.36447424, -0.3678268, -2.175076, 1.7137318, 0
804, 360306443, 0.7051265, 0.07763157, -0.598213, 0.37271076, -0.39556116, -2.1180875, 1.8094769, 0
805, 360323110, 0.70381284, 0.05544298, -0.5963003, 0.3821015, -0.3627584, -1.8226949, 1.8521576, 0
806, 360339777, 0.7010662, 0.031942878, -0.59386337, 0.39346433, -0.26563665, -1.8924227, 2.162653, 0
807, 360356444, 0.697128, 0.007319742, -0.5905377, 0.40648046, -0.19240844, -1.8991797, 2.3782196, 0
808, 360373111, 0.6919509, -0.017646499, -0.5861437, 0.421106, -0.1136246, -1.739103, 2.4281588, 0
809, 360389778, 0.6855223, -0.043047067, -0.58073086, 0.43698958, -0.032830477, -1.4399645, 2.5691957, 0
810, 360406445, 0.67790145, -0.06912602, -0.5742126, 0.45382053, -0.092453, -0.7867926, 2.5212393, 0
811, 360423112, 0.6686917, -0.09646195, -0.5670324, 0.47119296, -0.22269222, -0.1787674, 2.1987524, 0
812, 360439779, 0.65750974, -0.12487066, -0.55931735, 0.48913634, -0.13144797, -0.16083819, 2.281395, 0
813, 360456446, 0.64452815, -0.15336825, -0.55066293, 0.50777364, 0.20461851, -0.22568819, 2.5081768, 0
814, 360473113, 0.630337, -0.18109971, -0.5406543, 0.5268521, 0.42427766, 0.18274274, 2.416996, 0
815, 360489780, 0.61506176, -0.20801647, -0.52923477, 0.54620576, 0.32492077, 0.59000826, 2.0071077, 0
816, 360506447, 0.59854674, -0.23405541, -0.51678735, 0.56559074, 0.24590695, 0.8063157, 1.4391947, 0
817, 360523114, 0.58066887, -0.25926095, -0.50366986, 0.58474445, 0.27845535, 1.1013886, 0.95931816, 0
818, 360539781, 0.5614338, -0.28354272, -0.48990273, 0.6036498, 0.32751667, 1.3443435, 0.9527321, 0
819, 360556448, 0.5412833, -0.30671546, -0.47502175, 0.6223298, 0.40022072, 1.8749529, 0.65645313, 0
820, 360573115, 0.52015406, -0.32878736, -0.45916387, 0.64071, 0.22811061, 1.8685157, 0.21853352, 0
821, 360589782, 0.49789664, -0.3496736, -0.44243586, 0.6588473, 0.28388202, 1.8453623, 0.10633659, 0
822, 360606449, 0.47548842, -0.36847857, -0.42426848, 0.67685485, 0.09339243, 1.6340588, -0.2208643, 0
823, 360623116, 0.45316082, -0.3857705, -0.40546504, 0.69384915, 0.33518025, 1.9040005, -0.7080593, 0
824, 360639783, 0.43111092, -0.40160617, -0.3864035, 0.7096127, 0.48343694, 2.2278626, -1.1942825, 0
825, 360656450, 0.40832347, -0.41608074, -0.36776903, 0.7244977, 0.1631858, 1.8828439, -2.0310245, 0
826, 360673117, 0.3832275, -0.43001175, -0.35072348, 0.7383912, 0.06194427, 1.6737434, -2.176097, 0
827, 360689784, 0.35643786, -0.44309652, -0.33429313, 0.75157684, 0.034239393, 1.8871087, -1.7264433, 0
828, 360706451, 0.32943037, -0.4547473, -0.31706053, 0.7643005, -0.14418317, 1.9624809, -1.5622072, 0
829, 360723118, 0.30332097, -0.46495602, -0.299003, 0.7761519, -0.30199048, 2.1127887, -1.8112478, 0
830, 360739785, 0.27918655, -0.4738413, -0.2794674, 0.78703827, -0.6829277, 1.8892621, -2.1716256, 0
831, 360756452, 0.25713873, -0.4816401, -0.25939757, 0.7966288, -0.88384664, 1.2710434, -2.5518208, 0
832, 360773119, 0.23733133, -0.4884115, -0.24000384, 0.80469155, -1.2177118, 0.4336214, -2.7019014, 0
833, 360789786, 0.21968047, -0.49376535, -0.22255339, 0.81142366, -1.3830289, -0.45563042, -2.7784, 0
834, 360806453, 0.20400015, -0.49763304, -0.20842274, 0.81688887, -1.5379598, -1.0283538, -2.8551445, 0
835, 360823120, 0.19049324, -0.5000775, -0.1978949, 0.821264, -1.5833707, -1.2587675, -2.8216577, 0
836, 360839787, 0.17973015, -0.50113744, -0.19075479, 0.8247262, -1.6205528, -1.1733036, -2.562663, 0
837, 360856454, 0.1725672, -0.50108063, -0.1864975, 0.8272604, -1.5888419, -0.96689045, -2.4460592, 0
838, 360873121, 0.16960248, -0.5002047, -0.18449375, 0.8288512, -1.7587799, -0.9627143, -2.3861876, 0
839, 360889788, 0.17049448, -0.4986792, -0.18483372, 0.8295114, -1.7620133, -1.0734956, -2.3130145, 0
840, 360906455, 0.17511648, -0.4964824, -0.18727039, 0.82931983, -1.690004, -1.0315386, -2.1962605, 0
841, 360923122, 0.18345821, -0.49357876, -0.19172591, 0.8282309, -1.5081617, -0.9756736, -2.105269, 0
842, 360939789, 0.1952611, -0.48988608, -0.19828345, 0.82617825, -1.3822542, -0.8897457, -1.9561772, 0
843, 360956456, 0.21024221, -0.4851815, -0.20674406, 0.8231989, -1.230148, -0.7021963, -1.676117, 0
844, 360973123, 0.22854064, -0.47928718, -0.2164685, 0.8192658, -1.0986168, -0.2652964, -1.5472088, 0
845, 360989790, 0.25074458, -0.47185785, -0.2263958, 0.8143859, -1.1246082, -0.052647583, -1.4148264, 0
846, 361006457, 0.27706152, -0.46192914, -0.23533948, 0.8089968, -0.79261285, -0.051153734, -1.3051128, 0
847, 361023124, 0.30637115, -0.44899648, -0.24416079, 0.80307317, -0.6959893, 0.08041013, -1.2571049, 0
848, 361039791, 0.33768696, -0.43340006, -0.2531552, 0.79627043, -0.56187385, -0.18785414, -1.2330132, 0
849, 361056458, 0.36969134, -0.4150012, -0.26267684, 0.78873634, -0.54870033, -0.3483483, -1.3719769, 0
850, 361073125, 0.40121034, -0.39407954, -0.2722238, 0.7807866, -0.74072737, 0.0072405906, -1.3310928, 0
851, 361089792, 0.43126866, -0.37073925, -0.28174698, 0.7727746, -0.6830064, 0.33281526, -1.4475012, 0
852, 361106459, 0.45935825, -0.3467484, -0.29173374, 0.7639693, -0.42542127, 0.95656157, -1.2444134, 0
853, 361123126, 0.48630846, -0.3221421, -0.3015244, 0.75419736, -0.005629621, 1.6022344, -1.0778494, 0
854, 361139793, 0.51077604, -0.29701456, -0.31169793, 0.7441348, -0.42975932, 1.4852719, -1.1947422, 0
855, 361156460, 0.53131634, -0.27257228, -0.32371718, 0.733905, -0.5467002, 1.5304258, -1.390461, 0
856, 361173127, 0.5490438, -0.2491441, -0.33659232, 0.7233159, 0.007754, 1.924029, -1.0653896, 0
857, 361189794, 0.56561095, -0.2264262, -0.34958884, 0.7117619, 0.52186584, 2.3274558, -0.29593563, 0
858, 361206461, 0.5817073, -0.20413375, -0.36137837, 0.6995382, 0.66102546, 2.571902, 0.0015907288, 0
859, 361223128, 0.59653425, -0.1823482, -0.3720661, 0.68736076, 0.099695496, 2.2238433, 0.16089249, 0
860, 361239795, 0.6096647, -0.15988526, -0.38168326, 0.6760664, 0.24613224, 1.5664905, -0.22927952, 0
861, 361256462, 0.621181, -0.1369532, -0.39197293, 0.6646334, 0.3299009, 1.0185906, -0.31246376, 0
862, 361273129, 0.63115764, -0.11426324, -0.40353593, 0.6524913, 0.4242667, 0.9381161, 0.33269882, 0
863, 361289796, 0.63949615, -0.09207244, -0.4162108, 0.6397951, -0.27091178, 1.151663, 0.33365345, 0
864, 361306463, 0.64536214, -0.07118225, -0.4304052, 0.62705207, -0.9500761, 1.3488886, -0.15381813, 0
865, 361323130, 0.6489557, -0.05144544, -0.44554412, 0.61457497, -0.051885627, 0.8639972, 0.68927, 0
866, 361339797, 0.6516511, -0.030531295, -0.45999473, 0.6023501, 0.78741914, 0.34491512, 1.2926531, 0
867, 361356464, 0.6544517, -0.0072789514, -0.47165203, 0.59091985, 1.506526, 0.1274541, 1.9608688, 0
868, 361373131, 0.65733397, 0.018534122, -0.4800908, 0.58058906, 1.124491, -0.057912327, 1.7384167, 0
869, 361389798, 0.6593374, 0.04502271, -0.48719782, 0.57086545, 0.25034234, 0.4059648, 0.7773657, 0
870, 361406465, 0.6597812, 0.069462225, -0.49561197, 0.56056625, -0.6944266, 0.71802205, 0.07313156, 0
871, 361423132, 0.6588193, 0.09099591, -0.50600296, 0.5492177, -0.47104952, 0.5357011, 0.42476845, 0
872, 361439799, 0.6571329, 0.11122225, -0.5166219, 0.53750324, 0.4180944, 0.036158472, 1.5163403, 0
873, 361456466, 0.6552503, 0.13229664, -0.5248668, 0.5269359, 0.9102306, -0.34959844, 1.9966688, 0
874, 361473133, 0.65275604, 0.15496679, -0.53036577, 0.5182751, 0.71985877, -0.3763252, 1.8611517, 0
875, 361489800, 0.6500344, 0.17765729, -0.5342927, 0.51032025, 0.28668353, -0.17057364, 1.4465904, 0
876, 361506467, 0.6473611, 0.1986619, -0.5380793, 0.501926, -0.11804435, 0.05372268, 1.1997032, 0
877, 361523134, 0.6445469, 0.2172712, -0.5425572, 0.49293622, -0.46845946, -0.05291088, 1.0706425, 0
878, 361539801, 0.64164746, 0.23335055, -0.5480026, 0.48325077, -0.5873353, -0.4735151, 1.1380978, 0
879, 361556468, 0.63881105, 0.24711579, -0.5538653, 0.47338092, -0.43479708, -0.94019496, 1.4190445, 0
880, 361573135, 0.63609934, 0.25909647, -0.55934244, 0.4640957, -0.3682948, -1.2269232, 1.6471319, 0
881, 361589802, 0.6335708, 0.26939157, -0.5638358, 0.45618787, -0.6216235, -1.270301, 1.8053951, 0
882, 361606469, 0.63135177, 0.27711007, -0.5679744, 0.4494577, -1.2523744, -1.2278234, 1.636796, 0
883, 361623136, 0.62966496, 0.28120664, -0.5727284, 0.4432033, -1.5766658, -1.3135481, 1.5280256, 0
884, 361639803, 0.6286071, 0.2815942, -0.5783655, 0.43709636, -1.5552577, -1.7672569, 1.5440693, 0
885, 361656470, 0.62810993, 0.27888516, -0.5843993, 0.43148652, -1.3912908, -2.3949761, 1.633851, 0
886, 361673137, 0.6280719, 0.27414793, -0.5900077, 0.42692116, -1.2511804, -2.9794004, 1.5236053, 0
887, 361689804, 0.62838894, 0.26819322, -0.59483355, 0.42352656, -1.1018804, -3.5011828, 1.4136248, 0
888, 361706471, 0.6290277, 0.261817, -0.59859157, 0.42126736, -0.9609269, -3.8593633, 1.2516375, 0
889, 361723138, 0.6300291, 0.25543395, -0.6010691, 0.4201607, -0.9616953, -3.8461053, 1.1172218, 0
890, 361739805, 0.6316284, 0.24881135, -0.60237867, 0.4198577, -1.1714712, -3.6108065, 0.99966335, 0
891, 361756472, 0.6340478, 0.24146463, -0.6028453, 0.419831, -1.2667208, -3.341521, 0.9241438, 0
892, 361773139, 0.63719124, 0.2331071, -0.6029161, 0.41969344, -1.3142122, -3.0684202, 0.9028225, 0
893, 361789806, 0.6409214, 0.22322579, -0.6028814, 0.41943577, -1.4345428, -2.7758446, 1.0818624, 0
894, 361806473, 0.64512897, 0.21133126, -0.60274976, 0.41933575, -1.5826125, -2.2830448, 1.2774191, 0
895, 361823140, 0.64957505, 0.19649328, -0.6031877, 0.41905755, -1.9603901, -1.6364987, 1.2619743, 0
896, 361839807, 0.65397567, 0.17800938, -0.60415286, 0.41908193, -1.485152, -1.4541166, 1.5516825, 0
897, 361856474, 0.6577679, 0.15692876, -0.60489774, 0.4204943, -0.8783049, -1.7211663, 1.9331331, 0
898, 361873141, 0.66072017, 0.13431004, -0.6043853, 0.42441747, -0.5795432, -1.7476728, 2.1947317, 0
899, 361889808, 0.66267323, 0.110184826, -0.60262644, 0.4307746, -0.45015374, -1.7324613, 2.2860765, 0
900, 361906475, 0.66332257, 0.08474782, -0.59980726, 0.43937963, -0.31814745, -1.7352209, 2.4339333, 0
901, 361923142, 0.66275537, 0.05817644, -0.595884, 0.44977227, -0.3017738, -1.5902933, 2.5161123, 0
902, 361939809, 0.6610148, 0.030754948, -0.5907644, 0.4616416, -0.16469105, -1.1026772, 2.3402662, 0
903, 361956476, 0.6579774, 0.0022769948, -0.58481884, 0.474394, -0.02079788, -0.8537967, 2.0990944, 0
904, 361973143, 0.6534251, -0.026731784, -0.5781273, 0.48794657, 0.19103429, -0.7614994, 2.1115923, 0
905, 361989810, 0.64740026, -0.0559755, -0.5704505, 0.5023228, 0.30442688, -0.35016233, 1.9657259, 0
906, 362006477, 0.63975394, -0.085433945, -0.56199074, 0.5172857, 0.1981429, -0.151848, 1.9036484, 0
907, 362023144, 0.6305217, -0.11478512, -0.5526355, 0.5327878, 0.3547602, 0.23254976, 1.8670645, 0
908, 362039811, 0.6197346, -0.14401563, -0.542399, 0.5486293, 0.47856224, 0.7154148, 1.6729765, 0
909, 362056478, 0.6071331, -0.17296746, -0.531413, 0.56486607, 0.5129638, 1.3126872, 1.1613827, 0
910, 362073145, 0.59216934, -0.20208219, -0.52009284, 0.58138084, 0.70813954, 1.4928068, 1.1126623, 0
911, 362089812, 0.5751018, -0.23089088, -0.508315, 0.5979677, 0.8610638, 1.5110662, 0.86832714, 0
912, 362106479, 0.55606794, -0.2588127, -0.49585786, 0.6147613, 0.8495267, 1.6635212, 0.41718388, 0
913, 362123146, 0.5349409, -0.28600654, -0.4828801, 0.63155955, 0.9801327, 1.9498434, -0.11728001, 0
914, 362139813, 0.51177883, -0.31211174, -0.46946636, 0.64828384, 0.9292328, 1.9936318, 0.030486107, 0
915, 362156480, 0.48771656, -0.3363925, -0.45398402, 0.6654873, 0.7499897, 2.0638092, 0.199749, 0
916, 362173147, 0.4641726, -0.35821792, -0.43601698, 0.68272614, 0.49772313, 1.8364896, 0.020605087, 0
917, 362189814, 0.4415507, -0.37752923, -0.41612393, 0.6995339, 0.30805808, 1.9852779, -0.3523674, 0
918, 362206481, 0.41908342, -0.39433503, -0.39528385, 0.715976, -0.124557845, 1.7950631, -1.2484999, 0
919, 362223148, 0.39537555, -0.4092172, -0.37474582, 0.7319747, -0.443712, 1.3528522, -2.2758389, 0
920, 362239815, 0.3697913, -0.42297608, -0.35588002, 0.74679124, -0.15630753, 1.355346, -2.2919059, 0
921, 362256482, 0.3440459, -0.4353161, -0.3374268, 0.76044554, -0.15778707, 1.5943624, -1.872509, 0
922, 362273149, 0.31947613, -0.44597942, -0.31830764, 0.7731232, -0.27630985, 1.9221475, -1.6486654, 0
923, 362289816, 0.29675263, -0.45506656, -0.2982179, 0.784806, -0.5822509, 1.5736258, -2.1419563, 0
924, 362306483, 0.27515996, -0.46314552, -0.278543, 0.79510945, -0.9041699, 0.7460222, -2.6023202, 0
925, 362323150, 0.25417238, -0.47038746, -0.26042795, 0.80393493, -0.93185866, 0.2858604, -2.5735946, 0
926, 362339817, 0.23472126, -0.47647613, -0.24378523, 0.81144774, -1.0850952, -0.116127275, -2.4308858, 0
927, 362356484, 0.21759574, -0.48124048, -0.22893596, 0.8177102, -1.211477, -0.5163901, -2.38839, 0
928, 362373151, 0.20356348, -0.48464978, -0.21642771, 0.8227014, -1.3874466, -1.1114948, -2.3935657, 0
929, 362389818, 0.19265063, -0.48667917, -0.20699231, 0.82655036, -1.4138047, -1.6633154, -2.4359388, 0
930, 362406485, 0.18488415, -0.48726976, -0.20117459, 0.8294075, -1.484344, -1.8917917, -2.3137093, 0
931, 362423152, 0.18062891, -0.48653105, -0.19863266, 0.8313891, -1.6227813, -1.7287636, -2.2331872, 0
932, 362439819, 0.18055445, -0.4847136, -0.19853428, 0.8324895, -1.7645669, -1.4858809, -2.0931869, 0
933, 362456486, 0.18515667, -0.48203003, -0.20021549, 0.8326343, -1.8653238, -1.3091838, -2.0351944, 0
934, 362473153, 0.19432138, -0.4784407, -0.20403102, 0.8316893, -1.6771332, -1.2939856, -1.8881192, 0
935, 362489820, 0.2070946, -0.47373813, -0.21072954, 0.8296259, -1.388657, -1.4050266, -1.9009256, 0
936, 362506487, 0.22201881, -0.46802184, -0.22046293, 0.82647526, -1.1100078, -1.2256119, -2.1235514, 0
937, 362523154, 0.2381717, -0.46142045, -0.23302448, 0.8222329, -0.9670365, -0.6036131, -2.0162716, 0
938, 362539821, 0.25599182, -0.45367262, -0.24675047, 0.8171694, -0.9439733, 0.016425297, -1.3555574, 0
939, 362556488, 0.27652395, -0.444212, -0.25972322, 0.81163794, -1.1026853, 0.4572643, -0.6849861, 0
940, 362573155, 0.30034167, -0.4327201, -0.27067068, 0.8057839, -1.2006152, 0.36235294, -0.6218586, 0
941, 362589822, 0.32644808, -0.41959605, -0.28061587, 0.7991418, -1.1413965, 0.20429084, -1.1669979, 0
942, 362606489, 0.3541003, -0.40507162, -0.2895867, 0.79162586, -0.81972575, 0.42931944, -1.3686228, 0
943, 362623156, 0.38218555, -0.38864195, -0.29794958, 0.7836579, 0.1425907, 0.5217949, -1.3319635, 0
944, 362639823, 0.40977615, -0.37080634, -0.30656314, 0.7749887, 0.35470298, 0.6191138, -1.1109266, 0
945, 362656490, 0.43572304, -0.3516319, -0.31562725, 0.76608217, -0.25324455, 0.6276387, -1.2192097, 0
946, 362673157, 0.4598148, -0.33140022, -0.3247609, 0.7571504, -0.6040281, 0.6321153, -1.3871555, 0
947, 362689824, 0.48300728, -0.31010342, -0.33367467, 0.747799, -0.39465436, 0.85112906, -1.1954851, 0
948, 362706491, 0.50589013, -0.28867742, -0.34247398, 0.73719335, 0.77421737, 1.3675239, -0.6311836, 0
949, 362723158, 0.5289543, -0.26666144, -0.3504639, 0.72544885, 0.6914605, 1.4725481, -0.14508629, 0
950, 362739825, 0.54991823, -0.24336794, -0.3577346, 0.7144158, -0.109418646, 1.4722264, -0.6277542, 0
951, 362756492, 0.5675658, -0.21962698, -0.36525247, 0.70443296, -0.66054314, 1.1220961, -1.059535, 0
952, 362773159, 0.58278483, -0.19648463, -0.37438396, 0.6939699, 0.42373297, 0.7745492, -0.81136894, 0
953, 362789826, 0.5973121, -0.17402527, -0.38465038, 0.68189406, 1.243388, 1.2364844, 0.24306011, 0
954, 362806493, 0.61111915, -0.15128773, -0.39451328, 0.6693329, 0.024921024, 1.2819606, 0.015173912, 0
955, 362823160, 0.6223397, -0.12885644, -0.40427163, 0.6577656, -0.2628586, 1.6250747, -0.445549, 0
956, 362839827, 0.6308421, -0.10784134, -0.41556534, 0.6463094, 0.17342103, 1.6618209, -0.066420555, 0
957, 362856494, 0.63802993, -0.087435186, -0.42720798, 0.6346403, 1.2301625, 1.3460684, 0.8382826, 0
958, 362873161, 0.64505196, -0.065875165, -0.43732756, 0.6231495, 1.5221976, 0.9865607, 1.1810579, 0
959, 362889828, 0.6512202, -0.044220656, -0.44694704, 0.61171645, 0.06761759, 0.8213719, 0.59821224, 0
960, 362906495, 0.6545197, -0.025412334, -0.45927998, 0.6000184, -1.4327476, 1.1275955, -0.28242302, 0
961, 362923162, 0.655025, -0.010243641, -0.47434792, 0.5880759, -0.7353684, 1.2352371, 0.22295761, 0
962, 362939829, 0.6546335, 0.004800501, -0.48841703, 0.57696, 0.72877383, 0.49961805, 1.4830694, 0
963, 362956496, 0.6544786, 0.02154144, -0.49975216, 0.5669597, 1.298346, -0.18332389, 1.7821712, 0
964, 362973163, 0.6549015, 0.04063742, -0.50754833, 0.5584347, 1.1469592, -0.6123767, 1.7160492, 0
965, 362989830, 0.6558958, 0.061857425, -0.51253647, 0.5507111, 0.4240859, -0.9552231, 1.372817, 0
966, 363006497, 0.656997, 0.08375095, -0.51637846, 0.54285926, -0.3919894, -1.1065618, 0.84456635, 0
967, 363023164, 0.65764594, 0.10414526, -0.52157646, 0.5334938, -1.2871106, -0.98701924, 0.4316578, 0
968, 363039831, 0.65775543, 0.1217844, -0.5291757, 0.5220167, -1.4616572, -0.5315303, 0.38391018, 0
969, 363056498, 0.65740246, 0.13713248, -0.5384017, 0.5090601, -0.66088176, -0.30677366, 1.0310154, 0
970, 363073165, 0.6574919, 0.15108073, -0.54731923, 0.4953007, -0.32298562, -0.42868057, 1.8633022, 0
971, 363089832, 0.65839547, 0.16453817, -0.55422425, 0.48195457, -0.39368275, -0.68016666, 1.9585285, 0
972, 363106499, 0.6601113, 0.17639765, -0.559838, 0.46874347, -0.6997766, -0.90187925, 1.8294954, 0
973, 363123166, 0.6620183, 0.1865601, -0.5647034, 0.45611355, -0.9743131, -0.99693024, 1.8781061, 0
974, 363139833, 0.66397786, 0.19501448, -0.5692498, 0.44391388, -1.3361685, -1.0677698, 1.84371, 0
975, 363156500, 0.6660521, 0.20099954, -0.57384217, 0.43206578, -1.7035568, -1.0379505, 1.7454901, 0
976, 363173167, 0.66831994, 0.20356846, -0.57876885, 0.4206387, -1.880613, -1.0309477, 1.7028484, 0
977, 363189834, 0.67072594, 0.20293708, -0.5836778, 0.4102016, -1.7937015, -1.1777626, 1.7680235, 0
978, 363206501, 0.673146, 0.1996076, -0.5882605, 0.401227, -1.4607815, -1.5581772, 1.7253561, 0
979, 363223168, 0.6752847, 0.19460513, -0.5920642, 0.39443797, -1.1550372, -2.1665294, 1.6324015, 0
980, 363239835, 0.67704296, 0.18899593, -0.5947033, 0.3901582, -0.90001696, -2.6641524, 1.5903234, 0
981, 363256502, 0.67858654, 0.18292083, -0.5963591, 0.38783804, -0.9681419, -2.7891479, 1.5001221, 0
982, 363273169, 0.68004405, 0.17565264, -0.59755665, 0.38680002, -1.2817243, -2.602857, 1.3159428, 0
983, 363289836, 0.6816476, 0.16670482, -0.5984998, 0.38647908, -1.188063, -2.576031, 1.2313223, 0
984, 363306503, 0.68331057, 0.15581183, -0.5994186, 0.3866635, -1.1396152, -2.3316903, 1.1408281, 0
985, 363323170, 0.6850461, 0.14301954, -0.6000828, 0.38750502, -0.94643164, -1.9735603, 1.1838703, 0
986, 363339837, 0.6866586, 0.12818523, -0.6004983, 0.3891945, -0.7568256, -1.8563449, 1.264513, 0
987, 363356504, 0.68801016, 0.11120937, -0.60039085, 0.39218286, -0.5161509, -1.9045756, 1.455101, 0
988, 363373171, 0.6887124, 0.0926796, -0.59972054, 0.39676592, -0.37516204, -1.9738451, 1.5164108, 0
989, 363389838, 0.68887526, 0.07231175, -0.59834814, 0.4027451, -0.26613376, -1.8898507, 1.6742916, 0
990, 363406505, 0.68793666, 0.050860923, -0.59613526, 0.41083008, -0.22182141, -1.7858329, 1.879529, 0
991, 363423172, 0.6860146, 0.028106902, -0.5931791, 0.42039797, -0.17004016, -1.6368386, 2.084115, 0
992, 363439839, 0.6830722, 0.004279116, -0.58938634, 0.4313002, -0.07416115, -1.482224, 1.9265337, 0
993, 363456506, 0.678973, -0.020458274, -0.58483875, 0.4433317, 0.028020926, -1.2808021, 1.7997952, 0
994, 363473173, 0.6735093, -0.046136774, -0.57961136, 0.4564093, 0.25415838, -1.1148337, 1.9714098, 0
995, 363489840, 0.66685635, -0.07190705, -0.5732783, 0.47062287, 0.26350388, -1.1389974, 2.1048985, 0
996, 363506507, 0.6589497, -0.09780918, -0.566068, 0.48557985, 0.20939542, -0.66624826, 1.87082, 0
997, 363523174, 0.6496695, -0.124111645, -0.5582083, 0.50093055, -0.084482536, -0.3287218, 1.595643, 0
998, 363539841, 0.63894963, -0.15046035, -0.5497996, 0.5165536, 0.0182847, -0.1595346, 1.4739523, 0
999, 363556508, 0.6269948, -0.17617285, -0.54064965, 0.5324853, 0.28512967, 0.0036822641, 1.4163494, 0
1000, 363573175, 0.61376673, -0.20107786, -0.53062993, 0.54890084, 0.18749876, 0.327438, 1.3777056, 0
1001, 363589842, 0.59925234, -0.22557043, -0.5197659, 0.5655617, 0.2770206, 1.0496736, 1.0897579, 0
1002, 363606509, 0.5833729, -0.25023973, -0.5083634, 0.5819148, 0.46460363, 1.4477456, 0.6259279, 0
1003, 363623176, 0.56562465, -0.27508515, -0.49650964, 0.5982284, 0.3123645, 1.5155076, 0.44993305, 0
1004, 363639843, 0.5459578, -0.2998533, -0.48423555, 0.6144395, 0.4193302, 1.564712, 0.23993969, 0
1005, 363656510, 0.52446777, -0.3241352, -0.4717127, 0.6303643, 0.64227724, 1.6799628, 0.034950256, 0
1006, 363673177, 0.5011482, -0.3476109, -0.45859417, 0.6463053, 0.5179202, 1.723843, -0.012335777, 0
1007, 363689844, 0.4763848, -0.369815, -0.4441493, 0.66259176, 0.53105426, 1.8129982, 0.16837025, 0
1008, 363706511, 0.45127338, -0.39010745, -0.42746246, 0.6792985, 0.3488284, 1.9213339, 0.14553928, 0
1009, 363723178, 0.4265108, -0.40829235, -0.4088081, 0.6958907, 0.112284414, 1.9655908, -0.30400562, 0
1010, 363739845, 0.4021572, -0.4244857, -0.38865012, 0.71206367, -0.19835791, 1.81149, -0.91342354, 0
1011, 363756512, 0.37795648, -0.43893, -0.36763588, 0.7275545, -0.3341615, 1.7544965, -1.4286556, 0
1012, 363773179, 0.35398778, -0.45163864, -0.34624115, 0.742182, -0.34223688, 1.5122864, -1.7776327, 0
1013, 363789846, 0.33037886, -0.46275088, -0.32476687, 0.7558042, -0.7815885, 1.1803505, -2.2381244, 0
1014, 363806513, 0.30733618, -0.47257438, -0.30381754, 0.76805925, -0.7913789, 1.0089538, -2.3120885, 0
1015, 363823180, 0.2861882, -0.48104995, -0.28347266, 0.7786736, -0.93551046, 0.8751809, -2.2189298, 0
1016, 363839847, 0.2675918, -0.48810482, -0.26407784, 0.7876633, -1.1998794, 0.17556015, -2.5682678, 0
1017, 363856514, 0.251088, -0.4938489, -0.24707654, 0.794999, -1.2820647, -0.7607847, -2.892017, 0
1018, 363873181, 0.2363637, -0.49826545, -0.23371056, 0.80077803, -1.2513527, -1.3172892, -2.8521643, 0
1019, 363889848, 0.22419381, -0.501178, -0.22419006, 0.8051698, -1.2207977, -1.2812272, -2.631906, 0
1020, 363906515, 0.21564907, -0.5024214, -0.21791421, 0.8084452, -1.3546553, -1.286493, -2.3994255, 0
1021, 363923182, 0.21106973, -0.50220114, -0.21469876, 0.810648, -1.5413221, -1.4643708, -2.505538, 0
1022, 363939849, 0.21011867, -0.5007314, -0.21455146, 0.8118425, -1.6153116, -1.4697274, -2.434544, 0
1023, 363956516, 0.21281621, -0.49816164, -0.21684448, 0.8121112, -1.5650818, -1.1850584, -2.3362398, 0
1024, 363973183, 0.21907854, -0.49475458, -0.22133495, 0.81131715, -1.4693267, -0.8464945, -2.1733913, 0
1025, 363989850, 0.22900493, -0.49046007, -0.22745173, 0.80948955, -1.3401545, -0.5019733, -1.967494, 0
1026, 364006517, 0.2421101, -0.48536497, -0.23498431, 0.80659026, -1.1605427, -0.6538198, -1.8257208, 0
1027, 364023184, 0.25736615, -0.4795211, -0.24415039, 0.8026299, -1.014121, -0.65944594, -1.7514696, 0
1028, 364039851, 0.27481672, -0.47260588, -0.25427812, 0.7977869, -0.97835064, -0.07558392, -1.3287678, 0
1029, 364056518, 0.29525954, -0.46415868, -0.2639956, 0.7922669, -0.7752474, 0.7138194, -0.7988663, 0
1030, 364073185, 0.31936222, -0.45402896, -0.2720074, 0.786053, -0.44590187, 1.1827737, -0.6633663, 0
1031, 364089852, 0.3468933, -0.4420127, -0.27753308, 0.77927357, -0.36797273, 0.87020636, -0.6662493, 0
1032, 364106519, 0.37684232, -0.42799488, -0.28070223, 0.7720225, -0.53703135, 0.25735572, -0.7126837, 0
1033, 364123186, 0.40766203, -0.4116793, -0.2832179, 0.76427835, -0.2942766, -0.45789903, -0.67985344, 0
1034, 364139853, 0.4380108, -0.39279157, -0.2870404, 0.75595707, 0.14894289, -0.6850278, -0.8090954, 0
1035, 364156520, 0.46630093, -0.3724424, -0.2935848, 0.74676645, -0.43177888, -0.53841007, -1.3292103, 0
1036, 364173187, 0.49136978, -0.35184267, -0.30266953, 0.73699087, -1.3631829, -0.097372524, -1.6293592, 0
1037, 364189854, 0.5134431, -0.33135995, -0.312964, 0.7270709, -1.20359, 0.29447126, -1.1419239, 0
1038, 364206521, 0.5337598, -0.31087366, -0.32449105, 0.7163558, -0.31008703, 0.38214245, -0.75913334, 0
1039, 364223188, 0.5528273, -0.29122373, -0.33767515, 0.70395195, 0.1064989, 0.8044893, -0.85528755, 0
1040, 364239855, 0.5701843, -0.27207765, -0.35199654, 0.6906259, -0.25873, 1.1166486, -0.80259514, 0
1041, 364256522, 0.58524257, -0.25385746, -0.3671902, 0.6769201, -0.8511246, 1.3930386, -0.7076311, 0
1042, 364273189, 0.599068, -0.23619781, -0.3809247, 0.6634957, 0.04777053, 1.5985751, -0.3847189, 0
1043, 364289856, 0.6127787, -0.21899411, -0.3938173, 0.6491947, 0.8930588, 1.6318667, 0.24075603, 0
1044, 364306523, 0.62586176, -0.20260093, -0.40627348, 0.63418764, 0.8275719, 2.0161607, 0.86951447, 0
1045, 364323190, 0.637972, -0.18682204, -0.41768837, 0.619377, 0.11622674, 1.8542633, 0.49265862, 0
1046, 364339857, 0.6481156, -0.17263211, -0.42986754, 0.6044503, -0.4308297, 1.3269188, 0.1885004, 0
1047, 364356524, 0.65673465, -0.16032554, -0.44311708, 0.5887654, -0.519439, 0.9319463, 0.017877579, 0
1048, 364373191, 0.664681, -0.14831854, -0.45618853, 0.57279575, 0.1409837, 0.5576601, 0.56956196, 0
1049, 364389858, 0.6723975, -0.13596447, -0.46834794, 0.55681896, 0.5088697, 0.75181633, 1.0341234, 0
1050, 364406525, 0.67985594, -0.123019844, -0.4791046, 0.5414081, 0.36876976, 0.87499154, 1.1847677, 0
1051, 364423192, 0.68631333, -0.11014632, -0.48913848, 0.52686566, -0.19258636, 0.4778783, 1.232605, 0
1052, 364439859, 0.6914758, -0.09785138, -0.49940678, 0.5127195, -0.39140493, 0.12367777, 0.7959547, 0
1053, 364456526, 0.6955731, -0.086490646, -0.5101695, 0.4984241, -0.2646693, -0.046530705, 0.6977062, 0
1054, 364473193, 0.69934475, -0.07486699, -0.5207167, 0.48390895, 0.16939488, -0.26883352, 0.8121767, 0
1055, 364489860, 0.70331514, -0.062320538, -0.53055394, 0.46901876, 0.42994148, -0.50008047, 0.93999577, 0
1056, 364506527, 0.7074921, -0.049048983, -0.53963786, 0.45369822, 0.32702896, -0.6943115, 0.90104866, 0
1057, 364523194, 0.7116225, -0.034787454, -0.54811496, 0.4381271, -0.12985656, -0.84597987, 0.6275997, 0
1058, 364539861, 0.71527374, -0.019944226, -0.55660087, 0.42211774, -0.5140856, -0.7744119, 0.52312946, 0
1059, 364556528, 0.71825635, -0.0046960074, -0.5648202, 0.40628314, -0.32028154, -0.7602316, 0.9490061, 0
1060, 364573195, 0.7207154, 0.011674853, -0.572228, 0.39113963, -0.12857091, -1.2128574, 1.446065, 0
1061, 364589862, 0.72250694, 0.02986934, -0.5786173, 0.37722108, -0.24008375, -1.405464, 1.6991568, 0
1062, 364606529, 0.72343737, 0.04908784, -0.5842116, 0.36459213, -0.43864238, -1.0250175, 1.572711, 0
1063, 364623196, 0.7235491, 0.06774443, -0.58923554, 0.35311577, -0.58376175, -0.2673324, 1.4772701, 0
1064, 364639863, 0.7233724, 0.08400817, -0.5935824, 0.342545, -0.6572036, 0.268528, 1.4543352, 0
1065, 364656530, 0.7231832, 0.09660048, -0.59723455, 0.33314747, -0.73803574, 0.40255493, 1.377531, 0
1066, 364673197, 0.7229279, 0.10500864, -0.6003548, 0.3254606, -0.8686791, -0.045139503, 1.4350662, 0
1067, 364689864, 0.72219986, 0.11049005, -0.6030019, 0.3203281, -1.2246985, -1.0131136, 1.485673, 0
1068, 364706531, 0.7208907, 0.114334114, -0.6052758, 0.3176281, -1.0788809, -1.5969232, 1.3548336, 0
1069, 364723198, 0.71932644, 0.11617188, -0.6073572, 0.3165328, -0.86353695, -2.2904978, 1.4802713, 0
1070, 364739865, 0.71795684, 0.11671391, -0.60862464, 0.31700766, -0.8230775, -2.8831146, 1.445632, 0
1071, 364756532, 0.71703494, 0.11575697, -0.6092631, 0.3182166, -1.0493053, -2.766604, 1.0624571, 0
1072, 364773199, 0.71665967, 0.11236712, -0.6100661, 0.31873822, -1.2509774, -2.7541578, 0.75982666, 0
1073, 364789866, 0.7168316, 0.106487654, -0.61117476, 0.3182454, -1.039907, -3.1632922, 0.84930706, 0
1074, 364806533, 0.71746975, 0.099502414, -0.6118676, 0.3177366, -1.0067515, -3.2661746, 0.95386314, 0
1075, 364823200, 0.71833515, 0.09164027, -0.61209095, 0.3177159, -1.0659426, -2.8461185, 0.89170456, 0
1076, 364839867, 0.7192064, 0.082381085, -0.6120099, 0.31843582, -1.0305709, -2.4315917, 1.0857563, 0
1077, 364856534, 0.7198749, 0.0716822, -0.61152804, 0.32043263, -1.1364217, -2.0949776, 1.2181101, 0
1078, 364873201, 0.72013676, 0.059085187, -0.61070114, 0.32397237, -1.0407733, -1.9019341, 1.3922358, 0
1079, 364889868, 0.71985596, 0.04506317, -0.6092166, 0.3295969, -0.7560719, -1.8295428, 1.6822739, 0
1080, 364906535, 0.71908396, 0.029873502, -0.60670626, 0.337543, -0.692731, -1.782101, 1.9267559, 0
1081, 364923202, 0.71767753, 0.013547299, -0.6033025, 0.34753925, -0.5707086, -1.61268, 1.8697519, 0
1082, 364939869, 0.71547765, -0.004198874, -0.59907013, 0.35943168, -0.5509111, -1.6608881, 2.0976868, 0
1083, 364956536, 0.71240646, -0.022944625, -0.5937438, 0.37339103, -0.5116323, -1.5558168, 2.3192263, 0
1084, 364973203, 0.7083916, -0.042687006, -0.58731985, 0.38912284, -0.45365798, -1.1444368, 2.378932, 0
1085, 364989870, 0.70304966, -0.06439892, -0.5805241, 0.4056697, -0.4540089, -0.52064013, 2.1771631, 0
1086, 365006537, 0.69616157, -0.08857142, -0.5733633, 0.42281294, -0.3237062, -0.21652041, 2.1518002, 0
1087, 365023204, 0.6874613, -0.11435539, -0.56595904, 0.4404682, -0.073462896, -0.17394286, 2.0785112, 0
1088, 365039871, 0.67682594, -0.14142305, -0.5582392, 0.45856002, 0.1475865, -0.057463728, 2.2095041, 0
1089, 365056538, 0.66442084, -0.16925293, -0.5497866, 0.47711125, 0.37110078, 0.29308215, 2.1554327, 0
1090, 365073205, 0.6502395, -0.19706231, -0.540388, 0.49632427, 0.3759023, 0.7020606, 1.9221077, 0
1091, 365089872, 0.6344923, -0.22445156, -0.5299216, 0.5159708, 0.5763894, 0.71502936, 1.910759, 0
1092, 365106539, 0.6177815, -0.25084645, -0.51788056, 0.53593266, 0.6589283, 0.9026105, 1.5926085, 0
1093, 365123206, 0.6000767, -0.27604726, -0.50479025, 0.555783, 0.5213563, 1.0235106, 1.058384, 0
1094, 365139873, 0.5810169, -0.3004084, -0.4911522, 0.57527876, 0.33507276, 1.2902807, 0.34611797, 0
1095, 365156540, 0.56036884, -0.32385215, -0.47691062, 0.5946973, 0.27888247, 1.3966382, 0.06580067, 0
1096, 365173207, 0.538716, -0.34603396, -0.4620391, 0.61365086, 0.38412288, 1.6509938, -0.13751698, 0
1097, 365189874, 0.51627785, -0.3668319, -0.44650194, 0.63208365, 0.17841363, 1.8471214, -0.3632326, 0
1098, 365206541, 0.4933899, -0.38595435, -0.43004507, 0.65013015, 0.20673808, 1.7768897, -0.68393517, 0
1099, 365223208, 0.47017282, -0.4037283, -0.41318405, 0.6672496, 0.5144175, 2.0835662, -0.8081083, 0
1100, 365239875, 0.44648343, -0.42032254, -0.39619195, 0.68338543, 0.67810816, 2.4932995, -1.237977, 0
1101, 365256542, 0.42144993, -0.43601033, -0.37963507, 0.6986803, 0.5548411, 2.2302468, -1.8778133, 0
1102, 365273209, 0.3941305, -0.45071638, -0.36316007, 0.7138856, 0.019709038, 1.8213377, -1.9294224, 0
1103, 365289876, 0.3661746, -0.46422723, -0.34570298, 0.72862935, 0.010329205, 1.7895935, -1.6618395, 0
1104, 365306543, 0.34048876, -0.4758355, -0.32644, 0.74235225, -0.226677, 1.841114, -1.317194, 0
1105, 365323210, 0.31839648, -0.4854187, -0.30542985, 0.7547895, -0.58096516, 1.4437802, -2.1153622, 0
1106, 365339877, 0.29835913, -0.49367243, -0.2849044, 0.7655722, -0.9037633, 0.25571436, -3.2204514, 0
1107, 365356544, 0.27899036, -0.5008998, -0.26721823, 0.77450633, -1.0138382, -0.6212725, -3.4254298, 0
1108, 365373211, 0.2606901, -0.50680405, -0.25332427, 0.78167725, -1.1386789, -0.7947945, -3.1366358, 0
1109, 365389878, 0.24474488, -0.5111962, -0.2427487, 0.78730756, -1.3905154, -0.8466926, -2.7995253, 0
1110, 365406545, 0.23232691, -0.5140373, -0.23490798, 0.7915873, -1.7581465, -0.946823, -2.6184402, 0
1111, 365423212, 0.22435121, -0.515455, -0.22921035, 0.79463035, -1.9092466, -1.111867, -2.384943, 0
1112, 365439879, 0.22094198, -0.5155456, -0.22609551, 0.796417, -1.8488973, -1.4370526, -2.2233028, 0
1113, 365456546, 0.22132695, -0.51433456, -0.22625643, 0.79704714, -1.8468066, -1.8526438, -2.1671891, 0
1114, 365473213, 0.22493996, -0.5119537, -0.22948423, 0.79664564, -1.8188205, -1.6939656, -2.1213932, 0
1115, 365489880, 0.23213838, -0.50858265, -0.23539954, 0.79501235, -1.7398013, -1.233009, -1.7578793, 0
1116, 365506547, 0.24332818, -0.5041547, -0.2432988, 0.792103, -1.6544679, -0.9639761, -1.434556, 0
1117, 365523214, 0.25794777, -0.49872246, -0.2527013, 0.7879613, -1.5871501, -0.99129987, -1.3901958, 0
1118, 365539881, 0.27526814, -0.49240038, -0.26340482, 0.7825531, -1.4291705, -0.8878479, -1.2067785, 0
1119, 365556548, 0.29515183, -0.4851481, -0.27518252, 0.7757533, -1.2974108, -0.67331916, -1.0153198, 0
1120, 365573215, 0.31771085, -0.47699356, -0.28734422, 0.7674453, -1.0880774, -0.17353144, -0.97045803, 0
1121, 365589882, 0.3434147, -0.46756816, -0.29894802, 0.7576797, -0.7493959, 0.2733578, -0.67056274, 0
1122, 365606549, 0.37188444, -0.45615077, -0.30945522, 0.7469055, -0.25887504, 0.58673537, -0.42671776, 0
1123, 365623216, 0.40169162, -0.44184634, -0.31865123, 0.7361242, -0.1459686, 0.8099533, -0.46343803, 0
1124, 365639883, 0.43150872, -0.4249266, -0.3254199, 0.7261829, -0.15957272, 1.5038433, -0.692914, 0
1125, 365656550, 0.46232235, -0.4059784, -0.3277834, 0.71693766, 0.13594952, 2.156478, 0.17376232, 0
1126, 365673217, 0.49390075, -0.3837109, -0.32636467, 0.7087427, -0.070341766, 1.2900306, 0.5681019, 0
1127, 365689884, 0.5236845, -0.3585027, -0.3241521, 0.7015398, -0.55303663, 0.21164285, -0.59979725, 0
1128, 365706551, 0.5494979, -0.33279577, -0.3246425, 0.694196, -1.5282592, -0.52674216, -1.7418365, 0
1129, 365723218, 0.5715591, -0.30786222, -0.32857007, 0.68599176, -0.248168, -0.49093616, -1.9839249, 0
1130, 365739885, 0.5903621, -0.28481686, -0.33727542, 0.67572135, 0.18533807, 0.62402964, -1.157979, 0
1131, 365756552, 0.60634744, -0.2636192, -0.34777296, 0.6647584, -0.047427885, 2.3454487, -0.4941721, 0
1132, 365773219, 0.6200751, -0.2435544, -0.35789883, 0.65429235, 0.38201046, 1.923025, -0.08916378, 0
1133, 365789886, 0.6322313, -0.22422029, -0.36927167, 0.6431557, 0.42151594, 0.53059274, -0.54440117, 0
1134, 365806553, 0.64349425, -0.20478737, -0.38163584, 0.63113654, 0.24865057, 0.19449359, -1.2436104, 0
1135, 365823220, 0.6544641, -0.1852023, -0.3946661, 0.617752, 0.528192, 0.9339127, -1.1218929, 0
1136, 365839887, 0.66542083, -0.16548693, -0.4071824, 0.60335207, 1.075047, 1.8773293, 0.0038347244, 0
1137, 365856554, 0.6757266, -0.14661689, -0.41850147, 0.5888597, 0.5656968, 2.0485659, 0.33778572, 0
1138, 365873221, 0.6856841, -0.12901449, -0.42840937, 0.5741601, 0.6899123, 2.1126328, 0.5157623, 0
1139, 365889888, 0.69530433, -0.111838385, -0.43776947, 0.55893093, 0.6470291, 1.4436293, 0.6951704, 0
1140, 365906555, 0.70300233, -0.09591863, -0.44901133, 0.54311895, -0.49700877, 1.232002, -0.43757153, 0
1141, 365923222, 0.70855534, -0.08234165, -0.46324205, 0.5259068, -0.9790838, 1.1684631, -0.9670887, 0
1142, 365939889, 0.7126379, -0.07017237, -0.47944248, 0.50730664, -0.36263368, 0.91914696, 0.11964607, 0
1143, 365956556, 0.7151768, -0.058625165, -0.49660778, 0.48833153, -0.24798875, 0.48800814, 1.0072908, 0
1144, 365973223, 0.7169872, -0.04622428, -0.5124124, 0.470349, 0.40801978, -0.23595777, 1.8707304, 0
1145, 365989890, 0.71886045, -0.031834844, -0.5259001, 0.45349446, 0.5378039, -0.8457603, 2.2186956, 0
1146, 366006557, 0.72095853, -0.015544188, -0.536987, 0.43774894, 0.18692076, -1.0051845, 1.8489313, 0
1147, 366023224, 0.72309613, 0.0023472726, -0.54611486, 0.42295027, 0.42058387, -0.94083154, 1.357089, 0
1148, 366039891, 0.7248259, 0.021093253, -0.55444413, 0.4083823, 0.27347168, -1.1131333, 1.6434736, 0
1149, 366056558, 0.7260799, 0.04029368, -0.5617538, 0.39448568, 0.009109941, -1.1648264, 1.597703, 0
1150, 366073225, 0.7269268, 0.058727514, -0.56831414, 0.38098487, -0.36451745, -0.7617056, 1.5247002, 0
1151, 366089892, 0.72762215, 0.074766524, -0.5745096, 0.36730996, -0.7220135, -0.3292188, 1.5629511, 0
1152, 366106559, 0.7283695, 0.08763224, -0.5805422, 0.35322994, -0.63789076, -0.2985981, 1.640439, 0
1153, 366123226, 0.72927725, 0.09760987, -0.5861171, 0.33925763, -0.57889676, -0.5244825, 1.7399826, 0
1154, 366139893, 0.73029727, 0.1050206, -0.590945, 0.3262252, -0.5651306, -0.7659481, 1.5848827, 0
1155, 366156560, 0.73116535, 0.10976868, -0.5950138, 0.31513306, -0.75203615, -1.1609076, 1.6074009, 0
1156, 366173227, 0.73167795, 0.11221366, -0.5980667, 0.30720294, -0.93507004, -1.6867361, 1.7305841, 0
1157, 366189894, 0.73162407, 0.11298804, -0.6002822, 0.30269313, -1.0403299, -2.1857512, 1.5829067, 0
1158, 366206561, 0.7310849, 0.112307556, -0.602027, 0.3007775, -0.9345948, -2.748953, 1.5088425, 0
1159, 366223228, 0.73049414, 0.11031325, -0.6031605, 0.3006808, -0.8370739, -2.9986074, 1.3888149, 0
1160, 366239895, 0.7301913, 0.106977545, -0.6037076, 0.3015227, -0.90596956, -3.006695, 1.2323732, 0
1161, 366256562, 0.7303542, 0.10195213, -0.60390186, 0.3024787, -0.92083585, -3.0561695, 1.0358467, 0
1162, 366273229, 0.7308829, 0.09531505, -0.6039228, 0.30332252, -0.9472193, -3.0782633, 0.9807825, 0
1163, 366289896, 0.73159665, 0.087735616, -0.60360044, 0.30452836, -1.0148834, -3.0149825, 1.056015, 0
1164, 366306563, 0.7322553, 0.07909611, -0.60296494, 0.30656403, -1.0727075, -2.360832, 1.0803623, 0
1165, 366323230, 0.7328673, 0.06872894, -0.6021126, 0.3092645, -1.0990472, -1.9502181, 1.1402922, 0
1166, 366339897, 0.7332992, 0.05683858, -0.60081184, 0.31315985, -0.7408341, -1.8032026, 1.4634256, 0
