DeviceTag:;Xsens DOT 3;;;;;;;;;;;
FirmwareVersion:;1.3.0;;;;;;;;;;;
AppVersion:;2020.1.1;;;;;;;;;;;
Measurement Mode:;Inertial Mode - High Fidelity (with mag);;;;;;;;;;;
StartTime:;2020-07-29 17:12:53.763 +0200;;;;;;;;;;;
© Xsens Technologies B. V. 2005-2020;;;;;;;;;;;;
PacketCounter;SampleTimeFine;dQ_W;dQ_X;dQ_Y;dQ_Z;dV[1];dV[2];dV[3];Mag_X;Mag_Y;Mag_Z;Status
2;2248901613; 0.9999999945279421; 8.484022863329554E-5; 4.181887125564999E-5; -4.469265444512205E-5; -0.1571415076500254; 0.041401908771614475; -0.01308729305148657; 0.61474609375; -0.566650390625; 0.537109375;0
3;2248918280; 0.9999999950211782; 6.217985639057205E-5; -6.073849648741137E-5; -4.90116711830968E-5; -0.15765720796581706; 0.0421987074951001; -0.013358635050185308; 0.6162109375; -0.5654296875; 0.53662109375;0
4;2248934947; 0.9999999969095181; -6.787403811221032E-5; -3.687784098233005E-5; 1.463227740300388E-5; -0.15707253860519324; 0.042696331562315976; -0.013030613621309457; 0.61474609375; -0.567138671875; 0.5380859375;0
5;2248951614; 0.9999999804140313; -1.957484977826926E-4; -9.221271329906688E-6; 2.7738615454353525E-5; -0.15773078500388052; 0.04169974260752406; -0.013165079899666922; 0.61572265625; -0.566650390625; 0.53662109375;0
6;2248968281; 0.9999999946916672; -1.0197799922886247E-4; -1.3750835320403E-6; -1.4671822323564232E-5; -0.15723067859807616; 0.040481214483664395; -0.012811492111991014; 0.613037109375; -0.56494140625; 0.534423828125;0
7;2248984948; 0.9999999934758466; 1.8645628854570273E-5; 1.2593667003735211E-5; -1.1199128125660708E-4; -0.15703639258680013; 0.04112745094815358; -0.013022885022157642; 0.617919921875; -0.5654296875; 0.5380859375;0
8;2249001615; 0.9999999919358575; 4.784888833819778E-5; 1.8078315227099132E-5; -1.1624088499140317E-4; -0.15714614830661233; 0.042230306950248916; -0.013173994028641237; 0.61669921875; -0.56494140625; 0.535400390625;0
9;2249018282; 0.999999996365045; 1.942486596311771E-5; 6.555132535357444E-5; -5.094711539388453E-5; -0.15689616317655392; 0.042351181688439585; -0.012895796868287153; 0.61572265625; -0.567626953125; 0.535888671875;0
10;2249034949; 0.9999999968071673; -5.6560895186040516E-5; 2.8984748856764057E-5; -4.843980661445313E-5; -0.15739937751587968; 0.04275189739728805; -0.013223620151961483; 0.615234375; -0.567626953125; 0.53662109375;0
11;2249051616; 0.9999999977686331; -2.3000938498676793E-5; -3.911212802293341E-5; -4.9029908950559704E-5; -0.15735067923178192; 0.04174727055199309; -0.013080426459841279; 0.61474609375; -0.566650390625; 0.5380859375;0
12;2249068283; 0.999999984121426; 1.6628831093456337E-4; -6.000844916270732E-5; -2.2457321296132093E-5; -0.15723282077300574; 0.04171419187560321; -0.012862838267313279; 0.6162109375; -0.56396484375; 0.540771484375;0
13;2249084950; 0.9999999740016987; 2.2526044232046294E-4; 2.6883377255038088E-5; 2.3056863071746484E-5; -0.1568871436318801; 0.04258676675834473; -0.013434231630231094; 0.617431640625; -0.567138671875; 0.535888671875;0
14;2249101617; 0.9999999843699915; 1.2255186324125478E-4; 1.2680826335687015E-4; -1.2677618531520274E-5; -0.1571339606061321; 0.04266065679520609; -0.013583847292917419; 0.61474609375; -0.566162109375; 0.5390625;0
15;2249118284; 0.9999999837344618; 4.072687385250212E-5; 1.7050071380442236E-4; -4.2448848845688676E-5; -0.15739638396886718; 0.04216346642642785; -0.013007023630221546; 0.615234375; -0.567138671875; 0.53759765625;0
16;2249134951; 0.9999999745000003; 1.5657906141436362E-4; 1.5338171083884025E-4; -5.437873681424232E-5; -0.1579686819861439; 0.04164657616637742; -0.012329855162309326; 0.61669921875; -0.566162109375; 0.53955078125;0
17;2249151618; 0.9999999524539591; 2.988420977926079E-4; 7.549054076622097E-5; -9.309054252393258E-6; -0.1582122448532857; 0.042350891444914766; -0.012569902943676107; 0.61572265625; -0.5654296875; 0.537109375;0
18;2249168285; 0.9999999634426693; 2.677156438409267E-4; -3.695569854805792E-5; 8.79036319095805E-6; -0.15781008908343697; 0.04267038817370391; -0.013282914722939826; 0.615234375; -0.5654296875; 0.5390625;0
19;2249184952; 0.9999999689474846; 2.4676524651242454E-4; -3.29702070325233E-5; 1.1176244469446319E-5; -0.1570067150602889; 0.04246085913633797; -0.012920472313766942; 0.61572265625; -0.560302734375; 0.5390625;0
20;2249201619; 0.9999998670312911; 4.7319641877463514E-4; 1.720719500633017E-4; 1.1141720455076776E-4; -0.15703599841394614; 0.04177586137953788; -0.012553638789456216; 0.615234375; -0.567138671875; 0.540771484375;0
21;2249218286; 0.9999996751060141; 7.395708449292396E-4; 2.714894729713424E-4; 1.7063498406660885E-4; -0.15757716796768512; 0.04168018554868252; -0.012675172475116701; 0.61572265625; -0.56396484375; 0.540771484375;0
22;2249234953; 0.9999996372681326; 8.319146613835898E-4; 1.2584174969154652E-4; 1.324592520287604E-4; -0.15799234980459897; 0.04246395341635826; -0.012578855924769518; 0.615478515625; -0.56494140625; 0.544921875;0
23;2249251620; 0.9999994463535998; 0.0010379252046890525; 4.3655421279709124E-5; 1.6762448329443738E-4; -0.15753560346383177; 0.04079371029835226; -0.011413170687551315; 0.614013671875; -0.56201171875; 0.543701171875;0
24;2249268287; 0.9999991714773147; 0.0012709036531769954; 1.201607896711421E-5; 2.0421606777315526E-4; -0.1574784232351299; 0.04274427694218891; -0.012517410186476521; 0.61669921875; -0.5634765625; 0.5458984375;0
25;2249284954; 0.9999994996669543; 9.810601575556202E-4; -1.1249219334003024E-4; 1.5978834377272658E-4; -0.1577158104276897; 0.04383643500910313; -0.013686311646254093; 0.61181640625; -0.56201171875; 0.5458984375;0
26;2249301621; 0.9999997782139508; 6.278357653520458E-4; -2.0566770879587584E-4; 8.423238375410147E-5; -0.157080619352048; 0.043344630092738506; -0.013982793850485386; 0.6123046875; -0.559814453125; 0.546875;0
27;2249318288; 0.9999998876462726; 4.356987667151063E-4; -1.8041811549746048E-4; 4.820093869828402E-5; -0.15710529901841916; 0.04304567477860208; -0.013854458752853016; 0.614013671875; -0.56103515625; 0.54638671875;0
28;2249334955; 0.9999999519672861; 2.3735422816892338E-4; -1.7522437413663996E-4; 9.499902416648665E-5; -0.15758228149960013; 0.044304553147206494; -0.015147893379130285; 0.614501953125; -0.5615234375; 0.549072265625;0
29;2249351622; 0.9999999631885809; -1.2394219650926214E-4; -2.1643742393745447E-4; 1.0684573118924236E-4; -0.15767392090876584; 0.04438945143381663; -0.015358252694283592; 0.6123046875; -0.56103515625; 0.543212890625;0
30;2249368289; 0.9999999745954662; -7.988716989673628E-5; -8.292170214385665E-5; 1.9378105787132283E-4; -0.15700830020398812; 0.04102008584002753; -0.013917607255360525; 0.614990234375; -0.5615234375; 0.54443359375;0
31;2249384956; 0.9999999598900647; 1.669372984924311E-4; 1.235161436056176E-4; 1.926021016971924E-4; -0.1571236207633273; 0.040909669112196796; -0.01345441428132131; 0.614013671875; -0.559326171875; 0.54541015625;0
32;2249401623; 0.9999999829852874; 1.2549781571544877E-4; 8.812332144536585E-5; 1.0253781446351029E-4; -0.15802129875776147; 0.04170442753582733; -0.014679366554678963; 0.614501953125; -0.5615234375; 0.54541015625;0
33;2249418290; 0.9999999941760769; 2.9665541109488713E-5; -9.307310859840712E-5; 4.588244165865119E-5; -0.15784869603231808; 0.042088719154589296; -0.01404995074158561; 0.615966796875; -0.5615234375; 0.544921875;0
34;2249434957; 0.9999999872948817; 3.118982829712624E-5; -1.4140974664011988E-4; 6.663868584533272E-5; -0.157451099492122; 0.04218331227889881; -0.013897087568187087; 0.614990234375; -0.56103515625; 0.549072265625;0
35;2249451624; 0.999999984674268; -7.211550990449123E-5; -1.3012564176984045E-4; 9.229373897173822E-5; -0.15688226627939586; 0.04234040971200627; -0.013786993718748943; 0.61279296875; -0.559326171875; 0.54638671875;0
36;2249468291; 0.9999999431655577; -3.2489938288163267E-4; -6.983462014181764E-5; 5.685418334694381E-5; -0.15621429942668666; 0.04314923072849486; -0.014191944610451; 0.615478515625; -0.56103515625; 0.548095703125;0
37;2249484958; 0.9999997275705548; -7.320886712752078E-4; -9.135348397248944E-5; -2.3654483574608868E-5; -0.15656985955576283; 0.04309930147164617; -0.014054908337789674; 0.61181640625; -0.559814453125; 0.543701171875;0
38;2249501625; 0.9999993315141127; -0.00115057809124091; -9.425036432536561E-5; -6.525528780471079E-5; -0.15731563754519887; 0.04341025894305225; -0.013844461574983846; 0.6123046875; -0.5615234375; 0.543701171875;0
39;2249518292; 0.999998930574927; -0.0014604512396692443; -3.7966418484525206E-5; -6.700544757592965E-5; -0.1580251937585062; 0.04139641686972838; -0.012157210025710588; 0.614990234375; -0.56396484375; 0.54443359375;0
40;2249534959; 0.9999989603212731; -0.001436901326451627; -6.093183332889219E-7; -1.2112216718906943E-4; -0.1585929471231032; 0.04010821109972147; -0.01064327376410548; 0.614990234375; -0.56494140625; 0.542724609375;0
41;2249551626; 0.9999991705106397; -0.0012581325498029067; -1.5960452472851827E-4; -2.2495980819514652E-4; -0.1586769383603088; 0.03870686518303486; -0.00986009465410163; 0.611083984375; -0.5654296875; 0.5380859375;0
42;2249568293; 0.9999993932979752; -9.312764393115056E-4; -5.242160795519425E-4; -2.6706811296994815E-4; -0.15863062008515685; 0.040725850552090916; -0.010192126988424588; 0.613525390625; -0.56494140625; 0.5390625;0
43;2249584960; 0.9999992276293412; -8.977944215179529E-4; -8.152446749488119E-4; -2.7218011996765773E-4; -0.15780086913594785; 0.04289665413218704; -0.01161710664401789; 0.62109375; -0.565673828125; 0.535888671875;0
44;2249601627; 0.9999989552230397; -0.0010231916130413882; -9.916982878498406E-4; -2.432411516827826E-4; -0.15726915438190317; 0.04488692944710178; -0.013270352867494258; 0.617919921875; -0.5654296875; 0.533935546875;0
45;2249618294; 0.999998799322655; -0.00117432519533818; -0.0010023628006289864; -1.3259864225434462E-4; -0.15662323237356016; 0.04456916224330271; -0.014794194674558427; 0.6201171875; -0.56494140625; 0.532958984375;0
46;2249634961; 0.9999991690582264; -0.0011302288834997495; -6.156269921405723E-4; 7.395224149092661E-5; -0.15460888279028526; 0.04303385640971473; -0.01417713827690692; 0.619140625; -0.567626953125; 0.528076171875;0
47;2249651628; 0.9999997743856248; -6.182025035049027E-4; 1.2355374540523603E-4; 2.3192420331352717E-4; -0.1540508962019557; 0.0413207042650549; -0.012680555927559687; 0.617431640625; -0.569091796875; 0.527587890625;0
48;2249668295; 0.999999696843527; -4.507011695524324E-4; 6.095684237399369E-4; 1.7778539529134108E-4; -0.15635416638947386; 0.04328491603227559; -0.01321212734796287; 0.616455078125; -0.56640625; 0.52490234375;0
49;2249684962; 0.9999997335559732; -5.272797355454426E-4; 4.886235105014403E-4; 1.2692961928412186E-4; -0.15886943009697846; 0.042075109133426464; -0.011728597337115015; 0.61328125; -0.571533203125; 0.53125;0
50;2249701629; 0.9999999420221353; -3.290583206064096E-4; -4.937854134362541E-5; 7.237477072635778E-5; -0.16026833644868332; 0.04235421508179405; -0.011726250058092441; 0.617919921875; -0.570068359375; 0.528076171875;0
51;2249718296; 0.9999999013414199; -1.3584871323334136E-4; -3.9299099019785016E-4; 1.5627014826474775E-4; -0.15843337360276138; 0.04232794302067858; -0.011762946248167828; 0.619140625; -0.571044921875; 0.529296875;0
52;2249734963; 0.99999991326686; -1.8353147382123292E-4; -3.2222781185398125E-4; 1.8960935599743323E-4; -0.15588217167449478; 0.04355230800530224; -0.013272038088665929; 0.615966796875; -0.572265625; 0.526123046875;0
53;2249751630; 0.9999999207321488; -3.583516147120172E-4; 2.968261051011778E-5; 1.7099344700549637E-4; -0.15492018670735902; 0.04224327450998175; -0.013094953261012867; 0.617919921875; -0.57275390625; 0.528076171875;0
54;2249768297; 0.9999999483687411; -2.664313763125342E-4; 1.6895898840119108E-4; 6.107124569509903E-5; -0.15641189499245872; 0.04166570618698767; -0.01293082191384069; 0.616943359375; -0.572265625; 0.526123046875;0
55;2249784964; 0.9999999870147787; -1.136210946571306E-4; 4.563174703015039E-5; 1.0477801752306616E-4; -0.15770559681531748; 0.04300140032491297; -0.013295758251895252; 0.616455078125; -0.57275390625; 0.5302734375;0
56;2249801631; 0.9999999404150737; -2.1988147939059483E-4; 8.52962296021831E-6; 2.6598727390064747E-4; -0.157503997143104; 0.043165712254632664; -0.013492217071495864; 0.61376953125; -0.5751953125; 0.526123046875;0
57;2249818298; 0.9999998818789422; -3.032207617715485E-4; 1.5468596198281448E-4; 3.469459966315425E-4; -0.1568156583464943; 0.041501543206039875; -0.012458559721906112; 0.614990234375; -0.57275390625; 0.52392578125;0
58;2249834965; 0.9999999292433709; -2.19137104830458E-4; 2.2076876488075217E-4; 2.1154984039989388E-4; -0.15667932268847368; 0.04025718542360604; -0.012297203819768635; 0.61376953125; -0.57421875; 0.528076171875;0
59;2249851632; 0.9999999673115856; 4.3809877219719295E-7; 2.2058653915807416E-4; 1.2929893496294034E-4; -0.15699567696923852; 0.03986895182259912; -0.011499231809862382; 0.614501953125; -0.57275390625; 0.527099609375;0
60;2249868299; 0.9999999681587066; 1.2158251949035553E-4; 1.9717632039545355E-4; 1.0010881876137967E-4; -0.15707883133554; 0.04153668817951596; -0.012097073689041027; 0.61083984375; -0.57470703125; 0.5244140625;0
61;2249884966; 0.9999999867719156; -4.60010189046664E-5; 1.236225191501017E-4; 9.517114874818545E-5; -0.15712870088034345; 0.04177729533758954; -0.012156025947135746; 0.615478515625; -0.57568359375; 0.527587890625;0
62;2249901633; 0.9999999853053447; -1.6309992247851707E-4; -3.788486141420578E-5; 3.677584355332719E-5; -0.1575793356729431; 0.04138278707518626; -0.012174888064640019; 0.6142578125; -0.57568359375; 0.528564453125;0
63;2249918300; 0.99999998311404; -1.4641834193362957E-4; -1.0983578104789561E-4; 1.6422243427460795E-5; -0.15700900630084608; 0.04141889763821767; -0.01220554892792885; 0.61376953125; -0.5751953125; 0.527587890625;0
64;2249934967; 0.9999999679204432; -2.4233024974153888E-4; 7.23133678552368E-5; -1.435058447668558E-5; -0.15606246268606722; 0.04200546332464942; -0.012270170811950526; 0.61279296875; -0.576171875; 0.527099609375;0
65;2249951634; 0.9999999229383681; -2.9401345816615354E-4; 2.458691837950999E-4; -8.501581345893296E-5; -0.156884028905515; 0.04101796611903443; -0.012101580170881865; 0.616455078125; -0.577392578125; 0.5244140625;0
66;2249968301; 0.9999999544010287; -9.766616886560525E-5; 2.759031666747514E-4; -7.440902232913604E-5; -0.1571183960162212; 0.0408220021245621; -0.01122564962367181; 0.614501953125; -0.577392578125; 0.527587890625;0
67;2249984968; 0.9999999557625687; -9.867512348517293E-5; 2.6043504482409224E-4; -1.044589302627852E-4; -0.15753085209713455; 0.043218688451018644; -0.011668384084552345; 0.614501953125; -0.5751953125; 0.527587890625;0
68;2250001635; 0.9999999235060439; -3.590863593862306E-4; 1.1745105021226944E-4; -1.0124299209512966E-4; -0.1573338389796398; 0.04357155509296699; -0.011415097258554175; 0.61376953125; -0.5732421875; 0.526123046875;0
69;2250018302; 0.9999999207794209; -3.8080602578167977E-4; 4.7123893248735005E-5; -1.0586435327697431E-4; -0.1574632656469589; 0.04206609026966944; -0.010956684257396716; 0.61376953125; -0.577392578125; 0.527587890625;0
70;2250034969; 0.9999999935670056; -9.300335090235701E-5; -8.978209196208732E-6; -6.430985135552625E-5; -0.15762642703878688; 0.04261893030768353; -0.011300369957498634; 0.61376953125; -0.577392578125; 0.52978515625;0
71;2250051636; 0.9999999982637848; -5.436453763391774E-5; 2.0874008949123284E-6; -2.2640016831887436E-5; -0.15695651267283917; 0.04371852623824567; -0.0121257163578975; 0.616455078125; -0.57421875; 0.526611328125;0
72;2250068303; 0.9999999792132274; -1.4513106525862463E-4; 1.4252190271796253E-4; -1.4072169178647176E-5; -0.15637638516844113; 0.04394110118684083; -0.011699877237275336; 0.61328125; -0.577392578125; 0.529296875;0
73;2250084970; 0.9999999620415574; -8.581323007768316E-5; 2.6177345600714164E-4; 5.256529781005882E-6; -0.15678974521859249; 0.042440979302729616; -0.01139176858110021; 0.61328125; -0.57373046875; 0.527587890625;0
74;2250101637; 0.999999954047863; 2.081510249233448E-5; 3.013815608232662E-4; 2.5301347374107053E-5; -0.15735788421476005; 0.04314127047346425; -0.010866319047050953; 0.614013671875; -0.578369140625; 0.525634765625;0
75;2250118304; 0.9999999884643906; 2.0620697327410065E-5; 1.5029029557717125E-4; 7.67022440151255E-6; -0.15815578413616913; 0.0428552346985234; -0.01085597661752218; 0.611083984375; -0.571533203125; 0.528076171875;0
76;2250134971; 0.9999999876004814; 1.48125730584453E-4; -2.506562272386326E-5; 4.72177888856673E-5; -0.15755260529910847; 0.04228969159957568; -0.010949372093670218; 0.615478515625; -0.57568359375; 0.528076171875;0
77;2250151638; 0.9999999755539323; 2.0136096609371656E-4; -5.3822418073778966E-5; 7.381763658825814E-5; -0.15709146457777937; 0.04292736065877498; -0.011257260463406044; 0.61376953125; -0.577392578125; 0.528564453125;0
78;2250168305; 0.9999999886521309; 1.1537994674894886E-4; -8.276227545350735E-5; 5.03349960352395E-5; -0.15767099931099557; 0.042939911367128776; -0.011871927983729663; 0.61181640625; -0.576171875; 0.52978515625;0
79;2250184972; 0.9999999901860556; 8.416357648191597E-5; -1.1167910553966377E-4; 8.494618809806733E-6; -0.15724110297724134; 0.042699643040802586; -0.011861441312511677; 0.61376953125; -0.576171875; 0.526611328125;0
80;2250201639; 0.9999999843944831; 1.584126581266887E-4; -7.81398630348429E-5; 3.2596447667176953E-6; -0.15720413688554807; 0.04209424334222669; -0.011790787283780538; 0.611328125; -0.577880859375; 0.528076171875;0
81;2250218306; 0.999999969059585; 2.4502739567871384E-4; -3.65391306807461E-5; 2.252324015106222E-5; -0.1573412941916894; 0.04214650855543409; -0.012258462325542424; 0.61328125; -0.57470703125; 0.527099609375;0
82;2250234973; 0.9999999581017551; 2.776431892799955E-4; -6.55623984682774E-5; 4.911536774221403E-5; -0.157099625156762; 0.0424719081488234; -0.012148962446455086; 0.614990234375; -0.57373046875; 0.527587890625;0
83;2250251640; 0.9999999641372119; 2.594216396388724E-4; -4.901014515856784E-5; 4.498881568976155E-5; -0.1569179214127121; 0.04253229006597056; -0.012126808018082193; 0.614990234375; -0.57421875; 0.526123046875;0
84;2250268307; 0.9999999831101638; 1.673818559970383E-4; -6.785184663798961E-5; 3.404575079102301E-5; -0.15693629742198947; 0.04291079761243705; -0.01222749877526305; 0.61376953125; -0.570068359375; 0.5302734375;0
85;2250284974; 0.9999999800882198; 1.9885357158175299E-4; -1.558031059967213E-5; 6.170167178687348E-6; -0.1569572654845709; 0.04166494071200711; -0.011745176459672282; 0.61376953125; -0.57421875; 0.527587890625;0
86;2250301641; 0.9999999177432842; 4.033207038518852E-4; -3.829334130539542E-5; -1.9479593715066024E-5; -0.15673997987853414; 0.04214654801975557; -0.012227644303030694; 0.6142578125; -0.5732421875; 0.53125;0
87;2250318308; 0.9999999390135664; 3.4227831722318663E-4; -6.747761471798121E-5; 1.6284607194272386E-5; -0.15697978108517283; 0.043307436402677854; -0.012165079459319057; 0.6142578125; -0.572265625; 0.528076171875;0
88;2250334975; 0.9999999824788686; 1.7626471614211325E-4; -4.090357964825487E-5; 4.795737201257477E-5; -0.15737067692775344; 0.04279852827426951; -0.0118282088322658; 0.61328125; -0.57470703125; 0.53173828125;0
89;2250351642; 0.999999985313377; 1.4559482139577667E-4; -6.743549650184422E-5; 6.023161777712894E-5; -0.15850085209908632; 0.04209115852139597; -0.011927628477579732; 0.61376953125; -0.57421875; 0.533447265625;0
90;2250368309; 0.9999999689627732; 5.562514014940956E-5; -2.4183167249003382E-4; 2.231005362984817E-5; -0.15874876249909872; 0.04213930774633626; -0.012703865557992952; 0.614501953125; -0.57470703125; 0.526611328125;0
91;2250384976; 0.9999999071970208; 1.750936642596554E-4; -3.9296004323885475E-4; -2.3033950608875035E-5; -0.15748563851576663; 0.04117796085246126; -0.012542862800951357; 0.61279296875; -0.5732421875; 0.52978515625;0
92;2250401643; 0.9999999043500951; 2.9749402078011605E-4; -3.1268750961238606E-4; -7.087756590262728E-5; -0.15623431424912962; 0.04219748221932798; -0.012690516616554352; 0.615478515625; -0.5732421875; 0.529296875;0
93;2250418310; 0.9999999769823764; 1.2718543642130375E-4; -1.4748956592974816E-4; -9.003299034254787E-5; -0.15597192003146682; 0.04425572529092447; -0.013502206981575934; 0.61376953125; -0.571533203125; 0.528564453125;0
94;2250434977; 0.9999999862043212; -1.3140744250997316E-4; -5.293380001797355E-5; -8.672631810791032E-5; -0.15668593275089063; 0.04328052009270876; -0.013025173842240976; 0.615234375; -0.57177734375; 0.53076171875;0
95;2250451644; 0.9999999920825899; 2.5742231827718953E-5; -1.117173150754769E-4; -5.187869545819624E-5; -0.15747359239748523; 0.04248746279691012; -0.012609304017982208; 0.616455078125; -0.572265625; 0.53076171875;0
96;2250468311; 0.9999999751470887; 1.659409432953271E-4; -1.4884097776401986E-4; 3.97348107572526E-6; -0.157800398344779; 0.04334569486769757; -0.012834060919196172; 0.616455078125; -0.5732421875; 0.5302734375;0
97;2250484978; 0.9999999854586685; 1.1523964662214087E-4; -1.1707102440478012E-4; 4.579150315026093E-5; -0.1572237821607494; 0.04333007634295118; -0.013124458344303454; 0.615966796875; -0.57275390625; 0.52978515625;0
98;2250501645; 0.9999999940723876; 1.0858171472213907E-4; 7.896361108372664E-6; 1.698045666020942E-6; -0.1565656484693703; 0.04249775003527887; -0.012693795432948062; 0.615478515625; -0.569091796875; 0.528076171875;0
99;2250518312; 0.9999999732734276; 2.113741199869651E-4; 7.448176237478955E-5; -5.680310375349996E-5; -0.15746562856389582; 0.04274964604717447; -0.01237462270139143; 0.61279296875; -0.57275390625; 0.53125;0
100;2250534979; 0.9999999682010214; 2.4316449991191452E-4; -5.291696491266374E-5; -4.085066677628202E-5; -0.15812987400845846; 0.043777066505164275; -0.013100573542566203; 0.615966796875; -0.57177734375; 0.53125;0
101;2250551646; 0.9999999549207356; 2.3128956582847E-4; -1.8232299053033696E-4; 5.849778439614984E-5; -0.15776994427026111; 0.043374007594109594; -0.012866973475344028; 0.61376953125; -0.569091796875; 0.53076171875;0
102;2250568313; 0.9999999617412123; 1.935311023287603E-4; -1.7101591764501214E-4; 9.907997941860369E-5; -0.15652039789144653; 0.04381244784740446; -0.01378156709811134; 0.61279296875; -0.570068359375; 0.528564453125;0
103;2250584980; 0.9999999957278219; -3.7629438140111826E-5; 2.0435166943000297E-5; 8.191938416962642E-5; -0.15557438090955245; 0.044118834338828135; -0.01362575249336527; 0.616455078125; -0.568115234375; 0.52978515625;0
104;2250601647; 0.9999999748177693; -8.095652574406642E-5; 2.0317580301915108E-4; 5.0300049065865604E-5; -0.15631997117376112; 0.04263238901013826; -0.012689550144818106; 0.6142578125; -0.570068359375; 0.53076171875;0
105;2250618314; 0.999999976551186; 3.487388304392047E-5; 2.0550624127069206E-4; 5.872498898940038E-5; -0.15800454629404978; 0.04263375820489189; -0.012864725997797078; 0.61376953125; -0.570556640625; 0.52978515625;0
106;2250634981; 0.999999989631482; -2.9179347204359718E-5; 4.4929848016184166E-5; 1.3366716304941129E-4; -0.15830258736952196; 0.04288634244702466; -0.013018403532186048; 0.61328125; -0.570068359375; 0.5322265625;0
107;2250651648; 0.9999999852468378; -1.031087751030696E-5; -4.2868245299532155E-5; 1.6601904579921503E-4; -0.15774989965678687; 0.04244799658653597; -0.012902522763927827; 0.616455078125; -0.5732421875; 0.53076171875;0
108;2250668315; 0.9999999704115858; 1.0625112519847824E-4; 3.624468534552117E-5; 2.1580975073920428E-4; -0.15634724294977856; 0.04139362355864861; -0.01265855564643169; 0.611572265625; -0.572265625; 0.53173828125;0
109;2250684982; 0.9999999397803644; 2.668962158731969E-5; 2.890830298328817E-4; 1.9015239547426346E-4; -0.15626856711980908; 0.042673713852520084; -0.013059578204320025; 0.61328125; -0.571533203125; 0.53076171875;0
110;2250701649; 0.9999999014928512; -2.306445795220366E-4; 3.704351369955284E-4; 8.121068244193452E-5; -0.15714457145700783; 0.041470059660046535; -0.01234233597144919; 0.61279296875; -0.5751953125; 0.53076171875;0
111;2250718316; 0.9999999736803863; -2.883525228135342E-5; 2.2558887094675797E-4; -3.0288877251760663E-5; -0.15809363084569486; 0.03997946924851841; -0.010993117349305024; 0.61474609375; -0.569580078125; 0.53173828125;0
112;2250734983; 0.9999999818493227; 1.4224801926074337E-4; -1.1688329839831814E-4; -4.904232595021041E-5; -0.15844328300151966; 0.04205773887208666; -0.011809573166897663; 0.611083984375; -0.572265625; 0.5322265625;0
113;2250751650; 0.9999999273082228; -1.616872116299295E-4; -3.452816134409953E-4; 4.626240146521355E-6; -0.15755585801557295; 0.04381498152965432; -0.013115577805321112; 0.61279296875; -0.572265625; 0.53173828125;0
114;2250768317; 0.9999998962471168; -3.516597220067155E-4; -2.893616107277897E-4; 1.0538207352139839E-5; -0.15612220501815105; 0.04194979842420245; -0.012786736225247494; 0.615966796875; -0.572265625; 0.5302734375;0
115;2250784984; 0.9999999595916134; -2.8211966837451974E-4; -3.2023730004271396E-5; 1.413312631559638E-5; -0.15559966518514157; 0.04138024855547119; -0.012596565861344349; 0.616455078125; -0.572265625; 0.5302734375;0
116;2250801651; 0.999999917912952; -3.488847316155813E-4; 1.9271995125247357E-4; -7.288726791560007E-5; -0.15679935697123185; 0.04243092648337372; -0.01284771024258952; 0.61279296875; -0.5732421875; 0.53076171875;0
117;2250818318; 0.9999999104322513; -3.775762720832909E-4; 1.5616745735042015E-4; -1.103783191878094E-4; -0.15808047039348846; 0.041079036760162765; -0.011947854146494487; 0.61328125; -0.57275390625; 0.528564453125;0
118;2250834985; 0.9999999982796604; -2.7473250075051026E-5; 4.306850051105649E-5; -2.882714292617994E-5; -0.15794709857187594; 0.040488028289391256; -0.011260075273545262; 0.61279296875; -0.57421875; 0.5322265625;0
119;2250851652; 0.9999999974510738; 6.318707730318396E-5; -1.8096715056148408E-5; 2.788825038901877E-5; -0.15720718359746697; 0.042831723973612804; -0.012025168535970005; 0.6142578125; -0.57470703125; 0.529296875;0
120;2250868319; 0.9999999766392818; -1.8609941217297143E-4; -5.808231740467296E-5; -9.33535705123778E-5; -0.1573848722085746; 0.042551697579566644; -0.012311149596629907; 0.61328125; -0.5732421875; 0.528076171875;0
121;2250884986; 0.999999943620469; -2.6926364466112185E-4; -1.1687678532446011E-4; -1.6308269544290657E-4; -0.1575109506729527; 0.04218249993518178; -0.011648618810465467; 0.61279296875; -0.57275390625; 0.52490234375;0
122;2250901653; 0.9999999715302624; -1.430960606817397E-4; -1.6071586832239196E-4; -1.0311838509780014E-4; -0.15736204908728962; 0.04125234767702077; -0.011334049580037536; 0.614990234375; -0.57421875; 0.527587890625;0
123;2250918320; 0.9999999795054215; 1.1261577693840591E-4; -1.6346256770244374E-4; -3.98350638990408E-5; -0.1573329695492714; 0.04240718264803859; -0.011464804623705433; 0.61376953125; -0.57421875; 0.528564453125;0
124;2250934987; 0.9999999907852652; 2.625168668723976E-6; -1.3546589332086303E-4; -8.459878814870425E-6; -0.15679437755822695; 0.04400272481452676; -0.012200653596441825; 0.61328125; -0.572265625; 0.52978515625;0
125;2250951654; 0.9999999783290274; -1.965508208134556E-4; -3.6376238563562424E-5; -5.81935454964655E-5; -0.15683889710747606; 0.04247684968947821; -0.012339971899199751; 0.61376953125; -0.57470703125; 0.53125;0
126;2250968321; 0.9999999924147978; -8.992174507300998E-5; 5.166085947622135E-5; -6.64502812821044E-5; -0.15708855770646926; 0.04184736470630114; -0.011714524631373352; 0.616455078125; -0.5732421875; 0.528564453125;0
127;2250984988; 0.9999999975176352; 5.274740176315629E-6; 2.951371009091153E-5; -6.376399953639257E-5; -0.15803255780068853; 0.04261218188320298; -0.011881540904411634; 0.615478515625; -0.571533203125; 0.528076171875;0
128;2251001655; 0.9999999981577667; 8.453692381463207E-7; -5.697041085434008E-5; -2.0931416767566713E-5; -0.15771356116648416; 0.04300677409609388; -0.011559937443345185; 0.616455078125; -0.572265625; 0.528564453125;0
129;2251018322; 0.9999999836080163; -9.405373093161057E-5; -1.279071105427798E-4; -8.704960621891412E-5; -0.15767957431169446; 0.042612742745998286; -0.011221797045205312; 0.6142578125; -0.57373046875; 0.528564453125;0
130;2251034989; 0.999999961102296; 3.975915475917108E-5; -2.612016582026478E-4; -8.937734533326358E-5; -0.15782731887449436; 0.04213323187238963; -0.011856170091609972; 0.615478515625; -0.57275390625; 0.526123046875;0
131;2251051656; 0.9999999568955018; 3.209476046162063E-5; -2.8743678161435865E-4; -5.058673232516409E-5; -0.15725877416482675; 0.043493109288802664; -0.012479836026207195; 0.616943359375; -0.57470703125; 0.528564453125;0
132;2251068323; 0.9999999844896036; 6.475157097868278E-5; -1.6379139118105626E-4; -6.376917316974762E-7; -0.1565469423206179; 0.04276058784247928; -0.012446910852841768; 0.616455078125; -0.571533203125; 0.527099609375;0
133;2251084990; 0.9999999857379025; 1.6583629237734016E-4; 2.8584733494929626E-5; 1.4332898075120061E-5; -0.15685163726335144; 0.0424000572594815; -0.012447695484909423; 0.6142578125; -0.571044921875; 0.527587890625;0
134;2251101657; 0.9999999964575101; 7.015414686577931E-5; 4.226454795497326E-5; -1.941863239990349E-5; -0.1578297719511072; 0.04358052673858457; -0.012761526623409335; 0.615966796875; -0.5732421875; 0.527587890625;0
135;2251118324; 0.999999996762233; -7.774732802808687E-5; -2.072980044048878E-5; -1.0782286327670756E-6; -0.1575285519657979; 0.0425260915016903; -0.011923782040109205; 0.615478515625; -0.5732421875; 0.53076171875;0
136;2251134991; 0.9999999970958315; -2.4389219199047463E-5; -7.069103013118695E-5; -1.470650110180216E-5; -0.15749321911376; 0.04191081569720305; -0.011740361322473442; 0.615966796875; -0.5732421875; 0.528076171875;0
137;2251151658; 0.9999999916325384; 5.637287138697544E-6; -1.2741984539410556E-4; -2.161775184617021E-5; -0.1569681265990287; 0.042876914034308614; -0.012049045293390525; 0.614990234375; -0.57421875; 0.527099609375;0
138;2251168325; 0.9999999896826489; -1.1190581163311036E-4; -8.964784383369563E-5; 8.663451117219001E-6; -0.15675944898017624; 0.04256793315306141; -0.011885396275587611; 0.61767578125; -0.571533203125; 0.525146484375;0
139;2251184992; 0.9999999991854065; 1.088819637104499E-5; 3.6309635843945205E-5; 1.3865227621256972E-5; -0.15719986438716266; 0.04159094023093329; -0.0117253540448281; 0.614501953125; -0.5732421875; 0.526123046875;0
140;2251201659; 0.9999999999421052; -5.1638450048602236E-6; -9.194103014087409E-6; -2.143060994885815E-6; -0.15859218271361825; 0.042123460244778935; -0.01249644273031217; 0.617919921875; -0.5732421875; 0.529296875;0
141;2251218326; 0.9999999841516636; -1.1654725804347704E-4; -1.3387787797791706E-4; -1.3788513749835031E-5; -0.15852643551242313; 0.041866016946428275; -0.012335430077862164; 0.61767578125; -0.571044921875; 0.525146484375;0
142;2251234993; 0.9999999909673019; 6.111388245384763E-5; -1.1944308777434022E-4; -7.989899115767862E-6; -0.1575159251246126; 0.04131721088235128; -0.011696001097994575; 0.61376953125; -0.5732421875; 0.526611328125;0
143;2251251660; 0.9999999878150683; 1.3654171589193298E-4; -6.5219048902887E-5; -3.83757560371012E-5; -0.156917938685519; 0.04287255061021586; -0.01246356379147865; 0.616455078125; -0.570068359375; 0.526611328125;0
144;2251268327; 0.9999999882855539; 9.841179025821267E-5; -9.707615351361999E-5; -6.572847081215416E-5; -0.15716316597962215; 0.04259907182904133; -0.012137651776493855; 0.617431640625; -0.570556640625; 0.528076171875;0
145;2251284994; 0.9999999823208783; 1.5935520393216968E-4; -9.665856676865925E-5; -2.492555952476883E-5; -0.1564905169683147; 0.042191006959306325; -0.011883199304836925; 0.616455078125; -0.569091796875; 0.527587890625;0
146;2251301661; 0.9999999694146473; 2.435526300076582E-4; -4.295589490371788E-5; 2.758980652606269E-6; -0.15683658681700177; 0.04219484074237215; -0.012144665708874628; 0.616943359375; -0.569091796875; 0.529296875;0
147;2251318328; 0.9999999601819038; 2.8071908935207307E-4; 2.8541633611600673E-5; 4.2847043459359754E-6; -0.15733384763786618; 0.04202390220351831; -0.012159539169939663; 0.616455078125; -0.570556640625; 0.527587890625;0
148;2251334995; 0.9999999700992293; 2.239676576561364E-4; 7.994164743935218E-5; 5.7003175731928923E-5; -0.15819775845830594; 0.041889108243424074; -0.01196793878167156; 0.615478515625; -0.57275390625; 0.52978515625;0
149;2251351662; 0.9999999749094676; 2.115448916052004E-4; 5.995063112546051E-5; 4.2845595381590946E-5; -0.1574224743949988; 0.04218517558220547; -0.011883545588008478; 0.616455078125; -0.569580078125; 0.5302734375;0
150;2251368329; 0.9999999430087786; 3.2786682015611274E-4; 4.776170801840119E-5; 6.484294156045012E-5; -0.15741707444754022; 0.04191541019005801; -0.011156180749614952; 0.616455078125; -0.570556640625; 0.528564453125;0
151;2251384996; 0.9999999785532785; 1.9450961823540974E-4; 6.0178037684655024E-5; 3.792169365246512E-5; -0.15770908937471667; 0.04269910035519084; -0.011531533539635482; 0.617431640625; -0.567626953125; 0.5322265625;0
152;2251401663; 0.9999999904618748; 1.202392067421662E-4; -6.149745129352403E-5; -2.8928302236830294E-5; -0.1579503234193257; 0.04208209865254846; -0.011484251372139388; 0.616455078125; -0.569580078125; 0.527587890625;0
153;2251418330; 0.9999999627881395; 1.1420712225234525E-4; -2.451631838815693E-4; -3.57136701243932E-5; -0.1576284956966703; 0.042167112578407454; -0.011458783813523611; 0.617431640625; -0.568115234375; 0.528076171875;0
154;2251434997; 0.9999999548790817; 1.4766166069992565E-4; -2.601068284618369E-4; 2.7969742781575047E-5; -0.15656095750446075; 0.04278066076893687; -0.011792015066233206; 0.617431640625; -0.567138671875; 0.53076171875;0
155;2251451664; 0.9999999959013306; 5.403587605781052E-5; -7.067040406566473E-5; 1.682726710589E-5; -0.15582706577603406; 0.04193955952352571; -0.011537935143618634; 0.616943359375; -0.569580078125; 0.528076171875;0
156;2251468331; 0.9999999845792595; 1.7038654832041145E-4; 4.1589343367731686E-5; 8.957201911519164E-6; -0.15725189187876384; 0.04118501579688018; -0.01131970762114785; 0.617919921875; -0.569580078125; 0.52978515625;0
157;2251484998; 0.9999999758117792; 2.158246092363314E-4; -3.551445080929305E-5; 2.312796620879132E-5; -0.1580273335323471; 0.04217729117578938; -0.01215271256931213; 0.617431640625; -0.569580078125; 0.53076171875;0
158;2251501665; 0.9999999704959259; 1.8322312663612145E-4; -1.4749900924043716E-4; 6.067516368513104E-5; -0.15759608364523772; 0.04142318925306185; -0.011787972955137614; 0.615966796875; -0.570556640625; 0.528076171875;0
159;2251518332; 0.9999999677290754; 1.922067052535087E-4; -1.6154480248414818E-4; 3.875187062546415E-5; -0.15707634810530235; 0.04115198169205149; -0.011530135802363863; 0.615966796875; -0.568603515625; 0.53076171875;0
160;2251534999; 0.9999999556461366; 2.2192783041634356E-4; -1.8545412388421004E-4; -7.115146483793744E-5; -0.1574557640632417; 0.04096577908925739; -0.0116051058489574; 0.616455078125; -0.569091796875; 0.526611328125;0
161;2251551666; 0.99999994040893; 2.1054737637234144E-4; -2.5263595722957444E-4; -1.0500957985554173E-4; -0.15719880464426958; 0.04177260670110048; -0.012267700497560074; 0.619140625; -0.568603515625; 0.52880859375;0
162;2251568333; 0.9999999621218114; 1.2711476150620293E-4; -2.3245423368312149E-4; -7.458714656433107E-5; -0.1574194493752976; 0.04200267739257825; -0.012422851883230425; 0.617431640625; -0.568603515625; 0.528564453125;0
163;2251585000; 0.9999999632820815; 1.9557041650945794E-4; -1.8341243868047477E-4; -3.934367942648454E-5; -0.15710591289888828; 0.04139640660765676; -0.01237363052780434; 0.615966796875; -0.567626953125; 0.5302734375;0
164;2251601667; 0.999999940807528; 3.3218528194130237E-4; -7.018081223325591E-5; -5.579007480022158E-5; -0.15693296496092032; 0.040917981645655445; -0.012721516126214444; 0.618408203125; -0.567626953125; 0.5302734375;0
165;2251618334; 0.9999999477064614; 3.2100143425928956E-4; 4.0235842624358753E-7; -3.930638339832982E-5; -0.15721896628302684; 0.042227929945380625; -0.0130467515072365; 0.618408203125; -0.566650390625; 0.52978515625;0
166;2251635001; 0.9999999796756853; 1.8582294677662453E-4; 5.154146479297018E-5; -5.8838242131320495E-5; -0.15766832435258693; 0.041912729225580474; -0.012178240412758662; 0.61962890625; -0.567626953125; 0.53076171875;0
167;2251651668; 0.9999999525591388; 2.83183438996866E-4; -1.5974733676871192E-5; -1.2014020093620294E-4; -0.15814886635517042; 0.04158337966790714; -0.012437136775859151; 0.617431640625; -0.567626953125; 0.53125;0
168;2251668335; 0.9999999465670114; 2.913218817087032E-4; -6.686720937276737E-5; -1.3238697775497243E-4; -0.15746583272881315; 0.04246948848528778; -0.012647346819168431; 0.62060546875; -0.56494140625; 0.53173828125;0
169;2251685002; 0.9999999351208144; 3.445332588812855E-4; 7.395897088274817E-5; -7.473467211260855E-5; -0.1569396105395224; 0.04208870798149118; -0.012720806365304756; 0.6162109375; -0.56494140625; 0.533447265625;0
170;2251701669; 0.9999999375716593; 2.9925770375319183E-4; 1.8463225043935386E-4; -3.482005480903716E-5; -0.15707489874737077; 0.042509371176889084; -0.013008624530064041; 0.61572265625; -0.566650390625; 0.532958984375;0
171;2251718336; 0.9999999465217497; 2.4596930182248233E-4; 2.1316569679785682E-4; -3.187453541553254E-5; -0.15752646381717753; 0.04129290368222015; -0.011918948251076145; 0.618896484375; -0.569091796875; 0.5322265625;0
172;2251735003; 0.9999998817307723; 4.658481390036606E-4; 1.2683344133879174E-4; -5.862790381572225E-5; -0.1580597359700995; 0.04138975537125597; -0.011605124076760726; 0.617431640625; -0.5654296875; 0.52978515625;0
173;2251751670; 0.9999998325134165; 5.720857615701333E-4; -7.258170233598316E-5; -4.922313199001716E-5; -0.15839629191363933; 0.042076642392885735; -0.012313732379986946; 0.6171875; -0.566650390625; 0.5380859375;0
174;2251768337; 0.9999998522559359; 5.173964601400197E-4; -1.6184388924656015E-4; -3.9944524380275404E-5; -0.1573664065479944; 0.04243141824182954; -0.012688816869486932; 0.618896484375; -0.5634765625; 0.535400390625;0
175;2251785004; 0.9999999447293874; 3.1950127240598647E-4; -7.652830497495434E-5; -5.1025265456472464E-5; -0.1567970694981708; 0.04248304195677917; -0.01294572540071669; 0.62060546875; -0.5625; 0.532958984375;0
176;2251801671; 0.99999998809041; 1.3985687850543577E-4; 3.4887456373866594E-5; -5.515522288385144E-5; -0.15747505726980415; 0.0429222181521979; -0.01325322039759916; 0.619384765625; -0.56298828125; 0.535400390625;0
177;2251818338; 0.9999999773117156; 2.0312474573429967E-4; 5.1854366941550545E-5; -3.7789292634982104E-5; -0.15757095506515786; 0.04082805657710396; -0.012297116981955526; 0.619384765625; -0.56201171875; 0.534423828125;0
178;2251835005; 0.9999998962322951; 4.4838861801657637E-4; 4.132326485017935E-5; 6.91045143821345E-5; -0.15806293948122388; 0.04132087278679164; -0.012824272652033612; 0.618896484375; -0.5625; 0.53857421875;0
179;2251851672; 0.9999998857580498; 4.622175258277017E-4; 5.496649618097483E-5; 1.0870846583982409E-4; -0.1573472107069209; 0.04119927085413278; -0.012604645420102666; 0.6162109375; -0.56396484375; 0.534912109375;0
180;2251868339; 0.9999998426638053; 5.497507786012615E-4; 9.221835942313518E-5; 6.27871022761406E-5; -0.15769274646578718; 0.04069494845969346; -0.012381235775690058; 0.618408203125; -0.5615234375; 0.535888671875;0
181;2251885006; 0.9999998364892758; 5.70124555205602E-4; -4.404626078191587E-5; 6.272168521503919E-6; -0.15851325824393936; 0.040642196608943956; -0.012718545022192745; 0.619873046875; -0.5625; 0.5380859375;0
182;2251901673; 0.999999862625844; 4.868676509775724E-4; -1.9105373508021553E-4; -3.4736927819356556E-5; -0.1584754440411037; 0.0419732559185045; -0.012549512972227062; 0.6171875; -0.5615234375; 0.5390625;0
183;2251918340; 0.9999999013716206; 3.2177635287691797E-4; -3.0505094154492657E-4; -2.5703127228493553E-5; -0.15800554235441058; 0.04178986123044487; -0.013008486594419355; 0.618896484375; -0.56298828125; 0.53759765625;0
184;2251935007; 0.9999998813593496; 3.854109458333449E-4; -2.822013905421917E-4; 9.540474204455807E-5; -0.15738453433973282; 0.040794480704435; -0.013074443292120055; 0.61767578125; -0.558837890625; 0.540283203125;0
185;2251951674; 0.9999998236458176; 5.821297675483103E-4; -1.1543398152669138E-4; 2.254469522533498E-5; -0.15679839617936547; 0.04118698773263625; -0.013923329744007324; 0.6181640625; -0.558837890625; 0.53857421875;0
186;2251968341; 0.9999998319601431; 5.446596059066264E-4; 1.6895904469499404E-4; 1.0429976333664603E-4; -0.1559721406789538; 0.04134991110748949; -0.013488378785958348; 0.617919921875; -0.56201171875; 0.535888671875;0
187;2251985008; 0.9999997295746887; 5.844911012198514E-4; 4.384435364222506E-4; 8.359406353880551E-5; -0.15598380864319525; 0.0411507408892805; -0.012750770511061087; 0.6171875; -0.559326171875; 0.540771484375;0
188;2252001675; 0.9999994752718533; 9.119286046993316E-4; 4.661829159194886E-4; 2.270962154460321E-5; -0.15710238085177383; 0.0398503753168812; -0.011344805382794778; 0.61669921875; -0.558349609375; 0.541259765625;0
189;2252018342; 0.9999985455327021; 0.0016837094401257538; 2.7024397215130724E-4; 3.198745409688231E-5; -0.15882034467701742; 0.04013996829914394; -0.01122527184048255; 0.61767578125; -0.558837890625; 0.543212890625;0
190;2252035009; 0.9999958398674028; 0.0028768161013251053; -7.156017639342594E-6; 2.1006141523438604E-4; -0.16033674576708262; 0.04108110123805061; -0.013095963812226552; 0.615966796875; -0.5546875; 0.54736328125;0
191;2252051676; 0.9999907904048422; 0.004222208778592709; -4.2618144087885895E-4; 6.406464768718424E-4; -0.16102817476620632; 0.04775867804305296; -0.01929317165693859; 0.616943359375; -0.554931640625; 0.550048828125;0
192;2252068343; 0.9999876796700002; 0.004782850565416261; -9.900093233729537E-4; 8.858499971579614E-4; -0.161107139703895; 0.06195409160503541; -0.03237702105433066; 0.6162109375; -0.546142578125; 0.5546875;0
193;2252085010; 0.999981672209292; 0.005508346566778212; -0.002235769061873838; 0.0011466038157109673; -0.1617901052953203; 0.07284061716852883; -0.045887234824328396; 0.618896484375; -0.545654296875; 0.557861328125;0
194;2252101677; 0.9999569739058798; 0.008413854861866469; -0.00359274364665424; 0.0015328328182078743; -0.16091144599800744; 0.08821992708377605; -0.05882069410125418; 0.621337890625; -0.543212890625; 0.564697265625;0
195;2252118344; 0.9999041865732566; 0.01241330821701564; -0.005431039256474036; 0.0028339486547682706; -0.1732148207578157; 0.11510694357263887; -0.0908771259342588; 0.622314453125; -0.536865234375; 0.568359375;0
196;2252135011; 0.999865156317597; 0.01452879231162266; -0.005418120250355208; 0.005406232413222523; -0.17355253741578858; 0.1431370918251853; -0.12159560538580264; 0.623291015625; -0.531982421875; 0.572998046875;0
197;2252151678; 0.9998510897994519; 0.014594386999315532; 2.738656379169813E-4; 0.00920473207512329; -0.16468722258765672; 0.16797908190783034; -0.14506559982941394; 0.615478515625; -0.525634765625; 0.587158203125;0
198;2252168345; 0.9997763954761619; 0.012517218648407177; 0.010929644802743499; 0.013077505514695055; -0.16455902794827737; 0.18196213508795794; -0.16883870444025445; 0.59521484375; -0.52978515625; 0.611083984375;0
199;2252185012; 0.9995346688151723; 0.013231513723227506; 0.022820576071000413; 0.015316467899738008; -0.19124879399676614; 0.16458711343350013; -0.18134150692867623; 0.558837890625; -0.53662109375; 0.64892578125;0
200;2252201679; 0.9991639321682946; 0.017151947974710816; 0.032814605373615136; 0.017333464998043616; -0.22753386086216157; 0.16148135408645042; -0.19610247145710058; 0.509521484375; -0.5390625; 0.700927734375;0
201;2252218346; 0.9987838570195089; 0.017847614188784416; 0.04138461392523268; 0.019989581167724372; -0.25767420366643357; 0.18235217096334078; -0.213707049413896; 0.440673828125; -0.535888671875; 0.759033203125;0
202;2252235013; 0.9983871988438751; 0.013805755643424525; 0.05010408722028748; 0.0228469415812399; -0.27667584844261905; 0.18131445607428992; -0.22199755431410956; 0.35595703125; -0.53515625; 0.817626953125;0
203;2252251680; 0.9979947441905646; 0.00963446443452702; 0.05745376748029394; 0.024753429366245864; -0.2973904196232256; 0.16404020226347554; -0.22191015480522713; 0.246337890625; -0.535888671875; 0.864013671875;0
204;2252268347; 0.9977348031663966; 0.006949144371771854; 0.061888905317339794; 0.025430991754810894; -0.31322018471087987; 0.15076644328405714; -0.2227921355713966; 0.129150390625; -0.535400390625; 0.903076171875;0
205;2252285014; 0.9976488582599994; 0.0039234192384673405; 0.06330316620827728; 0.025962887782489456; -0.3273690168312512; 0.14129750276666556; -0.2306359329279582; 2.44140625E-4; -0.533935546875; 0.91650390625;0
206;2252301681; 0.9975861387307535; 0.0018200153132540975; 0.0641035712051088; 0.02663297796486025; -0.30421394862019546; 0.11787084245302129; -0.21937549071776227; -0.1279296875; -0.527587890625; 0.913818359375;0
207;2252318348; 0.9973897251302294; 0.002329105218519395; 0.06705115804508625; 0.026691827931771443; -0.27991228702164556; 0.09709130762964058; -0.20414932437431224; -0.261962890625; -0.518310546875; 0.889404296875;0
208;2252335015; 0.9973129462315594; 0.00293789236164399; 0.06869082107755246; 0.02529480514037835; -0.27617262146938587; 0.08120614152713738; -0.19764180505671414; -0.38916015625; -0.495361328125; 0.851806640625;0
209;2252351682; 0.9973985907118155; 0.002945130542338914; 0.06786271131917906; 0.024125295119079185; -0.2637790281534104; 0.06470873605945839; -0.18502549383419153; -0.511474609375; -0.472900390625; 0.796142578125;0
210;2252368349; 0.9976616439217503; 0.0021218442830670536; 0.06432813667886457; 0.022992017214993443; -0.25437803898903444; 0.050822459465236135; -0.1719981309779206; -0.6142578125; -0.44384765625; 0.72412109375;0
211;2252385016; 0.9979039912181031; 0.002768892811508439; 0.06103980375523738; 0.021309619919192283; -0.2304923714197695; 0.02991613854696788; -0.15634354173119042; -0.702880859375; -0.416259765625; 0.64990234375;0
212;2252401683; 0.9980307522701028; 0.004764049350586053; 0.05927741980718144; 0.019952665434993078; -0.211352133881968; 0.023800968760123303; -0.15161204440293402; -0.775146484375; -0.381591796875; 0.568603515625;0
213;2252418350; 0.9981355492680797; 0.005253241475243087; 0.05773721753431532; 0.01908513695802994; -0.19644109770811988; 0.026197476146901117; -0.14562228138830485; -0.83349609375; -0.348388671875; 0.47900390625;0
214;2252435017; 0.9982880204454663; 0.005516078063558971; 0.055387641839227904; 0.017966920976017875; -0.1787844998047699; 0.012769183252014772; -0.12855974497175227; -0.88037109375; -0.314453125; 0.388427734375;0
215;2252451684; 0.9984452467131555; 0.007565383578769291; 0.052634496025213036; 0.016717180246197175; -0.16136601554597568; 0.0014616334143178512; -0.11000095821969758; -0.917236328125; -0.281982421875; 0.300537109375;0
216;2252468351; 0.9985110589572436; 0.009220549686052681; 0.05144203056574654; 0.01563214939936064; -0.12545098468442767; 0.005923299961984397; -0.08621915716796094; -0.93408203125; -0.24951171875; 0.2158203125;0
217;2252485018; 0.9985145045252131; 0.009426302831088529; 0.051881326002787276; 0.013720680737393022; -0.09395916097893467; 0.00982394559588141; -0.061088558752117564; -0.950927734375; -0.223876953125; 0.124755859375;0
218;2252501685; 0.9985595432813839; 0.007635857890747444; 0.05175175583257153; 0.011928451877433188; -0.07811254696218001; 0.017780099210951285; -0.03345101792939228; -0.946533203125; -0.203857421875; 0.032470703125;0
219;2252518352; 0.9987719270548122; 0.004281794324490218; 0.04819171195095468; 0.010670654329322128; -0.06362544917903426; 0.02110261024206839; 0.00244166344209467; -0.9345703125; -0.185546875; -0.058349609375;0
220;2252535019; 0.9990377108648726; 0.004819310853119041; 0.042703940084004806; 0.00876356172329601; -0.033584252205755664; 0.005216183872808557; 0.048949262740473946; -0.922119140625; -0.167724609375; -0.135009765625;0
221;2252551686; 0.9991244608499272; 0.008777304502991079; 0.04037683675928988; 0.006556043800774015; 0.010716000616400344; 0.015230738782115304; 0.09575789167679394; -0.8994140625; -0.161865234375; -0.203857421875;0
222;2252568353; 0.9991653737573225; 0.009060774528440674; 0.03940520109479701; 0.005804168847787339; 0.03720767978926687; 0.05328581719030796; 0.14122843100055765; -0.872314453125; -0.15966796875; -0.267578125;0
223;2252585020; 0.9992662519621776; 0.0027087954019821836; 0.03769752595235213; 0.0062061786957842155; 0.05744127411002564; 0.0913585147208471; 0.2085769751436853; -0.843017578125; -0.155029296875; -0.328369140625;0
224;2252601687; 0.9994161201556516; -0.006023457585667802; 0.03308961056898136; 0.0060178404873289515; 0.05545769207641936; 0.09839322644289475; 0.2925090719462615; -0.808837890625; -0.138916015625; -0.384033203125;0
225;2252618354; 0.9996713546713355; -0.01336320421751791; 0.021377568926586044; 0.004648329743779046; 0.03520310720788518; 0.06860024575452903; 0.32749327415150065; -0.782958984375; -0.122314453125; -0.4267578125;0
226;2252635021; 0.9999077686691253; -0.012960296379854797; 0.001872619113577362; 0.0036025228011352106; 0.029753317711178666; 0.002737662830657482; 0.30834501679340387; -0.77490234375; -0.09716796875; -0.439697265625;0
227;2252651688; 0.9998311263627745; -0.004468385447224554; -0.01748249725076007; 0.0034806001663258983; 0.05829790223667477; -0.030176368714930346; 0.2463836575880475; -0.7880859375; -0.08447265625; -0.41943359375;0
228;2252668355; 0.999591066261248; 0.0017070894899831601; -0.02833727295884453; 0.0034329371433649003; 0.09933340670121976; -0.01043143650989747; 0.15591461469183693; -0.814453125; -0.080322265625; -0.383056640625;0
229;2252685022; 0.9995114895371254; 0.0016876863121073615; -0.03115658357510459; 0.0017892171797176395; 0.12934978232468564; 0.010497195006065475; 0.08066412926851013; -0.84765625; -0.077392578125; -0.330078125;0
230;2252701689; 0.9995638757331066; -0.0017987678650279726; -0.0294706275193902; -5.52156854300323E-4; 0.14203648237238586; 0.019008363320345015; 0.03227165036120558; -0.872802734375; -0.074951171875; -0.281494140625;0
231;2252718356; 0.999600387148649; -0.005336079383337661; -0.02756100836620862; -0.003314074067291673; 0.1338304163361298; 0.01025846239876968; 0.010455765021622508; -0.89306640625; -0.07861328125; -0.22998046875;0
232;2252735023; 0.9995867987913487; -0.005311871460547041; -0.0276733623649893; -0.005674567742684211; 0.1205585778789722; -0.004092944139641223; 0.006817862918664749; -0.912353515625; -0.081787109375; -0.186767578125;0
233;2252751690; 0.999551525452709; -0.0033892166562281556; -0.028868808630484133; -0.0072009071564767; 0.10579193456042768; -0.001020111799596178; 0.006645873165027273; -0.9267578125; -0.095458984375; -0.133056640625;0
234;2252768357; 0.9995221402828064; -0.0015718748699701246; -0.029852009039743225; -0.007866247527391457; 0.09564851105382093; 0.005686377443661284; 0.00878625572939648; -0.9423828125; -0.10791015625; -0.083984375;0
235;2252785024; 0.9995388187244151; -6.686789659965942E-4; -0.029150054057817624; -0.00848393068498027; 0.09026746026607868; 0.016315680195366875; 0.008305860965459804; -0.95166015625; -0.1240234375; -0.0283203125;0
236;2252801691; 0.999597392346774; -0.0014367642865718566; -0.0267327653956318; -0.009399371054291283; 0.0792060418136786; 0.027385740574605282; 8.459258297623708E-4; -0.953125; -0.13818359375; 0.02197265625;0
237;2252818358; 0.9995965047665814; -0.0037816208014735397; -0.026217206620188283; -0.010255977748709679; 0.047173824130087416; 0.03745015014625892; -0.0169807173296853; -0.959228515625; -0.1572265625; 0.0693359375;0
238;2252835025; 0.99943051313783; -0.006433715705309706; -0.03146726605332762; -0.01034736093921318; 0.01428067334529742; 0.032462588177058174; -0.038070815372893814; -0.95703125; -0.177001953125; 0.12109375;0
239;2252851692; 0.9992026394208785; -0.00513645940144658; -0.03816440371038766; -0.010544213986720953; 0.012710861281826516; 0.02179131047290594; -0.04648663391392607; -0.9501953125; -0.19384765625; 0.189697265625;0
240;2252868359; 0.999134218996816; -0.0025058439801227683; -0.04020865487947712; -0.010382545369653662; 0.023438527026590383; 0.035613251975867524; -0.06334897247851291; -0.944091796875; -0.21337890625; 0.258544921875;0
241;2252885026; 0.9992377353325255; -0.0031694578453030364; -0.037351332341324484; -0.010898660322282707; 0.03519247277818101; 0.06441841522672687; -0.0800633246399015; -0.92724609375; -0.233642578125; 0.325439453125;0
242;2252901693; 0.9993640458310469; -0.006492350304987737; -0.032624102769335424; -0.012846058002919936; 0.023588603720359674; 0.06875957667368122; -0.08898366301368169; -0.906982421875; -0.255615234375; 0.38671875;0
243;2252918360; 0.9993253283664438; -0.006974521849655857; -0.03347538389019362; -0.013403089333137776; -0.035775462988650364; 0.05678767012218213; -0.11661097255532163; -0.87939453125; -0.284912109375; 0.43701171875;0
244;2252935027; 0.9990574190040424; -0.0059117826706698295; -0.041358242896220594; -0.011782194327591922; -0.054660657871149224; 0.05615893025334975; -0.1337731642273258; -0.850341796875; -0.309326171875; 0.497802734375;0
245;2252951694; 0.9988965604070282; -0.004303974260080223; -0.04525582784135307; -0.011791838659450328; -0.032991861275804654; 0.06410755585542541; -0.13723918362457246; -0.805908203125; -0.333251953125; 0.56787109375;0
246;2252968361; 0.9990292283259663; -0.004805615836218913; -0.04197759088830678; -0.012465507212819416; -0.019562956650886063; 0.08270570973480057; -0.1408582300082069; -0.757568359375; -0.352294921875; 0.626220703125;0
247;2252985028; 0.999186677960374; -0.005424118920308252; -0.037507899449760636; -0.013773852014478673; -0.045361290668204116; 0.07337642921459005; -0.1492285361782728; -0.7099609375; -0.376220703125; 0.67724609375;0
248;2253001695; 0.9991499400462928; -0.0019974982838958932; -0.038604398615150755; -0.014321582093398233; -0.08865197443889723; 0.06641072252166301; -0.17546835476316097; -0.65771484375; -0.39990234375; 0.72802734375;0
249;2253018362; 0.999081767921562; -0.003136213442634983; -0.040285036500273264; -0.014244332421706975; -0.08771916243117754; 0.10329688389276463; -0.1926048868542537; -0.595458984375; -0.4169921875; 0.772216796875;0
250;2253035029; 0.9990542031561709; -0.007961389302057864; -0.03998252534962644; -0.015123263637064177; -0.087548013950314; 0.10854738087822816; -0.1807268096772833; -0.532958984375; -0.444091796875; 0.810302734375;0
251;2253051696; 0.9990382490994381; -0.008058862858638327; -0.03979372625164835; -0.01655569137075275; -0.1215388875692606; 0.08431961348396468; -0.17488354626574737; -0.46240234375; -0.471923828125; 0.837646484375;0
252;2253068363; 0.9989843716647957; -0.0016640106494014428; -0.0421516674305888; -0.015833293115242453; -0.16287185580905408; 0.07791833046718313; -0.20943156185989475; -0.38623046875; -0.48876953125; 0.865966796875;0
253;2253085030; 0.9990310189129907; 0.0020693492114356726; -0.04204403066297671; -0.012846810075794137; -0.14445977622909967; 0.11851748889499002; -0.2451404919727489; -0.30859375; -0.49462890625; 0.89453125;0
254;2253101697; 0.999350204498902; -0.0010225949970407155; -0.03421999339750965; -0.011274534107851841; -0.09587664616461061; 0.14223158849724105; -0.2268292813060172; -0.239990234375; -0.500244140625; 0.910400390625;0
255;2253118364; 0.9995856620142867; -0.005317471891309378; -0.025614078470650645; -0.012006155598050074; -0.10632277430677277; 0.12851689655581436; -0.1942354491365391; -0.1865234375; -0.50927734375; 0.91650390625;0
256;2253135031; 0.9995952676683275; -0.007195262055147755; -0.02444912564346183; -0.012639988699071625; -0.14535472401091512; 0.10977840752230919; -0.17984810615088098; -0.130615234375; -0.52392578125; 0.915771484375;0
257;2253151698; 0.9995081087340487; -0.004511577959671831; -0.028549808281915418; -0.012169416019883696; -0.15654663603448216; 0.09040171683283928; -0.1799473670265756; -0.076416015625; -0.535400390625; 0.91455078125;0
258;2253168365; 0.9995080990939071; -9.160315048878376E-4; -0.029520338647226838; -0.010548475630124565; -0.12326826930340329; 0.10630295116357487; -0.17950082673417617; -0.017578125; -0.53515625; 0.914306640625;0
259;2253185032; 0.9996560704980724; -0.001970130463638614; -0.02441078930709018; -0.009379374590778868; -0.09896988717796754; 0.12064130753659844; -0.16735214722250458; 0.034423828125; -0.53857421875; 0.910888671875;0
260;2253201699; 0.999748386157892; -0.004839469674314811; -0.019403917487813286; -0.010160309743714957; -0.11349130907634157; 0.11121522163504724; -0.15228431517034713; 0.080322265625; -0.5439453125; 0.90283203125;0
261;2253218366; 0.9997166954356184; -0.006939099809541521; -0.019232430324136796; -0.012185704121936704; -0.1342613940119572; 0.11063547695595903; -0.14816788021150237; 0.119873046875; -0.55029296875; 0.890625;0
262;2253235033; 0.9996753090920208; -0.00719272570313767; -0.020883783507456514; -0.012704671390701194; -0.13848115707677391; 0.109879778570189; -0.14135846745850536; 0.16650390625; -0.554931640625; 0.87353515625;0
263;2253251700; 0.999711780282096; -0.0057588273991180244; -0.020717953779161; -0.010675142312585874; -0.13541518679475506; 0.11204473409594348; -0.1360959343750341; 0.21142578125; -0.5625; 0.8564453125;0
264;2253268367; 0.9997667969438433; -0.003950702762104075; -0.019693076094480958; -0.007932618122079016; -0.13621696030144442; 0.11146548958933157; -0.13964274782481084; 0.252197265625; -0.56201171875; 0.8427734375;0
265;2253285034; 0.9998173133516162; -0.002033632377640801; -0.01813141848581762; -0.005697010215966359; -0.12625156586638397; 0.1117553108955859; -0.13724609618302255; 0.282470703125; -0.563232421875; 0.82666015625;0
266;2253301701; 0.9998712598427351; -0.0017390459058267; -0.015287820759336436; -0.004552141943038102; -0.12116079438373381; 0.11930070588748116; -0.1399001220180967; 0.313232421875; -0.560791015625; 0.814208984375;0
267;2253318368; 0.9998963587245477; -0.0023651542030982547; -0.013696310512548495; -0.0037535227893285565; -0.12406397090147259; 0.1132965540478433; -0.1460807393105657; 0.33544921875; -0.560791015625; 0.80126953125;0
268;2253335035; 0.9999176968156316; -0.001494119116325271; -0.012441453663913029; -0.0027527138822872055; -0.12138888806618324; 0.10810915275552896; -0.1494657263925367; 0.358642578125; -0.558837890625; 0.79150390625;0
269;2253351702; 0.9999478531268442; 5.116333032224099E-4; -0.010100329277145353; -0.0014186637626277812; -0.11476729113800133; 0.11297780297146162; -0.15014225087672056; 0.375732421875; -0.558837890625; 0.783203125;0
270;2253368369; 0.9999791021653496; 0.0019439914585215323; -0.0061656877597090496; 2.0597094383956183E-5; -0.11223335724205175; 0.11807549589048941; -0.14535013963786642; 0.384765625; -0.55517578125; 0.78125;0
271;2253385036; 0.9999923840129994; 0.002846204019698942; -0.0020937246526646918; 0.0016575149335862906; -0.11670549034162153; 0.11765802453753209; -0.1408149588264835; 0.388916015625; -0.552734375; 0.7802734375;0
272;2253401703; 0.9999864204563407; 0.0037001538025766834; 0.0012997763069004522; 0.003431959542892715; -0.12095039304152935; 0.11495238417725892; -0.13654305079349327; 0.38623046875; -0.5517578125; 0.784423828125;0
273;2253418370; 0.9999697333266953; 0.004145158473077289; 0.004737484701348438; 0.00457234408982249; -0.11982659223500147; 0.11574942630088111; -0.13193685881025602; 0.376708984375; -0.549560546875; 0.7880859375;0
274;2253435037; 0.9999510232508277; 0.0038341638835470704; 0.0077671063127135185; 0.0047877287374844535; -0.1258418105052804; 0.11729273593389623; -0.13139847187352524; 0.3623046875; -0.54638671875; 0.79931640625;0
275;2253451704; 0.9999273077162957; 0.004671678191860318; 0.009686204991110283; 0.00545271849468837; -0.13527272760554676; 0.11485940713935734; -0.13501885076939427; 0.343017578125; -0.5458984375; 0.812255859375;0
276;2253468371; 0.9998902971050492; 0.007151529539812268; 0.010748104037118596; 0.007261380035830101; -0.1420409839216309; 0.11788782466406508; -0.14597645189357888; 0.319580078125; -0.543212890625; 0.826416015625;0
277;2253485038; 0.9998286982727493; 0.009540385786146827; 0.012690218314154011; 0.009513858755011819; -0.14337513853852138; 0.12133889747295436; -0.15409422986170868; 0.295166015625; -0.53662109375; 0.845947265625;0
278;2253501705; 0.9997212004397185; 0.011817094816627183; 0.017053260309628424; 0.011272265711702423; -0.1406388518784854; 0.1189394317144819; -0.15264462832767073; 0.260498046875; -0.52734375; 0.86474609375;0
279;2253518372; 0.9995674247166279; 0.01298051421613819; 0.023449140266464556; 0.012108159101070272; -0.1334200681258786; 0.12118306451013476; -0.1453198596388339; 0.21533203125; -0.5126953125; 0.892578125;0
280;2253535039; 0.999453186312897; 0.011260873064352306; 0.028607022941646913; 0.012172072347883867; -0.14925152570369693; 0.1207339998474545; -0.1446486655384232; 0.1591796875; -0.5029296875; 0.916748046875;0
281;2253551706; 0.9994765530404879; 0.00917139985959517; 0.028670574136094362; 0.011853418309791532; -0.17122217840627318; 0.1137892134758498; -0.152345459850161; 0.099853515625; -0.490234375; 0.936279296875;0
282;2253568373; 0.9995583022638203; 0.008130880836483861; 0.02606822689391736; 0.011727604141484382; -0.1745989278808271; 0.10846983321362022; -0.1590283666118101; 0.04443359375; -0.4814453125; 0.947998046875;0
283;2253585040; 0.9995587613243069; 0.00831864342648378; 0.025798267552584523; 0.012146284314369262; -0.15744724942284508; 0.10730641279738207; -0.1617515653352072; -0.00830078125; -0.466796875; 0.95556640625;0
284;2253601707; 0.9994787194941513; 0.008756912178848872; 0.028234088539384142; 0.012978521170519564; -0.15004890323871767; 0.10386059125905166; -0.16816909045690281; -0.0654296875; -0.451171875; 0.964599609375;0
285;2253618374; 0.9994016474103034; 0.00892715033880119; 0.03052652761025279; 0.013593537157804704; -0.1519415152566196; 0.10087252701222144; -0.1805565913587109; -0.130126953125; -0.434814453125; 0.967041015625;0
286;2253635041; 0.9993582449662943; 0.008215130761283385; 0.03213371194115736; 0.013529020709045714; -0.1502995199809397; 0.09901390048648423; -0.19420306696103096; -0.1943359375; -0.41845703125; 0.966064453125;0
287;2253651708; 0.9992943344499445; 0.006680414736834339; 0.03462937109691592; 0.012923306566757666; -0.13341550422400436; 0.09174032965590286; -0.19481513378951704; -0.2646484375; -0.40283203125; 0.957763671875;0
288;2253668375; 0.9991831678232985; 0.006125563944779477; 0.03807292388764045; 0.012080027798088921; -0.12574491027662404; 0.08044721758042556; -0.1890676943973785; -0.33154296875; -0.3857421875; 0.943359375;0
289;2253685042; 0.9991210587930854; 0.005620012029381838; 0.03998944515644676; 0.011241424155914339; -0.12072198102461179; 0.0779461713564883; -0.18295978682874506; -0.402587890625; -0.366943359375; 0.9189453125;0
290;2253701709; 0.9991254476369013; 0.00405493636871504; 0.040259616958745005; 0.010538530150946523; -0.11434006023466331; 0.07227731875383395; -0.17320294745558465; -0.47412109375; -0.351318359375; 0.88525390625;0
291;2253718376; 0.9991724220928649; 0.004461829115067706; 0.03913334408332992; 0.010156002701915691; -0.09866592202646193; 0.057310855119456; -0.15873816950011094; -0.541748046875; -0.33642578125; 0.849365234375;0
292;2253735043; 0.9991925562193489; 0.005317916043262122; 0.03867596821632708; 0.00949341073218335; -0.08118306353863912; 0.056796084014696935; -0.15154709055108373; -0.604736328125; -0.318603515625; 0.811279296875;0
293;2253751710; 0.9991846319036576; 0.005294185859552991; 0.039013268374765264; 0.008944710971039329; -0.06250896784324064; 0.05500305106420886; -0.14404071830811488; -0.65869140625; -0.299560546875; 0.76611328125;0
294;2253768377; 0.9991803802259502; 0.004891769358477932; 0.03922155513567183; 0.008735443709873947; -0.06003091278823047; 0.047483572370718895; -0.141880694234602; -0.714599609375; -0.281982421875; 0.71875;0
295;2253785044; 0.9992257517317735; 0.005212087139927907; 0.038049375530277325; 0.008542613503716713; -0.05105347619192799; 0.040583407567460095; -0.13686895611489877; -0.762451171875; -0.26416015625; 0.66796875;0
296;2253801711; 0.9992786232479317; 0.004697850820625155; 0.03665944591536514; 0.00873202969324871; -0.044998161424182115; 0.04354029808924257; -0.13295024082001047; -0.803466796875; -0.244140625; 0.611328125;0
297;2253818378; 0.999308002674357; 0.0049552300870735755; 0.03586339248131537; 0.008531035429675706; -0.02025828806330912; 0.03204095797925245; -0.11638821259852916; -0.83984375; -0.231201171875; 0.557861328125;0
298;2253835045; 0.9992683371319813; 0.006783577950569164; 0.03686201949585322; 0.007613474526193653; -0.007272433625611918; 0.027189762158865524; -0.10655148978533252; -0.8720703125; -0.212890625; 0.501220703125;0
299;2253851712; 0.9992642555252048; 0.007242998874852691; 0.03707628949265757; 0.006620827320945767; 0.004485283828043089; 0.029483244026096717; -0.09812401959483433; -0.90087890625; -0.197509765625; 0.441650390625;0
300;2253868379; 0.9992773075211535; 0.00739607876049353; 0.03687908564961934; 0.005485775596092035; 0.007227563978860582; 0.01899629390713103; -0.09140074190911321; -0.920166015625; -0.181640625; 0.376220703125;0
301;2253885046; 0.999337093630848; 0.009125849282076048; 0.03491557525902311; 0.004795286504702679; 0.018862667291829817; 0.0163529221769372; -0.08505863549987638; -0.93701171875; -0.17041015625; 0.318603515625;0
302;2253901713; 0.9993810371364005; 0.009131950953927492; 0.033737493920369184; 0.003991439329446456; 0.041103189992254666; 0.028287620731521437; -0.07455328373149879; -0.94921875; -0.159912109375; 0.25634765625;0
303;2253918380; 0.9994125807145683; 0.007600490638435042; 0.03331451240506212; 0.002620937754787556; 0.05338284466539883; 0.02733100400000597; -0.060385932525978965; -0.95947265625; -0.15380859375; 0.19677734375;0
304;2253935047; 0.9994503365522844; 0.006570836383492817; 0.03246023949363331; 0.0014770669459462649; 0.06301029143818684; 0.032064981101446795; -0.045101582359507154; -0.961181640625; -0.14892578125; 0.13671875;0
305;2253951714; 0.999490456932198; 0.006526243817235822; 0.031228121977135315; 0.0010193335495900515; 0.07090096996954363; 0.03148479611889024; -0.03152567122089413; -0.95947265625; -0.149169921875; 0.08154296875;0
306;2253968381; 0.9995322501991556; 0.006792903616256729; 0.029807200158429307; 8.173683307686197E-4; 0.07571316952702001; 0.03726504019758531; -0.024286971727002005; -0.956298828125; -0.146728515625; 0.026611328125;0
307;2253985048; 0.9996187842130648; 0.008306375380540076; 0.026301960182276877; 0.0012236286208229254; 0.08521763247323538; 0.033646964861910676; -0.0175412631610833; -0.9501953125; -0.148681640625; -0.021484375;0
308;2254001715; 0.9996682166789665; 0.00955061871892493; 0.023878467897562764; 0.001435623504129624; 0.10235787691584075; 0.04215113802757846; -0.013077898375955346; -0.94189453125; -0.1484375; -0.063720703125;0
309;2254018382; 0.9997013201037341; 0.00951477245745952; 0.022470930404645484; 0.0013405128435269866; 0.11734129563296047; 0.0435305120344751; -0.0072002020408992486; -0.931884765625; -0.1494140625; -0.102783203125;0
310;2254035049; 0.999738996512102; 0.007637814321309555; 0.021518210758346066; 7.544873278241271E-4; 0.12183162108924186; 0.058741326538559235; -0.00216315289398223; -0.922119140625; -0.1533203125; -0.140380859375;0
311;2254051716; 0.9997885454845084; 0.0037305730919048874; 0.02021773944800354; 4.360664971548856E-4; 0.12587853404765165; 0.06254949596805241; 0.015567344082729879; -0.909423828125; -0.15380859375; -0.173583984375;0
312;2254068383; 0.99981399872184; 0.002146502918890514; 0.019157842971163356; 5.809799962437356E-4; 0.13085872881139507; 0.05461808239532989; 0.044560258239735445; -0.896240234375; -0.151611328125; -0.210693359375;0
313;2254085050; 0.9998548382110489; 0.0015299515516205564; 0.01690925472916835; 0.0014278860987254618; 0.12781945932914407; 0.0598940719560098; 0.064668893593713; -0.884033203125; -0.154541015625; -0.2373046875;0
314;2254101717; 0.9999095742293783; 8.884057036460669E-4; 0.01318597440566527; 0.002486800897206376; 0.12323663986423575; 0.06027543755065724; 0.07571072407531154; -0.8740234375; -0.1494140625; -0.265869140625;0
315;2254118384; 0.9999555573503167; 2.1983484789378505E-4; 0.008684153808724145; 0.003663395895007471; 0.12417820567003723; 0.05867512122216349; 0.07802008563888638; -0.866943359375; -0.145751953125; -0.27783203125;0
316;2254135051; 0.9999818713844864; -9.719409440099303E-4; 0.004021558906648738; 0.00437484824220713; 0.12459925690004237; 0.04770989694115199; 0.07360953421152501; -0.86328125; -0.14111328125; -0.287841796875;0
317;2254151718; 0.9999892799564192; -0.0014134537903041366; -3.1240172702126645E-4; 0.0043982412150814785; 0.12725133182499362; 0.028329945995672297; 0.06123393668018928; -0.86474609375; -0.1328125; -0.291015625;0
318;2254168385; 0.9999855872496997; -0.0012662422523671835; -0.0034957247451236077; 0.0038732198411621233; 0.13442311284626862; 0.013367844070750604; 0.043333210192171207; -0.86376953125; -0.124755859375; -0.286865234375;0
319;2254185052; 0.9999799568073593; -8.537222124534449E-4; -0.005642183614770425; 0.002742791642305065; 0.137847571137579; 0.0025369826960728176; 0.02497170760445327; -0.87255859375; -0.116943359375; -0.27783203125;0
320;2254201719; 0.999964693285162; -9.415539811715445E-4; -0.008201138954467004; 0.0015706619820712864; 0.13831911726811802; 6.943006585074241E-4; 0.010137980313288247; -0.8779296875; -0.114990234375; -0.264892578125;0
321;2254218386; 0.999948808451704; -0.0015959205715012081; -0.009990828760802706; -1.2982380091369763E-4; 0.14517039503539875; 0.003121495635497927; 0.008037022432075387; -0.88720703125; -0.11083984375; -0.249267578125;0
322;2254235053; 0.9999436434055544; -0.0024059828865377053; -0.010190112891022786; -0.0017558070632159861; 0.14811480744936167; 0.00821546034296012; 0.013656166345961295; -0.893798828125; -0.10986328125; -0.233642578125;0
323;2254251720; 0.9999426381227972; -0.0031148241919878306; -0.00973406302177335; -0.003204114754780774; 0.14478620328569825; 0.01085671989309922; 0.026032844552287257; -0.89794921875; -0.114013671875; -0.212890625;0
324;2254268387; 0.9999338086451979; -0.003430699476375476; -0.009970743270493717; -0.004603575571830554; 0.13594210454495823; 0.014293177833611496; 0.04209399278706972; -0.906005859375; -0.122314453125; -0.19921875;0
325;2254285054; 0.9999083975791125; -0.0037024808407031262; -0.011779854797189127; -0.005542842894449508; 0.12022012057432688; 0.011083505527483339; 0.05471243226859397; -0.908935546875; -0.1259765625; -0.1826171875;0
326;2254301721; 0.9998718657386099; -0.00200380800507044; -0.014637297271082568; -0.006163309700801589; 0.11047618915322628; 0.0031697468591484375; 0.06116323251125094; -0.917724609375; -0.137451171875; -0.155517578125;0
327;2254318388; 0.9998216709447818; 8.707161977078437E-5; -0.017745258455678762; -0.006459452767742958; 0.0968217452647141; 0.010201525253159094; 0.0511970399367446; -0.926025390625; -0.145751953125; -0.12841796875;0
328;2254335055; 0.9997606922354225; 1.57359708736593E-4; -0.020716002080200194; -0.0070271442765985626; 0.09051025104898912; 0.018388444093618478; 0.04119138684473303; -0.931884765625; -0.161865234375; -0.089599609375;0
329;2254351722; 0.9996960075698565; -7.694223803771938E-4; -0.023357499298163886; -0.007856695528421; 0.07426784377502527; 0.025253081838052277; 0.02261153363952816; -0.939453125; -0.1767578125; -0.0478515625;0
330;2254368389; 0.9995437319226954; -0.003217767679381811; -0.02894773415530655; -0.008000164528692066; 0.050032565301340724; 0.02976497147471488; -0.002659545696246984; -0.94775390625; -0.18896484375; 0.003173828125;0
331;2254385056; 0.9993309580901557; -0.002982784807647576; -0.03556683065868411; -0.007983718074878578; 0.0461967693180203; 0.017243404598279354; -0.01702949879370174; -0.950927734375; -0.201416015625; 0.060546875;0
332;2254401723; 0.9992173727588629; -3.483822315780705E-5; -0.03880266849751841; -0.007680734381910526; 0.04989042480893703; 0.01915427389775452; -0.04144095277531923; -0.95068359375; -0.21630859375; 0.1337890625;0
333;2254418390; 0.9992839586697326; -1.7642819943319843E-6; -0.03700730627979981; -0.007875863390655104; 0.06245768130384384; 0.04278362421605025; -0.06830914642138808; -0.946044921875; -0.2294921875; 0.201171875;0
334;2254435057; 0.9994057527054555; -0.002231556195257778; -0.032991987408014685; -0.009730898368527363; 0.05807656790915965; 0.04483528313175213; -0.09142482848423898; -0.933837890625; -0.249755859375; 0.26025390625;0
335;2254451724; 0.999445989679753; -0.005940059862216129; -0.03060260839806678; -0.011658034187929768; 0.03178529396157578; 0.05855971584058569; -0.11421934464627312; -0.921142578125; -0.270263671875; 0.3134765625;0
336;2254468391; 0.999249788749869; -0.012167324544421487; -0.0346287257346015; -0.012355858965310995; 0.0026394624788069546; 0.06102423770118895; -0.12999405519087498; -0.89892578125; -0.29150390625; 0.365966796875;0
337;2254485058; 0.9991508630746877; -0.012059612689694577; -0.03734871977010301; -0.012537611033032083; 0.012338895524273755; 0.03554360591055995; -0.12153121098904288; -0.8759765625; -0.32421875; 0.42041015625;0
338;2254501725; 0.9992814127131342; -0.00496816651028309; -0.03558133626785146; -0.012080729984686733; 0.010115332737788033; 0.027202015483404587; -0.13639939561056197; -0.84228515625; -0.349853515625; 0.478515625;0
339;2254518392; 0.9994360267131988; -4.105720520775069E-5; -0.03149040823257971; -0.011661089631141654; 0.017524999929240823; 0.06766663285187566; -0.16265019603196101; -0.810791015625; -0.367431640625; 0.5302734375;0
340;2254535059; 0.9995592252707761; -0.004209476131882384; -0.026132976088110525; -0.013442583366265637; 0.01846780848795756; 0.10086006557007754; -0.1751285056185149; -0.777587890625; -0.38916015625; 0.56982421875;0
341;2254551726; 0.9994929611659804; -0.011056368509832937; -0.02585040347026217; -0.014944361326580781; -0.016364680040456; 0.09028623202498329; -0.16137266273269732; -0.74609375; -0.419921875; 0.596435546875;0
342;2254568393; 0.9993358443887368; -0.008946066898500915; -0.031996741598892424; -0.014968184056580014; -0.060024852533350694; 0.04192941566500906; -0.17025946147365334; -0.70654296875; -0.450439453125; 0.631103515625;0
343;2254585060; 0.9992944528978733; -0.0010543546535523585; -0.03515480150431834; -0.013176671620579563; -0.03599358646750675; 0.06429966986334276; -0.2114765861219999; -0.658447265625; -0.470458984375; 0.672119140625;0
344;2254601727; 0.9994867988417133; -8.552416090618076E-4; -0.029187357997863175; -0.013172153811707832; 0.011970580157810759; 0.11062572485947383; -0.21967194659977257; -0.609619140625; -0.4853515625; 0.711669921875;0
345;2254618394; 0.9996450070228484; -0.007865218341918778; -0.018810047671642828; -0.017151687418847265; 0.03510375717284226; 0.12426464787064283; -0.14906294348135718; -0.56884765625; -0.50927734375; 0.729736328125;0
346;2254635061; 0.9994978291365357; -0.014243408249396516; -0.015935179653881745; -0.023394121530676326; -0.0337768903712638; 0.09789241662220279; -0.09629910563854639; -0.528076171875; -0.550048828125; 0.73046875;0
347;2254651728; 0.999274962768125; -0.010841618534973563; -0.028381732260252198; -0.022945268928735166; -0.14187992313831066; 0.07396094398101034; -0.1377828979355557; -0.472900390625; -0.5869140625; 0.739501953125;0
348;2254668395; 0.9990751789637561; -0.004432719279689468; -0.039409942248637926; -0.016613074076918755; -0.10756962607566514; 0.125867528462514; -0.18369082751989732; -0.404541015625; -0.609375; 0.76123046875;0
349;2254685062; 0.9992985344225225; -0.0034131888470227967; -0.03486279879181238; -0.01324290388452848; -0.0473987774537123; 0.1561741465232556; -0.18770135939492982; -0.33447265625; -0.622802734375; 0.78466796875;0
350;2254701729; 0.9995636941280497; -0.005477932302147326; -0.025409486032753798; -0.014027532153988886; -0.06256447581535785; 0.15037138733961344; -0.1747529339855205; -0.283203125; -0.635986328125; 0.79541015625;0
351;2254718396; 0.9995765752047041; -0.006338234708148371; -0.024339344200940794; -0.014631931064868932; -0.12074794458022022; 0.12220221954055223; -0.1705980696384435; -0.234619140625; -0.652099609375; 0.79736328125;0
352;2254735063; 0.9995051460969325; -0.004398382229514053; -0.028303087110344797; -0.013002015979718673; -0.13459085417967848; 0.11633048026162171; -0.17754646216448003; -0.17578125; -0.65966796875; 0.798095703125;0
353;2254751730; 0.9995864874036032; -0.0017058814218011142; -0.026662159406628222; -0.01063359884876053; -0.09971910921543542; 0.12211957175007279; -0.16088465020352827; -0.1259765625; -0.66748046875; 0.8037109375;0
354;2254768397; 0.9997384422966438; -0.0010321302747455519; -0.020657922716370878; -0.009758684871471024; -0.0956849576827998; 0.11655972469764088; -0.1388522290739276; -0.079345703125; -0.67138671875; 0.806396484375;0
355;2254785064; 0.9997515791062247; -0.0016329563234875888; -0.019493508150244452; -0.010682540346377114; -0.12634354570260112; 0.10543592191954738; -0.13478210985296082; -0.041015625; -0.673095703125; 0.80615234375;0
356;2254801731; 0.9996633152246919; -0.0028734668810861674; -0.023073409570138124; -0.011515952104368843; -0.13907671335597674; 0.10585081040645905; -0.14518855637693506; 0.0048828125; -0.676025390625; 0.8017578125;0
357;2254818398; 0.9996604952581463; -0.0034198118030672187; -0.02330033432268283; -0.011148700727902918; -0.12009596802441072; 0.10652525367987789; -0.1350114789243157; 0.0537109375; -0.677734375; 0.793701171875;0
358;2254835065; 0.9997338070951618; -0.0032841247135095286; -0.02006008221098513; -0.010914329002210565; -0.1194588920767288; 0.10346658416542048; -0.12611917122702757; 0.09130859375; -0.678955078125; 0.785400390625;0
359;2254851732; 0.9997735186679609; -0.002812746205577754; -0.018033823375852635; -0.010944452636651782; -0.13024741814836915; 0.09910992763448026; -0.11964348277879025; 0.135986328125; -0.68017578125; 0.77587890625;0
360;2254868399; 0.9997784931468805; -0.002139530065401518; -0.018061722608022805; -0.010590619834692616; -0.13663691482057355; 0.09995653031945127; -0.12203955833769982; 0.16943359375; -0.67724609375; 0.7666015625;0
361;2254885066; 0.9997818366337106; -0.0017455066404733488; -0.018533606085545107; -0.009473003185815678; -0.13067813599599637; 0.10367728361092717; -0.1269132423281538; 0.20849609375; -0.67578125; 0.75634765625;0
362;2254901733; 0.9998203132014308; -0.0011149229653848458; -0.017147752348357585; -0.008003302191814554; -0.12050939954342682; 0.10288500015935657; -0.1270271417313292; 0.244384765625; -0.6728515625; 0.743408203125;0
363;2254918400; 0.999870801570579; -5.214581237822091E-4; -0.014659952366668479; -0.006572217634877587; -0.10948523528765328; 0.1077614531323147; -0.13518319637423512; 0.272216796875; -0.67236328125; 0.734619140625;0
364;2254935067; 0.9999343524040729; -4.862473817975055E-4; -0.010309988551414297; -0.004975799614220899; -0.0986292440799906; 0.10625701267136728; -0.13220442517845696; 0.29296875; -0.66845703125; 0.72802734375;0
365;2254951734; 0.9999776167204306; 1.1592510131119838E-4; -0.005224721068390836; -0.0041779072818680105; -0.0984117170238223; 0.10187597309579682; -0.12220412197878945; 0.308837890625; -0.664306640625; 0.720703125;0
366;2254968401; 0.9999905479518956; -2.873956868179872E-4; -0.001959570738279404; -0.003870593379401266; -0.10625330243513553; 0.11129107209329192; -0.12172381098131657; 0.316650390625; -0.662353515625; 0.72021484375;0
367;2254985068; 0.999991958188162; -0.0019013864302505346; -0.001177776796519925; -0.0033288331988488022; -0.1108542844109891; 0.11969977088375489; -0.12872224436288296; 0.32080078125; -0.65771484375; 0.720458984375;0
368;2255001735; 0.9999957791716241; -0.0022371056679928725; -6.443320081720439E-4; -0.0017383421498906038; -0.10572325485192977; 0.12083308564651223; -0.13222216270307716; 0.328369140625; -0.6640625; 0.714111328125;0
369;2255018402; 0.9999980579260559; -8.131340262585995E-4; 0.0017751783721003944; 2.6776653862120586E-4; -0.1026386194036662; 0.12547495551229063; -0.13099287367047288; 0.326171875; -0.66455078125; 0.713623046875;0
370;2255035069; 0.9999826874324352; 6.805096854412274E-4; 0.005370279351759656; 0.002306911714098636; -0.1063304052304225; 0.12628080450060553; -0.12303178617101329; 0.3193359375; -0.663330078125; 0.7177734375;0
371;2255051736; 0.9999563985712814; 0.0012086860185369919; 0.008712481482761327; 0.003135713774203131; -0.11475085833182952; 0.12230806569325112; -0.11345336799890526; 0.30712890625; -0.663330078125; 0.724853515625;0
372;2255068403; 0.9999559728153403; 0.001390656695339998; 0.00867513307987522; 0.0032955380332376216; -0.1303642976005298; 0.11882765953793445; -0.11685330105357562; 0.292236328125; -0.665771484375; 0.731689453125;0
373;2255085070; 0.9999699829546367; 0.0018582867549777615; 0.005980815409827367; 0.004561776745237668; -0.13366900003926274; 0.12291312516532438; -0.1268050059597233; 0.27685546875; -0.666259765625; 0.739990234375;0
374;2255101737; 0.9999538335120037; 0.003123602627986194; 0.0053364141218648084; 0.007355041508412152; -0.12079956412113035; 0.1194346039125358; -0.12475170730987852; 0.260009765625; -0.666748046875; 0.74560546875;0
375;2255118404; 0.9999157536383257; 0.005453138001726698; 0.007355889827738744; 0.009199988949736173; -0.1157858754126477; 0.11515252551018292; -0.13173728380910615; 0.240234375; -0.665283203125; 0.758056640625;0
376;2255135071; 0.999893257320069; 0.006561636208454652; 0.008152454488033508; 0.010195900252097212; -0.11868994165723659; 0.12609360481388374; -0.15877432612481915; 0.222412109375; -0.662109375; 0.766357421875;0
377;2255151738; 0.9998590469557276; 0.0076168858979275; 0.00888493135537835; 0.012038574035669493; -0.1232149432985327; 0.1278491161287756; -0.18582056217325008; 0.193115234375; -0.657958984375; 0.782958984375;0
378;2255168405; 0.9997538098777912; 0.011383614340487846; 0.011961530563665586; 0.014820753893203586; -0.12457806320334186; 0.12451824821535529; -0.19363962548251223; 0.16064453125; -0.6533203125; 0.801025390625;0
379;2255185072; 0.9995583752567203; 0.015718798848293997; 0.018852991209016044; 0.016749284742490936; -0.13206007171446366; 0.1283077615819422; -0.19196411884938663; 0.11767578125; -0.63623046875; 0.82373046875;0
380;2255201739; 0.9993303444603306; 0.01780872923877591; 0.02699012174421578; 0.017124401651712695; -0.14659262916065652; 0.12937600079508715; -0.18912556831311855; 0.05908203125; -0.619140625; 0.8505859375;0
381;2255218406; 0.9992091903369414; 0.017776803292504417; 0.03154384942095659; 0.016430604815449227; -0.1730693073900403; 0.12346134203789463; -0.19396779371246325; -0.006103515625; -0.59423828125; 0.876708984375;0
382;2255235073; 0.9991850336107442; 0.015921468214839696; 0.033670491394865366; 0.015558710338844872; -0.17299517096462513; 0.13078576816491655; -0.1891120780299732; -0.0751953125; -0.567138671875; 0.8916015625;0
383;2255251740; 0.9991483481250581; 0.01157497782900127; 0.036976461998547615; 0.014189418074601336; -0.158534088887086; 0.13285251477862126; -0.177422416036812; -0.149169921875; -0.545166015625; 0.901123046875;0
384;2255268407; 0.9991229241357493; 0.007931552077255793; 0.03894098196809131; 0.013193667853802105; -0.15684415616145697; 0.11522234399464176; -0.16749052944870896; -0.22314453125; -0.532470703125; 0.899658203125;0
385;2255285074; 0.999184534769755; 0.005662589145931485; 0.037949953965060235; 0.012569866950861321; -0.15050844676671138; 0.10593081301094728; -0.16171694257757063; -0.2939453125; -0.51416015625; 0.883544921875;0
386;2255301741; 0.9992440763241759; 0.004156308912207807; 0.03663250139746089; 0.012331296308002282; -0.12890872707251633; 0.09449010433584976; -0.14865583342912975; -0.363525390625; -0.501220703125; 0.865478515625;0
387;2255318408; 0.9992874554761331; 0.004408802979154303; 0.03556846723694731; 0.011833339458517613; -0.1087381737267451; 0.08107794531995252; -0.13334545421861488; -0.42578125; -0.486083984375; 0.84326171875;0
388;2255335075; 0.9993211758273262; 0.0045337378372192205; 0.03479092572324798; 0.011234956681410668; -0.09081963919084918; 0.08155358705606823; -0.1251729528755969; -0.484619140625; -0.47265625; 0.81787109375;0
389;2255351742; 0.9994039890581554; 0.0043564977233710445; 0.03249932007902352; 0.01079267235830539; -0.09001963092920728; 0.07083785280032942; -0.1258422481460555; -0.5419921875; -0.45166015625; 0.787109375;0
390;2255368409; 0.9994868462756126; 0.005606019216354063; 0.02960987330088399; 0.010856890608335057; -0.0741070378903871; 0.06594120141407289; -0.1252696579394965; -0.593017578125; -0.434814453125; 0.7587890625;0
391;2255385076; 0.9995466943073776; 0.006066237573911615; 0.027539483713947; 0.010544358570345915; -0.06957846903231318; 0.0672451823566305; -0.13717965078233027; -0.6357421875; -0.416015625; 0.732421875;0
392;2255401743; 0.999602890868004; 0.006081332057095712; 0.025453485996996334; 0.010449785612220708; -0.054296073160110106; 0.06472386823841696; -0.14243517619237347; -0.674072265625; -0.396240234375; 0.7060546875;0
393;2255418410; 0.9995984997231044; 0.005983995391513119; 0.025773910018616702; 0.01013591203717379; -0.043539005388160475; 0.05868602042188172; -0.14927122978549595; -0.712158203125; -0.372802734375; 0.674072265625;0
394;2255435077; 0.9995899234789264; 0.006169452188231617; 0.02622776675880913; 0.009696751514642998; -0.03453499770182718; 0.054214166784811314; -0.15347784293275324; -0.74365234375; -0.35546875; 0.6435546875;0
395;2255451744; 0.999535720584454; 0.005420552119962674; 0.02866115626467131; 0.008803352316213932; -0.010580944497663003; 0.05556053400189483; -0.14804181434292735; -0.775634765625; -0.339111328125; 0.605712890625;0
396;2255468411; 0.999470313722322; 0.004247889264483551; 0.03137955989174785; 0.007508038731940503; -0.0011940360880403345; 0.046758912226622394; -0.139887137915454; -0.808837890625; -0.318603515625; 0.561279296875;0
397;2255485078; 0.9994320897398589; 0.0038529601142562875; 0.03280595903026154; 0.006664964267081353; -0.0032743572116537695; 0.03812494151669711; -0.1340551609818523; -0.83837890625; -0.30810546875; 0.5087890625;0
398;2255501745; 0.9994933585199639; 0.0043478227462827035; 0.03086731868141918; 0.006428946202086838; -0.005689525421242167; 0.029056535866257723; -0.13081296601169098; -0.864501953125; -0.290283203125; 0.461669921875;0
399;2255518412; 0.9995366300776787; 0.006175752194040707; 0.02910688007721177; 0.00641675540801745; 0.014597228388086254; 0.021098538944957994; -0.12228192084100484; -0.888427734375; -0.278076171875; 0.41357421875;0
400;2255535079; 0.9994882433998525; 0.007465441638501269; 0.030643170308676696; 0.005339906371146175; 0.04562970369716633; 0.026944057377765868; -0.11573305879875681; -0.9052734375; -0.264404296875; 0.36474609375;0
401;2255551746; 0.9994362626308091; 0.007185466941384888; 0.03254437415754846; 0.0040484211846247295; 0.04444210469395593; 0.023490678087925803; -0.11267251120871957; -0.920654296875; -0.253173828125; 0.31298828125;0
402;2255568413; 0.9994580775515687; 0.006847569496797656; 0.03202528631725369; 0.003323107763344546; 0.044668922166312; 0.01969890186916915; -0.10430180457827601; -0.9375; -0.24267578125; 0.259033203125;0
403;2255585080; 0.9994841143026563; 0.00657329184955191; 0.03135241053480837; 0.0023072590995131263; 0.05516833287733444; 0.018583599471572048; -0.09342958945593861; -0.94140625; -0.240234375; 0.205322265625;0
404;2255601747; 0.9995158834600969; 0.005879023544014539; 0.03050621512102897; 0.0016753006119518687; 0.06669467617356226; 0.024171616932303353; -0.08002617966525838; -0.946044921875; -0.23486328125; 0.1494140625;0
405;2255618414; 0.9995428068122177; 0.005721980178707509; 0.029672272899872953; 9.962498398881083E-4; 0.07170902212618614; 0.020225349597751543; -0.06897924698867566; -0.944091796875; -0.23193359375; 0.09765625;0
406;2255635081; 0.9995646425733935; 0.0073149340190675205; 0.028577071356811427; 6.066713182371064E-4; 0.08419444218021824; 0.024706839061174237; -0.05330184175897612; -0.943603515625; -0.230712890625; 0.052734375;0
407;2255651748; 0.9995269086621777; 0.00704207102959753; 0.0299362586035456; 4.341850600041442E-4; 0.10596391700477065; 0.046032449416726615; -0.03083094250068004; -0.935791015625; -0.232666015625; 0.001708984375;0
408;2255668415; 0.999490020288518; 0.005893800705404906; 0.031383366363019756; 2.162698025590104E-4; 0.10725686235311926; 0.049669580505784; -0.0055920473983444435; -0.92578125; -0.23291015625; -0.058349609375;0
409;2255685082; 0.9995028748271881; 0.004172394525770673; 0.031249008845994686; 3.0623887796599197E-4; 0.10518222812750745; 0.05859337190725498; 0.026863152661110133; -0.9111328125; -0.235107421875; -0.1103515625;0
410;2255701749; 0.9995837439275014; 0.0024467394847438872; 0.028734750630322718; 8.163626560953041E-4; 0.10281831845545221; 0.05928877542867118; 0.06474934562436781; -0.899658203125; -0.236572265625; -0.16162109375;0
411;2255718416; 0.99969532200407; 0.001394235626388518; 0.024604677939756795; 0.0013889181681701614; 0.10686612658580825; 0.06301479898088751; 0.09872260084221665; -0.884765625; -0.23583984375; -0.205322265625;0
412;2255735083; 0.9997925775823107; -7.840973744995816E-4; 0.020292208621394473; 0.0015534709178611217; 0.10936801777924737; 0.06562580119788426; 0.12384094537596001; -0.870361328125; -0.232666015625; -0.244384765625;0
413;2255751750; 0.9998931983778347; -0.0020913851513926773; 0.01431386719377059; 0.002081141958522992; 0.09888359920575009; 0.052458939106242344; 0.13131213720898394; -0.855712890625; -0.22705078125; -0.2705078125;0
414;2255768417; 0.9999771530090222; -0.0021257106926527713; 0.005735265985885863; 0.0028777661637050533; 0.09605407725456847; 0.03704271692661058; 0.12089228524824328; -0.84814453125; -0.221435546875; -0.283447265625;0
415;2255785084; 0.9999914187695111; -0.0013288176123926188; -0.002586138423398721; 0.002951020018265305; 0.10742477190172216; 0.025005609547021076; 0.10034149234930967; -0.851806640625; -0.21875; -0.2861328125;0
416;2255801751; 0.9999624920253842; -4.988762053789175E-4; -0.00828029940165584; 0.0024904430798787236; 0.11675779233951286; 0.01513362736629505; 0.07323434906253527; -0.8583984375; -0.21044921875; -0.27197265625;0
417;2255818418; 0.9999207344540939; 1.0834440241913601E-4; -0.012443115681353062; 0.0019188388197783903; 0.1201042694458869; 0.01052894201125474; 0.04016142549074589; -0.869140625; -0.20751953125; -0.25341796875;0
418;2255835085; 0.9998744004494947; 0.0010566574505600501; -0.015765172934830294; 0.0012353635620757086; 0.1259691023360753; 0.004921790691805518; 0.010861109611540729; -0.8818359375; -0.2060546875; -0.22412109375;0
419;2255851752; 0.9998484015866076; 0.0019808260042820103; -0.01728842911899506; 6.003262813372713E-4; 0.13470227350908157; 0.006074377227462548; -0.012274339701926724; -0.892333984375; -0.203125; -0.196044921875;0
420;2255868419; 0.9998508170869058; 0.0022303462936566487; -0.017119760231551154; -5.319169780885757E-4; 0.1427841126391271; 0.010380534891571959; -0.02222805867956261; -0.90234375; -0.205322265625; -0.16357421875;0
421;2255885086; 0.9998711455616744; 6.116250303898063E-4; -0.015928012999153418; -0.0019017333950344664; 0.14277642034287386; 0.021866479254079065; -0.022029360281880742; -0.910888671875; -0.21044921875; -0.136474609375;0
422;2255901753; 0.9998812177500498; -0.0025993700487548788; -0.014859797269635657; -0.0031591282234737506; 0.13632676526500118; 0.025477804096484487; -0.010654647790123352; -0.918701171875; -0.212158203125; -0.112548828125;0
423;2255918420; 0.9998689116128878; -0.00448203203660702; -0.014983775154453262; -0.004190162407701648; 0.12311990896711358; 0.02116228693752064; 0.0017299968185363335; -0.92236328125; -0.219482421875; -0.083984375;0
424;2255935087; 0.9998264959067389; -0.004612540414982935; -0.017380278120326224; -0.004860914135466687; 0.10841317253297214; 0.019510142370618676; 0.0066842573130003954; -0.927001953125; -0.22509765625; -0.059326171875;0
425;2255951754; 0.9997685558696199; -0.003546898202022697; -0.020577615185230158; -0.005178412962268565; 0.10405346824846065; 0.019662756659922266; 0.009474393148184681; -0.933837890625; -0.236572265625; -0.02587890625;0
426;2255968421; 0.999728441471259; -0.002472351230666636; -0.022510789560089842; -0.00549501103011335; 0.10271779086284052; 0.024523038196319985; 0.007990352103019533; -0.93603515625; -0.244384765625; 0.015869140625;0
427;2255985088; 0.9997069730214836; -0.0021843071380081014; -0.02331022560605234; -0.006150632223155706; 0.09887604886566286; 0.029131552836301776; 0.005329148698677309; -0.93798828125; -0.2548828125; 0.05712890625;0
428;2256001755; 0.9996887290655452; -0.0022009247247142816; -0.02368609520303611; -0.00752129002922447; 0.08010658881364732; 0.03505516780387956; -0.01032171254572534; -0.9365234375; -0.265869140625; 0.098388671875;0
429;2256018422; 0.9995884226143061; -0.002289899977632126; -0.027538510480948075; -0.007705334128156383; 0.05291344036597211; 0.03856693008668353; -0.03953619164016938; -0.93310546875; -0.280029296875; 0.145263671875;0
430;2256035089; 0.9994722314399994; -0.0025003000057595703; -0.03159612272980745; -0.00711983909034411; 0.05551448359047503; 0.04220519781318496; -0.0560646809597869; -0.9287109375; -0.297119140625; 0.19384765625;0
431;2256051756; 0.99943373651295; -0.00292222081429494; -0.03286360637875375; -0.006606838961115414; 0.06399212015867216; 0.04793210974549525; -0.06434592364392118; -0.918701171875; -0.307861328125; 0.254638671875;0
432;2256068423; 0.9994927911265881; -0.005611781250432268; -0.030456359230409184; -0.007421494432258036; 0.07169238654521387; 0.06096813476417391; -0.06710272730356176; -0.9033203125; -0.320556640625; 0.307373046875;0
433;2256085090; 0.9995473404802336; -0.006516734498225596; -0.027859983665076055; -0.009298796726089022; 0.04703338838980424; 0.03989156467206221; -0.0734507303155617; -0.89208984375; -0.336669921875; 0.352294921875;0
434;2256101757; 0.9995570552667126; -0.0035488154958367435; -0.0276488907970712; -0.010422956049333632; 0.02389333455095378; 0.03988866897084319; -0.09058948261635255; -0.867431640625; -0.359619140625; 0.394287109375;0
435;2256118424; 0.9994904597514307; -0.0047470563453945736; -0.030030589917174753; -0.009718538529722988; 5.7155926903629944E-5; 0.06375642718397052; -0.11564843969385516; -0.843505859375; -0.37548828125; 0.438720703125;0
436;2256135091; 0.9993569145257097; -0.0071012494562974204; -0.033765022741319685; -0.009759758454541023; 0.005022554972999135; 0.05285534486544209; -0.10904156526227402; -0.8154296875; -0.39794921875; 0.488525390625;0
437;2256151758; 0.999328749289064; -0.005901084441949644; -0.03447336890111047; -0.010900224005587602; 0.005251945653812866; 0.04872498042254085; -0.113871317548773; -0.780029296875; -0.41943359375; 0.54052734375;0
438;2256168425; 0.999369047958754; -0.005670416580193183; -0.032860641393418495; -0.012228270729500945; -8.942706418090321E-4; 0.06199064045951092; -0.12982172823232652; -0.741455078125; -0.44384765625; 0.58203125;0
439;2256185092; 0.999393381890946; -0.005881425098670345; -0.031512855627561974; -0.013609445307696368; -0.016903335313772114; 0.06445281434512086; -0.14192337689119303; -0.701904296875; -0.46533203125; 0.619140625;0
440;2256201759; 0.9993961404145242; -0.007555468913954977; -0.0304569485044966; -0.014921250009210019; -0.027365980764839096; 0.0713143176788849; -0.14342759637370248; -0.659423828125; -0.490478515625; 0.65087890625;0
441;2256218426; 0.9993561240582952; -0.008957087719522805; -0.030632946472689743; -0.016393000859127985; -0.040144901835517; 0.07380801240782872; -0.1374267459333673; -0.60986328125; -0.5205078125; 0.6787109375;0
442;2256235093; 0.9992880635462356; -0.01182744318477047; -0.0309180339517811; -0.01809842032560338; -0.05387893890541205; 0.0843051784209346; -0.13065644200508; -0.5576171875; -0.55029296875; 0.70556640625;0
443;2256251760; 0.9991536087145415; -0.011974530937836347; -0.03393443243029622; -0.019928148362591384; -0.09884114681766637; 0.06756708909697023; -0.14688262823273604; -0.4990234375; -0.586669921875; 0.724365234375;0
444;2256268427; 0.9990400144087628; -0.008058511708706528; -0.03832048429518304; -0.019637985705321603; -0.12139093102276977; 0.07228316245191786; -0.17265236612937185; -0.42724609375; -0.615966796875; 0.742919921875;0
445;2256285094; 0.999070021649478; -0.006887041841163899; -0.03810251648182093; -0.01896994290297366; -0.10414868326286253; 0.10766063295894117; -0.18215080372019166; -0.3623046875; -0.636962890625; 0.7646484375;0
446;2256301761; 0.9992040805463813; -0.01062714025983491; -0.03262257025233146; -0.02034790454789326; -0.09624702351443695; 0.13788500296634512; -0.17211587994866637; -0.287841796875; -0.658935546875; 0.769775390625;0
447;2256318428; 0.9992604651711591; -0.013727476039789577; -0.028400682622510293; -0.021988187148358488; -0.1344963314337473; 0.13319050486125275; -0.15326454314274712; -0.222412109375; -0.68798828125; 0.7685546875;0
448;2256335095; 0.9992500454820041; -0.012769318777740568; -0.02937125695974605; -0.02176282074478686; -0.18069409439131584; 0.1175925779104979; -0.1416394358422826; -0.157470703125; -0.71142578125; 0.757080078125;0
449;2256351762; 0.9991661243506602; -0.009208223885821487; -0.034140841660584564; -0.020412434780213765; -0.20948454831934782; 0.11443706677466033; -0.14703936040222423; -0.086181640625; -0.7265625; 0.747314453125;0
450;2256368429; 0.999054289094589; -0.006123868148830813; -0.03890891504693251; -0.01841526569104074; -0.21268010051252803; 0.11497714232531112; -0.15581812204050863; -0.010009765625; -0.732666015625; 0.740478515625;0
451;2256385096; 0.9989990383994388; -0.003797888039098779; -0.04123418643709837; -0.01691860491617542; -0.2079128019567762; 0.11716984394112923; -0.16652382061918256; 0.068115234375; -0.737548828125; 0.727783203125;0
452;2256401763; 0.9989908490003044; -0.0026760270696559174; -0.041920404284557795; -0.015899754633091956; -0.1960961155127397; 0.11915579865084999; -0.17529113785304384; 0.140869140625; -0.7353515625; 0.71533203125;0
453;2256418430; 0.9990623456359693; -0.0017212881005281566; -0.04056783038714301; -0.01502390885588645; -0.17811667986866947; 0.12011783520217174; -0.18036705484408116; 0.212158203125; -0.73193359375; 0.692138671875;0
454;2256435097; 0.999218165678295; -0.0013196194529959127; -0.03691609546251624; -0.014089637284375567; -0.15136314286539268; 0.12587028090770053; -0.18554708137785544; 0.27490234375; -0.721435546875; 0.66943359375;0
455;2256451764; 0.9994419116762895; -0.001074120573088394; -0.030753612046657778; -0.012997184153583087; -0.12318532931660071; 0.12449948308667129; -0.1771848275403529; 0.329833984375; -0.717041015625; 0.650390625;0
456;2256468431; 0.9996774677814322; -0.0016335829912769995; -0.02247425906847528; -0.01171321885892962; -0.1045598621840334; 0.13453566503276443; -0.16457744996752932; 0.3701171875; -0.707763671875; 0.627685546875;0
457;2256485098; 0.9998450931480802; -0.005043134458171089; -0.01301540333796497; -0.01072174325814135; -0.09945334500933183; 0.14184396172667227; -0.1398032665716234; 0.403564453125; -0.701416015625; 0.609130859375;0
458;2256501765; 0.9998943859557172; -0.009466685449076195; -0.003655219498201357; -0.0104037575551994; -0.1068581489443602; 0.14275162146849438; -0.10945617352938375; 0.42431640625; -0.700927734375; 0.593505859375;0
459;2256518432; 0.9998645485218247; -0.012278742761873823; 0.00275605804720136; -0.010607602437669063; -0.12930397572725516; 0.1294548382757674; -0.08421292378820344; 0.4404296875; -0.7001953125; 0.576416015625;0
460;2256535099; 0.999892721721741; -0.010332317259123175; 0.005024029557743393; -0.009085559693745748; -0.15329318025475785; 0.0963021345843082; -0.06082735599802659; 0.4443359375; -0.70068359375; 0.563232421875;0
461;2256551766; 0.9999651932202218; -0.004952101370105821; 0.003462364219669112; -0.005753353289602082; -0.16607401556168674; 0.09144182539743069; -0.05699182074398066; 0.4521484375; -0.69970703125; 0.563232421875;0
462;2256568433; 0.99999670466563; -7.86272561149548E-4; -6.015477510734613E-5; -0.002443115785910166; -0.16274463208036305; 0.10032518948301274; -0.06662182985352143; 0.45751953125; -0.6962890625; 0.55908203125;0
463;2256585100; 0.999995420812118; 0.0020945701073024903; -0.00218370541205043; 5.061159972907792E-5; -0.1470949346447568; 0.10074937821994076; -0.07293535528563452; 0.461181640625; -0.694580078125; 0.559326171875;0
464;2256601767; 0.9999902796909196; 0.0036840181128698357; -0.001862662207236854; 0.0015488782140947177; -0.1345930258997227; 0.1073377130694847; -0.08380875734220486; 0.4580078125; -0.694580078125; 0.562744140625;0
465;2256618434; 0.999991058780224; 0.003317330410296193; -6.428372443689767E-5; 0.0026217448690301075; -0.12975329842553965; 0.11165434139610676; -0.09335377107681908; 0.457275390625; -0.691650390625; 0.567138671875;0
466;2256635101; 0.9999876032551844; 0.002494246180333365; 0.0024108938053178934; 0.0035720670490779205; -0.1280579400443008; 0.10786705952509373; -0.09864324784024181; 0.447265625; -0.694580078125; 0.571044921875;0
467;2256651768; 0.9999733198850503; 0.0029454064948750136; 0.004654299794333295; 0.004798082124680248; -0.13197198439259478; 0.10490705124877815; -0.10555934602480165; 0.44091796875; -0.6982421875; 0.58154296875;0
468;2256668435; 0.9999510514511187; 0.00428195616549229; 0.006068479991500232; 0.006537056202270797; -0.1357371163878353; 0.11194232844810487; -0.11743134923660067; 0.427490234375; -0.697265625; 0.59130859375;0
469;2256685102; 0.9999110679713884; 0.00600256452893394; 0.008021190548237023; 0.008802605840447177; -0.13492415978669883; 0.12032586459504946; -0.12879585010606254; 0.409423828125; -0.701416015625; 0.60546875;0
470;2256701769; 0.9998305505276067; 0.008068572434119736; 0.012024092356558382; 0.011366159137503107; -0.1337173070973643; 0.12056277147075634; -0.13267238784733265; 0.3818359375; -0.70166015625; 0.625;0
471;2256718436; 0.999696572671104; 0.010873620172724197; 0.017480369305189872; 0.013526406135461135; -0.13961304042238726; 0.11859882481079022; -0.13514652187448153; 0.351318359375; -0.705810546875; 0.651123046875;0
472;2256735103; 0.9995682527870753; 0.012936041096669071; 0.021913610629643202; 0.01468878926634909; -0.15416017432097362; 0.12256494821200689; -0.14366931852757933; 0.311279296875; -0.69921875; 0.685791015625;0
473;2256751770; 0.9994776289365486; 0.014119792119909713; 0.024513250654489505; 0.01562694046241098; -0.16806176423408425; 0.12475758822271588; -0.1520704968721454; 0.26025390625; -0.6943359375; 0.716796875;0
474;2256768437; 0.9993901499575466; 0.015288494603426545; 0.02642243939771072; 0.01695419702810297; -0.17245113179300617; 0.12534954865524572; -0.1579803267315426; 0.204833984375; -0.68603515625; 0.7509765625;0
475;2256785104; 0.9993207266612043; 0.015466912769731417; 0.028279412180388545; 0.017864342177298934; -0.17421925609918032; 0.12678968616018266; -0.16570549304913806; 0.144287109375; -0.675537109375; 0.781982421875;0
476;2256801771; 0.9992979257873497; 0.01390474762029037; 0.029905791662532658; 0.017775183142621998; -0.1709350683987717; 0.13357638078650863; -0.1722172800584803; 0.080322265625; -0.659912109375; 0.807861328125;0
477;2256818438; 0.9993032824633948; 0.010900873917706999; 0.031352533432123686; 0.017062803201770175; -0.17403263036608857; 0.1319063547625598; -0.17966893962251762; 0.019287109375; -0.64697265625; 0.828857421875;0
478;2256835105; 0.9993105624885141; 0.008280567437095904; 0.031806086445813626; 0.017268606394575337; -0.16934568841748587; 0.12034480742323618; -0.1817430999389208; -0.049072265625; -0.63525390625; 0.83837890625;0
479;2256851772; 0.9992851801807685; 0.007631027043405708; 0.03258966118920751; 0.017572992941574442; -0.15906311546658514; 0.11015053228216473; -0.18126519056144766; -0.11865234375; -0.62060546875; 0.84375;0
480;2256868439; 0.9992587313424615; 0.008713124715138576; 0.0334451353788602; 0.016955595331408835; -0.15254239675623624; 0.10014457821017965; -0.18670320109470384; -0.188720703125; -0.60546875; 0.850830078125;0
481;2256885106; 0.9992176147973885; 0.010901342746840098; 0.03438406255200768; 0.016218977999654275; -0.1451157141881022; 0.09725260695960675; -0.1960485144140168; -0.256103515625; -0.588623046875; 0.845703125;0
482;2256901773; 0.9991789539500642; 0.010855338305631762; 0.03575366129389084; 0.015660629540589555; -0.13520353904073784; 0.10918407436176407; -0.20343339273792121; -0.32421875; -0.56298828125; 0.839111328125;0
483;2256918440; 0.9990927973544276; 0.008380312116203492; 0.039033497263538185; 0.014823587106940319; -0.12077658131469293; 0.1059540179344536; -0.19860646023792655; -0.398193359375; -0.541015625; 0.823974609375;0
484;2256935107; 0.9989642719419652; 0.007428283672570368; 0.04270563326209325; 0.013835926887010908; -0.10370385949529014; 0.08812364711393987; -0.18439004695055122; -0.465576171875; -0.518310546875; 0.79541015625;0
485;2256951774; 0.9988604971135109; 0.0072140398881545; 0.04534910235224754; 0.013004762607879862; -0.10555430620195946; 0.08424314212362137; -0.18032341092934262; -0.53857421875; -0.496337890625; 0.76171875;0
486;2256968441; 0.9989255599236007; 0.0062737197067459505; 0.0440833811796023; 0.012846076293401898; -0.10780668081681107; 0.0768416457848687; -0.17304868374648874; -0.6044921875; -0.47412109375; 0.716796875;0
487;2256985108; 0.9989573502042874; 0.005849335864603067; 0.04347026415173646; 0.012662301423904067; -0.0784961823669283; 0.06552773029179788; -0.1566949975105383; -0.665283203125; -0.451904296875; 0.671142578125;0
488;2257001775; 0.9988961413413509; 0.006051386560503302; 0.045102237078463704; 0.011647649744614963; -0.056765324812908344; 0.05637316278169357; -0.14452280078156762; -0.7216796875; -0.430419921875; 0.616943359375;0
489;2257018442; 0.9988861308345416; 0.0069837732158004595; 0.045412711066226505; 0.010742914487451407; -0.056194939955968075; 0.0466920021735638; -0.1378443702248486; -0.77294921875; -0.4072265625; 0.552978515625;0
490;2257035109; 0.9988765555946221; 0.00701007685973426; 0.04585893174804873; 0.009666637718063753; -0.03576962077457514; 0.04692529673331874; -0.1251091809541291; -0.815673828125; -0.38720703125; 0.49072265625;0
491;2257051776; 0.9988405573461976; 0.00608251676455579; 0.047040250804779395; 0.008231573019152285; -0.022793895425722722; 0.04384511736047073; -0.11154360048816096; -0.855224609375; -0.367431640625; 0.416259765625;0
492;2257068443; 0.998901098686762; 0.004841764540840676; 0.046042902505672535; 0.007294072070099189; -0.023519596622447347; 0.03657458010959166; -0.09876047909914278; -0.8828125; -0.356689453125; 0.343505859375;0
493;2257085110; 0.9990178006011887; 0.005680472132069014; 0.04348362668870642; 0.006351419393921199; -0.007492889644259863; 0.022341613926808543; -0.07885362605808355; -0.904052734375; -0.33984375; 0.268798828125;0
494;2257101777; 0.9990681348861131; 0.007256553198404514; 0.04221993842508715; 0.005261282186291849; 0.01167535083111913; 0.027661128508391572; -0.06482119440218409; -0.91552734375; -0.3291015625; 0.203369140625;0
495;2257118444; 0.999131222976051; 0.006538286347416156; 0.0409293622672613; 0.004340206264149022; 0.017288211662705784; 0.03779355308673202; -0.05652208197196179; -0.919921875; -0.319091796875; 0.130859375;0
496;2257135111; 0.9992136321529783; 0.005991374328500276; 0.03904149116203571; 0.003461606729970257; 0.028399676408243972; 0.03432812509828587; -0.0432319599465568; -0.92236328125; -0.31103515625; 0.061279296875;0
497;2257151778; 0.9992967490763001; 0.006469719569709598; 0.036787890557946956; 0.003286506127164635; 0.03915160505343414; 0.04067679174763013; -0.03413010938879676; -0.914794921875; -0.312255859375; -0.001220703125;0
498;2257168445; 0.9993125842158502; 0.005894569589624976; 0.036422345563382204; 0.0036091302073973375; 0.062480365959331347; 0.047751620736636184; -0.01590201297445117; -0.90478515625; -0.30224609375; -0.06298828125;0
499;2257185112; 0.999305226752053; 0.0057845163979023395; 0.03662147996843557; 0.0038039927696736924; 0.06971841412719124; 0.04776602079894812; 4.247267651889689E-4; -0.890625; -0.300048828125; -0.120361328125;0
500;2257201779; 0.9993745662103557; 0.004929640902355592; 0.03478485686725886; 0.004023528943808086; 0.07025512477386983; 0.056819802757951926; 0.023400314130070606; -0.874755859375; -0.297607421875; -0.1787109375;0
501;2257218446; 0.9994705749881392; 0.0025546392970349774; 0.03213669266535196; 0.004390505150136171; 0.07832504922431432; 0.06871125771653784; 0.056049859012224125; -0.8544921875; -0.291259765625; -0.230712890625;0
502;2257235113; 0.999560878575159; -0.0022776182693844405; 0.029218704225347118; 0.004373762735553621; 0.08344228567173113; 0.0794540636369101; 0.09212550595092392; -0.83447265625; -0.28564453125; -0.282958984375;0
503;2257251780; 0.9996701361121358; -0.006352327545384562; 0.0244559428679082; 0.004601495272350043; 0.07168589561601459; 0.05455752681846321; 0.12680805106223061; -0.811767578125; -0.27099609375; -0.324951171875;0
504;2257268447; 0.9998580552060705; -0.004433144548625867; 0.015149658706358595; 0.005891053388498324; 0.06815180006095879; 0.028028924519151954; 0.13817664375880692; -0.8017578125; -0.25927734375; -0.3564453125;0
505;2257285114; 0.9999599448427627; -0.0010182623292785964; 0.005309073853085655; 0.007133413398240363; 0.08550558100318215; 0.022823727808997184; 0.12402593332434567; -0.79052734375; -0.243896484375; -0.369384765625;0
506;2257301781; 0.9999724458543446; 8.298686395963317E-5; -0.0011807220001543996; 0.007328474658384321; 0.10807905321937908; 0.028007637080632388; 0.09151385493552996; -0.79638671875; -0.2333984375; -0.370849609375;0
507;2257318448; 0.9999686324952526; -0.0010843039631452944; -0.005156137839221865; 0.00591375963942098; 0.12485487658847458; 0.020790121152011592; 0.05741254707059226; -0.803466796875; -0.218994140625; -0.36572265625;0
508;2257335115; 0.999954580431027; -0.0012427805692860616; -0.008486249194024882; 0.004156458358033466; 0.13436781147072013; 0.0022177733242929112; 0.02737139880633435; -0.811767578125; -0.214599609375; -0.351318359375;0
509;2257351782; 0.9999359368370997; 2.4099209343753092E-4; -0.010904969035513912; 0.003024201523909143; 0.14652389955980222; -0.006471485962396786; 0.007263104951971716; -0.822021484375; -0.20849609375; -0.33447265625;0
510;2257368449; 0.9999373914955876; 0.0016608875531552436; -0.010956388965148363; 0.0015530880143390657; 0.15647566934156523; -7.745128258897019E-4; -9.56275276264823E-4; -0.833740234375; -0.207763671875; -0.319580078125;0
511;2257385116; 0.9999540673041061; 5.177822325465598E-4; -0.009563914712716977; -3.5597598598485774E-4; 0.15927365476650293; 0.01818580276154358; 0.0011990826334427294; -0.84521484375; -0.207275390625; -0.302734375;0
512;2257401783; 0.9999567173005472; -0.0020705556499089894; -0.008708937987969458; -0.0025358872087968276; 0.15241659168154964; 0.022601481820372755; 0.018743295187660092; -0.851806640625; -0.21044921875; -0.28759765625;0
513;2257418450; 0.9999449201418957; -0.003332017129880238; -0.0090227221786785; -0.00420057481188968; 0.1418078546299297; 0.024283837446650663; 0.04546432316627769; -0.8583984375; -0.212158203125; -0.27197265625;0
514;2257435117; 0.9999221085473389; -0.0037086642243492896; -0.010711101031511157; -0.005224458116182329; 0.1234648945454262; 0.0276089388480823; 0.06353098436155573; -0.86328125; -0.2197265625; -0.258544921875;0
515;2257451784; 0.9998766737907785; -0.004080726727611117; -0.014163235986405788; -0.005421035404535147; 0.10945831426254385; 0.030365655841184773; 0.07561280387911079; -0.869384765625; -0.22607421875; -0.23388671875;0
516;2257468451; 0.9998150304197053; -0.0039440460879054395; -0.018015089998753096; -0.005459485290493837; 0.09914399230465662; 0.029397542654313776; 0.076522029287264; -0.88134765625; -0.231201171875; -0.211181640625;0
517;2257485118; 0.9997486899749924; -0.0040309714862470925; -0.021283232437524002; -0.005773402737896894; 0.0939307318179608; 0.03454216754327488; 0.06856959460944118; -0.889404296875; -0.2412109375; -0.177734375;0
518;2257501785; 0.9996861875757044; -0.005297139240337034; -0.023458079567716953; -0.007013215326560074; 0.08851316752034682; 0.04113860175790203; 0.056190936192019966; -0.902099609375; -0.247314453125; -0.13916015625;0
519;2257518452; 0.9996195945202431; -0.006914581744253967; -0.02536689713197041; -0.008329186057635775; 0.07354682584139627; 0.03756520949996797; 0.041895019482596864; -0.90966796875; -0.25830078125; -0.10009765625;0
520;2257535119; 0.9995034747922034; -0.007144134866829188; -0.029657164707457665; -0.007887825862076647; 0.040712204100079835; 0.027427929362365572; 0.01450362737640501; -0.916748046875; -0.27099609375; -0.051025390625;0
521;2257551786; 0.999262012255381; -0.0055821130022069565; -0.03754653039875741; -0.005876132467233287; 0.032278774672840786; 0.017813158158264727; -0.0047388461018839315; -0.923095703125; -0.2783203125; 0.005859375;0
522;2257568453; 0.9990867032188228; -0.0018174217533922787; -0.04234285277922995; -0.005435002118747867; 0.04279774433060082; 0.021815000221337397; -0.03195532607376129; -0.92919921875; -0.29052734375; 0.0810546875;0
523;2257585120; 0.9991136736571906; -0.002181658037027079; -0.041590862167798066; -0.006107999965736161; 0.06043918005762802; 0.05453432377241511; -0.0642906569768456; -0.92578125; -0.300537109375; 0.154296875;0
524;2257601787; 0.9992628711384839; -0.007576100021375376; -0.036537227286266134; -0.00901931786620136; 0.0676110280769924; 0.06763790800677823; -0.07813036962783926; -0.919189453125; -0.31591796875; 0.22314453125;0
525;2257618454; 0.9993531050903579; -0.012168117078516005; -0.031420644992735974; -0.012571847169933871; 0.04635061816343887; 0.06101956201772181; -0.08318508212563294; -0.90576171875; -0.33935546875; 0.268798828125;0
526;2257635121; 0.9992998316387851; -0.013460122403975983; -0.03200073056654446; -0.013950800506539629; -0.004377018002071402; 0.040886065163374966; -0.10103676329094301; -0.888427734375; -0.368408203125; 0.31640625;0
527;2257651788; 0.9990267899258662; -0.008776574470232501; -0.04160932246059338; -0.011709356743984935; -0.03445724747590181; 0.021317038516083818; -0.11472572768009152; -0.85888671875; -0.39599609375; 0.373046875;0
528;2257668455; 0.9988529735910106; -0.0019269651216662353; -0.046681326755757986; -0.010482255775266014; -0.01227251738819661; 0.043331827532461106; -0.12663450442047236; -0.828125; -0.41455078125; 0.445068359375;0
529;2257685122; 0.9990246314924496; -0.004368455443986119; -0.042718546880330915; -0.010287274704327389; 0.015625494148499987; 0.09732023277615741; -0.14165300998212704; -0.791015625; -0.428955078125; 0.51123046875;0
530;2257701789; 0.9992162604834808; -0.008972185309456815; -0.03636369733073278; -0.01280805186670686; -0.007774098927223035; 0.07160031216227888; -0.13727607651552473; -0.747802734375; -0.45458984375; 0.560546875;0
531;2257718456; 0.9991978080508037; -0.0032506911229921442; -0.03731212461370135; -0.014176697446999455; -0.0741405614049658; 0.030292834137708037; -0.17099309343250066; -0.70263671875; -0.481201171875; 0.6044921875;0
532;2257735123; 0.9989309474974879; 0.00243394944136599; -0.04461764380530362; -0.01184499401228889; -0.09365610068117525; 0.0764695926733052; -0.24063880201161142; -0.6484375; -0.49462890625; 0.661865234375;0
533;2257751790; 0.9989357856625092; -0.001619544600221623; -0.044882919073297625; -0.01049746510226879; -0.039843547354937024; 0.11301741248453473; -0.2388326139158316; -0.58642578125; -0.506591796875; 0.717529296875;0
534;2257768457; 0.9992043623600185; -0.00654263565952562; -0.03744338422699333; -0.012075973541100737; -0.025994751502530417; 0.10748391423438708; -0.19534333470809512; -0.526611328125; -0.528076171875; 0.750732421875;0
535;2257785124; 0.9993426792151417; -0.009784376514794024; -0.0322256232347986; -0.01341583700138932; -0.06489037204008946; 0.09095359231455652; -0.16704420942832077; -0.472412109375; -0.549072265625; 0.77392578125;0
536;2257801791; 0.9993248027951602; -0.006467062534915358; -0.03352381390907235; -0.013574591027849858; -0.12085006584033589; 0.051799847835803485; -0.17139841363560576; -0.41259765625; -0.571533203125; 0.793212890625;0
537;2257818458; 0.9991650697104244; 0.0018036558218850196; -0.03920878506010404; -0.01133937698242671; -0.1343189988107865; 0.0591233085644288; -0.20955949330602106; -0.35107421875; -0.57666015625; 0.81640625;0
538;2257835125; 0.9992642411247443; 0.0037770521532209944; -0.036995691275930324; -0.009382383142716721; -0.08078112304309698; 0.11347361633524779; -0.21950882590813325; -0.285888671875; -0.58056640625; 0.843994140625;0
539;2257851792; 0.999516406996787; -0.001365694199063544; -0.029255391067459408; -0.010450316601791855; -0.06959036727182571; 0.1340684560924175; -0.20081912374084002; -0.226806640625; -0.584228515625; 0.85791015625;0
540;2257868459; 0.9996000336051606; -0.00615705191237112; -0.02486062754164148; -0.011992194400775258; -0.10548729890068598; 0.11214226095727522; -0.17341071930931123; -0.17529296875; -0.5947265625; 0.859619140625;0
541;2257885126; 0.9995629992015349; -0.006086078501280956; -0.025955848048846097; -0.012769660440816401; -0.13712547010914006; 0.08959833350172387; -0.15560854905340205; -0.12548828125; -0.60791015625; 0.85986328125;0
542;2257901793; 0.9994921011617401; -0.0028979694350980134; -0.029437331039106607; -0.011856855811602673; -0.15506059961781998; 0.0866950494940684; -0.1550639416044912; -0.06591796875; -0.61474609375; 0.858154296875;0
543;2257918460; 0.9995091857372063; -0.001167158831648335; -0.029687165329387175; -0.009934665666951894; -0.1323813036397598; 0.1092751995729182; -0.1536026493439086; -0.0087890625; -0.6171875; 0.8583984375;0
544;2257935127; 0.9995871199627197; -0.002471088071054367; -0.0270232028201729; -0.00944615465257137; -0.13038761628067724; 0.11305619405884998; -0.15275683865321807; 0.04443359375; -0.615478515625; 0.8515625;0
545;2257951794; 0.9996124771264786; -0.004174510661218711; -0.02554075007169676; -0.010253736859304753; -0.14279786517920176; 0.10558793140552088; -0.14997100732495622; 0.092529296875; -0.6201171875; 0.84033203125;0
546;2257968461; 0.999593782009483; -0.004919738394741552; -0.02580580144608444; -0.011051142648195234; -0.1530875445732984; 0.103603201804926; -0.15046815433284938; 0.1416015625; -0.622314453125; 0.826904296875;0
547;2257985128; 0.9996004718322979; -0.005257736271061214; -0.02543560193707348; -0.011148231969689561; -0.14836237222284904; 0.11086909297545176; -0.14907712886866695; 0.1923828125; -0.625244140625; 0.81005859375;0
548;2258001795; 0.9996630108996729; -0.005440001305433012; -0.023212018656561976; -0.010270015320569925; -0.13893620016198127; 0.11674072778464945; -0.14897459574276636; 0.240478515625; -0.626953125; 0.791015625;0
549;2258018462; 0.9997496944424102; -0.00502562017217123; -0.01999346145330852; -0.008692128813341029; -0.1306412465698436; 0.11267144874407124; -0.14642728362122254; 0.28076171875; -0.629150390625; 0.7744140625;0
550;2258035129; 0.9998356942475131; -0.004026141197265631; -0.016282452471853424; -0.0068743317606186904; -0.12389371360755493; 0.11063774249461503; -0.141625014437355; 0.310546875; -0.628662109375; 0.753173828125;0
551;2258051796; 0.9998992476211954; -0.002980655786674849; -0.012712434867125423; -0.005568150267154738; -0.11873066137066142; 0.11121328904089305; -0.13892398019753627; 0.3359375; -0.626220703125; 0.743408203125;0
552;2258068463; 0.9999492296256469; -0.0023325124585643203; -0.00888755766030386; -0.004136287652060866; -0.11279638958660104; 0.11097992077315985; -0.1309408593964027; 0.356201171875; -0.62939453125; 0.733154296875;0
