DeviceTag:;Xsens DOT 2;;;;;;;;;;;
FirmwareVersion:;1.3.0;;;;;;;;;;;
AppVersion:;2020.1.1;;;;;;;;;;;
Measurement Mode:;Inertial Mode - High Fidelity (with mag);;;;;;;;;;;
StartTime:;2020-07-29 17:12:53.762 +0200;;;;;;;;;;;
© Xsens Technologies B. V. 2005-2020;;;;;;;;;;;;
PacketCounter;SampleTimeFine;dQ_W;dQ_X;dQ_Y;dQ_Z;dV[1];dV[2];dV[3];Mag_X;Mag_Y;Mag_Z;Status
2;2233654445; 0.9999999987056303; -1.152530072129343E-5; -1.3501388611336653E-5; 4.7682486227440535E-5; -0.16233918591664456; -0.006309970147063061; 0.027376722088459787; 0.490478515625; -0.753662109375; -0.176513671875;0
3;2233671112; 0.999999987416838; 1.279316686774723E-4; -1.4345205607849134E-5; 9.270397512278762E-5; -0.1624547284888785; -0.005479815033732342; 0.027189424023303425; 0.48779296875; -0.749267578125; -0.174560546875;0
4;2233687779; 0.9999999944568709; 4.161989310080827E-5; -3.585615002517362E-5; 8.982415541441968E-5; -0.16244409686015715; -0.0043174922545307914; 0.026921966987564078; 0.48681640625; -0.75341796875; -0.172607421875;0
5;2233704446; 0.9999999661195453; -2.5101887009881807E-4; -6.12903075083715E-5; 3.15267043350942E-5; -0.16294228118793935; -0.00442924008342413; 0.027352977579462846; 0.4892578125; -0.752685546875; -0.171875;0
6;2233721113; 0.9999999391167977; -3.455733629629254E-4; -4.7707691428242056E-5; 8.332321473403237E-6; -0.16278871855010002; -0.005867914530698619; 0.027239625767855026; 0.490234375; -0.75341796875; -0.175048828125;0
7;2233737780; 0.9999999840140612; -1.7672123416384578E-4; -1.7376586836467814E-5; 2.0965131806049978E-5; -0.16277428398553762; -0.006731511717981455; 0.02756553584947246; 0.48779296875; -0.749755859375; -0.1748046875;0
8;2233754447; 0.9999999982043436; 1.5582466678987217E-5; 1.5204933228860075E-5; 5.583287128818615E-5; -0.1627017289998503; -0.005933653654082577; 0.02740683036414139; 0.48779296875; -0.754638671875; -0.17822265625;0
9;2233771114; 0.999999995814576; 3.147044708057267E-5; 3.8239992743396845E-5; 7.692959111893495E-5; -0.16227584255208571; -0.0053705600545762705; 0.027418324623317107; 0.49072265625; -0.7529296875; -0.17138671875;0
10;2233787781; 0.9999999969922474; -6.779680121088427E-5; 1.838979093640725E-5; 3.2877265107922327E-5; -0.1623063323868563; -0.004429840146344163; 0.027434909161146985; 0.489501953125; -0.7529296875; -0.17431640625;0
11;2233804448; 0.9999999881970143; -1.487076855334335E-4; -5.005274498856572E-6; 3.830068871579773E-5; -0.16250893563517793; -0.0046960552385724025; 0.027611102106348824; 0.48876953125; -0.752685546875; -0.173583984375;0
12;2233821115; 0.9999999887145197; -1.265836122625319E-4; -2.4896378051642025E-6; 8.087862184513739E-5; -0.16246169518985532; -0.005845836259246964; 0.027514188341968948; 0.48876953125; -0.752685546875; -0.173583984375;0
13;2233837782; 0.9999999942794018; 1.6904599000333587E-5; 1.4524978469404592E-5; 1.0461575493525556E-4; -0.16274250772216392; -0.006097690841896979; 0.027495193053500934; 0.487060546875; -0.7529296875; -0.170654296875;0
14;2233854449; 0.9999999923809542; 7.025653094122619E-5; 1.2994425633613972E-5; 1.0066407670944466E-4; -0.16296357608608564; -0.005788636148214725; 0.027773839820405488; 0.49072265625; -0.75244140625; -0.174072265625;0
15;2233871116; 0.9999999910378; 5.754371064681241E-5; 9.601307855669485E-6; 1.2050284770059873E-4; -0.16299469565918048; -0.00452346794659543; 0.02749081264756533; 0.487548828125; -0.754150390625; -0.171142578125;0
16;2233887783; 0.9999999897050704; -9.592879163577983E-5; 5.645183743671623E-6; 1.0656292942989865E-4; -0.1630088320638743; -0.0050012083868311505; 0.027622210803959622; 0.488525390625; -0.75244140625; -0.17529296875;0
17;2233904450; 0.9999999970423684; -9.27048209187209E-6; 1.3435190663976804E-5; 7.515861215040555E-5; -0.1633402993169495; -0.005871615598396218; 0.027611703386633102; 0.487548828125; -0.755859375; -0.172119140625;0
18;2233921117; 0.9999999859611637; 1.391494542198335E-4; 2.198837314171254E-6; 9.332881087337208E-5; -0.16330872702388854; -0.005503187639109237; 0.02763723972881464; 0.4892578125; -0.754638671875; -0.1767578125;0
19;2233937784; 0.9999999901104382; 9.255825314685717E-5; -2.6037321677108153E-5; 1.0263601374638222E-4; -0.16291977996924617; -0.004545550962554684; 0.027647874572963915; 0.488037109375; -0.751953125; -0.17138671875;0
20;2233954451; 0.999999986319765; 7.217701785700026E-5; -4.089876709811869E-5; 1.4310219687441172E-4; -0.16239182161281981; -0.007296456900861496; 0.027746740159384123; 0.48876953125; -0.75390625; -0.173583984375;0
21;2233971118; 0.9999998848495673; 4.536120085326112E-4; -1.4616639508496787E-5; 1.559594553485755E-4; -0.16294583596945234; -0.008790009430966014; 0.027732810672636818; 0.48828125; -0.754150390625; -0.171630859375;0
22;2233987785; 0.9999996210906574; 8.4184747691185E-4; 1.468549273098141E-5; 2.2112372853755335E-4; -0.16307893821309727; -0.005958170141230575; 0.027820453536880306; 0.4873046875; -0.756591796875; -0.174072265625;0
23;2234004452; 0.9999996688298436; 7.766322965503392E-4; 6.137651354778951E-6; 2.4319705617253942E-4; -0.16260222065825583; -0.004448181192791646; 0.02735669054188812; 0.485595703125; -0.758056640625; -0.175048828125;0
24;2234021119; 0.9999996779209408; 7.912619030715495E-4; 9.741978569899336E-6; 1.3404368403829858E-4; -0.16288425372147686; -0.006349766335685056; 0.027909570445116626; 0.48828125; -0.7578125; -0.17431640625;0
25;2234037786; 0.9999995063740954; 9.887459599317028E-4; 1.544252894575271E-5; 9.692533527183579E-5; -0.16335359975405778; -0.004836392905024987; 0.02809940134852356; 0.4853515625; -0.761474609375; -0.16943359375;0
26;2234054453; 0.9999996336930681; 8.525568170203446E-4; -1.0940514304211281E-5; 7.510598314341976E-5; -0.16311546188009893; -0.0026042138478239163; 0.02818818948675854; 0.489501953125; -0.762451171875; -0.1708984375;0
27;2234071120; 0.999999903686855; 4.3571150518262325E-4; -5.208937055546648E-5; -8.274221138970807E-6; -0.16312225754877596; -0.00246218345428649; 0.02786531083210239; 0.48779296875; -0.763916015625; -0.168701171875;0
28;2234087787; 0.999999985427923; 1.3054522045147232E-4; -9.179836671627252E-5; -6.0623090255729206E-5; -0.16290718451473057; -0.00360356334540423; 0.02739052245630446; 0.486572265625; -0.764404296875; -0.175537109375;0
29;2234104454; 0.9999999872478216; 6.271844683941596E-5; -1.4585264433421286E-4; 1.7255700207052808E-5; -0.16349608157743298; -0.003683784912128049; 0.02755445720359266; 0.48681640625; -0.76513671875; -0.170654296875;0
30;2234121121; 0.9999999683298153; -1.4638432925700995E-4; -1.8876171517698273E-4; 7.925283205639788E-5; -0.16333629184506696; -0.0034367816479165605; 0.02693124894356399; 0.48681640625; -0.76318359375; -0.17333984375;0
31;2234137788; 0.9999999711777503; -1.5237799091621929E-4; -1.7751109334072926E-4; 5.3993131532870116E-5; -0.1630256686436362; -0.006208265018564037; 0.027512036245923736; 0.48828125; -0.762939453125; -0.171142578125;0
32;2234154455; 0.9999999796700851; 1.3833236403315574E-4; -1.3797167664743318E-4; 4.98778782941911E-5; -0.16347082984979208; -0.0052652993275970755; 0.02768006578478406; 0.48583984375; -0.7607421875; -0.17236328125;0
33;2234171122; 0.9999999567074013; 2.606622668686054E-4; -1.0085046449720414E-4; 9.203022372406001E-5; -0.1632147136012269; -0.0032099917675215625; 0.02705971516476112; 0.486572265625; -0.763671875; -0.169189453125;0
34;2234187789; 0.9999999902134988; 4.691447114130165E-5; -1.2259418182214435E-4; 4.840145783058247E-5; -0.1630184962897786; -0.0031705784353837432; 0.026896134890068674; 0.486328125; -0.765380859375; -0.171630859375;0
35;2234204456; 0.9999999706917886; -2.06739890577623E-4; -1.251395086844104E-4; -1.4667754084707331E-5; -0.16301005568181848; -0.0035687104106686407; 0.02710709825894722; 0.48486328125; -0.76513671875; -0.17236328125;0
36;2234221123; 0.9999999611738053; -2.4245641599435208E-4; -1.3238632857548452E-4; -3.6621502244038595E-5; -0.16229181567135925; -0.005051202373368507; 0.028052860253310663; 0.48828125; -0.763916015625; -0.172119140625;0
37;2234237790; 0.9999999784476854; -1.4768884454480213E-4; -1.4502630089732738E-4; -1.6124706963438488E-5; -0.16217677755225549; -0.0038823675685362366; 0.02809871408602497; 0.48681640625; -0.76416015625; -0.169921875;0
38;2234254457; 0.9999998706229773; -4.725747321442375E-4; -1.7782730099913382E-4; -6.168145673490777E-5; -0.16265845279375007; -0.0021337905224461245; 0.02726382744632331; 0.486083984375; -0.761962890625; -0.174560546875;0
39;2234271124; 0.9999993550354438; -0.001095354804641624; -2.2106100276926557E-4; -2.031220847761306E-4; -0.1635189904211206; -0.002388095959731086; 0.026957675324488596; 0.486328125; -0.75830078125; -0.17333984375;0
40;2234287791; 0.9999988801785763; -0.001430742881980085; -1.9809233378270677E-4; -3.9163225910116006E-4; -0.16394343835493436; -0.005898126363701885; 0.027169319109150644; 0.486572265625; -0.760498046875; -0.1728515625;0
41;2234304458; 0.9999993909022353; -9.685872375512217E-4; -8.183330795477617E-5; -5.228166327218565E-4; -0.16390318663735093; -0.009290440338325177; 0.027389907528220014; 0.487548828125; -0.75634765625; -0.174560546875;0
42;2234321125; 0.9999997464871804; -3.425948892349373E-4; 6.209853069885642E-5; -6.211264681878492E-4; -0.16258467654313935; -0.007564394528588106; 0.027220707901144794; 0.48876953125; -0.758544921875; -0.17138671875;0
43;2234337792; 0.9999996892793102; -3.112585066923912E-4; 7.28965941518417E-5; -7.205869216086459E-4; -0.16248235443772302; -0.003997509581939569; 0.027377382018876156; 0.491943359375; -0.75341796875; -0.17236328125;0
44;2234354459; 0.9999994655085339; -7.004020098234642E-4; -2.2153145272374445E-5; -7.60216356838983E-4; -0.16136082066954727; -0.0041874577556786155; 0.02745154357618624; 0.489013671875; -0.751708984375; -0.170654296875;0
45;2234371126; 0.999999426101661; -8.786913625628556E-4; -1.6037234231761066E-4; -5.915898493194517E-4; -0.16210127117713724; -0.0069884031981026565; 0.027929589710284308; 0.4921875; -0.751220703125; -0.1689453125;0
46;2234387793; 0.9999996398096016; -7.536429568442138E-4; -2.2532974618041937E-4; -3.1879376749621713E-4; -0.16197020790750966; -0.008376013097866453; 0.027802722365337006; 0.491943359375; -0.7490234375; -0.16943359375;0
47;2234404460; 0.9999997514759067; -6.434370340094864E-4; -2.576798083734761E-4; -1.2898846692305235E-4; -0.16159384114313624; -0.009648759572199586; 0.02779321610251143; 0.491943359375; -0.74462890625; -0.16943359375;0
48;2234421127; 0.9999998957215135; -3.888214010560054E-4; -2.2872387238004335E-4; -7.113557844717899E-5; -0.1626322384059924; -0.009295272105586262; 0.028844115338752918; 0.4912109375; -0.747314453125; -0.16650390625;0
49;2234437794; 0.9999999765250814; -6.643219628427177E-5; -2.0293393611728328E-4; 3.680241054171419E-5; -0.16289964507864532; -0.006938806267944499; 0.02792779696060243; 0.490966796875; -0.74755859375; -0.172119140625;0
50;2234454461; 0.9999999674401874; 1.0280964616332655E-4; -2.059369850877513E-4; 1.1018057526501757E-4; -0.16367803344616538; -0.004894672315910183; 0.027494955452477293; 0.49169921875; -0.74609375; -0.16943359375;0
51;2234471128; 0.9999999571578415; -3.653438041822943E-5; -2.605126171112832E-4; 1.283850867678238E-4; -0.1632998870955178; -0.003902443344081831; 0.02722066444194704; 0.49169921875; -0.748046875; -0.169921875;0
52;2234487795; 0.9999999187595296; -2.560368877606578E-4; -2.998769452475792E-4; 8.366518846492088E-5; -0.16310139429473508; -0.0057428394850211895; 0.027695394396253403; 0.4912109375; -0.745361328125; -0.17236328125;0
53;2234504462; 0.9999999237707007; -2.4674139161035E-4; -2.8882605156670127E-4; 9.031495229600008E-5; -0.16193949306435496; -0.006570905684481827; 0.02812815377578111; 0.489501953125; -0.743896484375; -0.1708984375;0
54;2234521129; 0.9999999501253389; -1.5540954606824142E-4; -2.4773784110129765E-4; 1.1926086858815577E-4; -0.16210405516757675; -0.006526875064208411; 0.027928197779441923; 0.4931640625; -0.747314453125; -0.1748046875;0
55;2234537796; 0.9999999361273371; -3.873547431887392E-5; -2.697615554589639E-4; 2.312435683638481E-4; -0.16199069152022946; -0.0055684695580366095; 0.02721760634570146; 0.490966796875; -0.744140625; -0.17333984375;0
56;2234554463; 0.9999999076979879; -5.463889998547078E-5; -2.7752773784954504E-4; 3.2341453435846823E-4; -0.1624514061844824; -0.005087254477163773; 0.026949909962893426; 0.488525390625; -0.74853515625; -0.174560546875;0
57;2234571130; 0.9999998831422573; -2.3267114238040287E-4; -2.896141497974736E-4; 3.093594275829226E-4; -0.16224024708603135; -0.005251148270146541; 0.027001418097340052; 0.4921875; -0.746826171875; -0.172607421875;0
58;2234587797; 0.9999998831545671; -2.8772098760682097E-4; -2.780708535329302E-4; 2.7126386747927667E-4; -0.16293744456894593; -0.0055573437232206285; 0.027651820795948842; 0.49267578125; -0.743896484375; -0.17626953125;0
59;2234604464; 0.9999999105649434; -2.1823873341009214E-4; -2.141524061994721E-4; 2.9219977310374073E-4; -0.1621056659860453; -0.006022742336045252; 0.02722405992379924; 0.488037109375; -0.74658203125; -0.177001953125;0
60;2234621131; 0.9999999484143526; -7.04577727267397E-6; -1.4398727574577166E-4; 2.8703538763469316E-4; -0.16219745242832562; -0.006871567022359033; 0.027286206941233675; 0.489501953125; -0.74560546875; -0.177978515625;0
61;2234637798; 0.9999999628707152; 4.344541885931141E-5; -1.1819701096571489E-4; 2.416620167716155E-4; -0.16207620690124358; -0.004735087493646324; 0.027228044427894303; 0.489501953125; -0.743408203125; -0.1767578125;0
62;2234654465; 0.999999957551039; -2.0788530974164E-4; -1.0736482294738948E-4; 1.7365026070814693E-4; -0.16229274532544585; -0.003871878642406283; 0.02715898146584901; 0.488525390625; -0.74560546875; -0.17919921875;0
63;2234671132; 0.9999998887578452; -4.2630223149431323E-4; -1.2649889423121954E-4; 1.5731730490964327E-4; -0.162234745419643; -0.005073626299490604; 0.027192991792281886; 0.48876953125; -0.74658203125; -0.1787109375;0
64;2234687799; 0.9999998811679437; -4.518301325190377E-4; -9.239236547427256E-5; 1.5804202143471224E-4; -0.16216332912725134; -0.007067470049786126; 0.027527464464288873; 0.489501953125; -0.7470703125; -0.17626953125;0
65;2234704466; 0.999999940609198; -3.080206755561865E-4; -4.028729883025217E-5; 1.4927088574645533E-4; -0.16209576184913377; -0.007663944812719398; 0.027565057234223492; 0.48779296875; -0.744384765625; -0.180419921875;0
66;2234721133; 0.9999999564071034; -2.323247651690452E-4; -7.307711770987436E-7; 1.8223737450195898E-4; -0.16225056238998728; -0.006771825131480232; 0.02756440472894063; 0.48779296875; -0.744873046875; -0.1806640625;0
67;2234737800; 0.9999999610712185; -2.1636180267081695E-4; 2.3247878775223277E-5; 1.746558559975742E-4; -0.1623616189691646; -0.006373798592267284; 0.027839560801772217; 0.48828125; -0.7421875; -0.178955078125;0
68;2234754467; 0.9999999699983937; -1.924468728512485E-4; 1.4254977834790574E-5; 1.50878124754672E-4; -0.16245462110111497; -0.005593850210224717; 0.028076061058518946; 0.48876953125; -0.74560546875; -0.177490234375;0
69;2234771134; 0.9999999367843326; -3.295355330120153E-4; -6.928125927840867E-6; 1.3337789989925633E-4; -0.16201821889075796; -0.005486726840505746; 0.0282678305922967; 0.488037109375; -0.745849609375; -0.18017578125;0
70;2234787801; 0.9999999172390742; -3.947076404071659E-4; -2.9917183482275348E-5; 9.398236764029955E-5; -0.16207500624311283; -0.006828007413649521; 0.02805285984556842; 0.487548828125; -0.745361328125; -0.1796875;0
71;2234804468; 0.9999999595141009; -2.3816867368886552E-4; -2.6252297432999286E-5; 1.534871207214961E-4; -0.16277879240331306; -0.0076366442970651136; 0.028240734482967128; 0.489013671875; -0.748046875; -0.18017578125;0
72;2234821135; 0.9999999748078363; -9.791103402628787E-5; -2.3969427475178943E-5; 2.0055728079176882E-4; -0.16215309765066732; -0.006613533926018086; 0.028774090323443358; 0.48974609375; -0.746337890625; -0.1796875;0
73;2234837802; 0.9999999734729248; -1.0652057058602171E-4; -4.426215466087069E-5; 1.9936995586644637E-4; -0.16238267807123027; -0.0065020386531635735; 0.02868595532237471; 0.488037109375; -0.743408203125; -0.18115234375;0
74;2234854469; 0.9999999801880501; -8.526952145421207E-5; -4.246726611245589E-5; 1.7478426507294698E-4; -0.16238574316984444; -0.0068123958178901295; 0.02878815444119899; 0.487548828125; -0.742919921875; -0.181884765625;0
75;2234871136; 0.9999999916889247; -3.1674144681637095E-5; -4.386051896992927E-5; 1.1702629581988867E-4; -0.1626797457562635; -0.006188358452768522; 0.02850006155111258; 0.48828125; -0.7470703125; -0.17919921875;0
76;2234887803; 0.9999999910369705; 1.175508162643002E-5; -5.818643688244863E-5; 1.2000923170751854E-4; -0.16228057675914936; -0.006033302665347899; 0.028367049784663513; 0.487548828125; -0.744384765625; -0.18212890625;0
77;2234904470; 0.9999999879301131; 1.0862491435159605E-4; -4.508705384141665E-5; 1.0152614977715359E-4; -0.16255338172166894; -0.006632540271329375; 0.02838240512952149; 0.489990234375; -0.744873046875; -0.18115234375;0
78;2234921137; 0.9999999937374225; 9.026838272924165E-5; -5.632539449434982E-5; 3.470193057941717E-5; -0.1623877826339598; -0.005494056145666365; 0.02825902143864229; 0.48828125; -0.74609375; -0.181640625;0
79;2234937804; 0.9999999974634661; 4.01066826544727E-5; -5.6432676889095486E-5; 1.6729459683617612E-5; -0.1626660959756134; -0.0057943238988523715; 0.028109103463738877; 0.48828125; -0.747802734375; -0.1826171875;0
80;2234954471; 0.9999999977923908; 1.1492493915965518E-6; -6.641385137155788E-5; 1.7601356113727817E-6; -0.1626729678335217; -0.006255929453754097; 0.027713788232096886; 0.48876953125; -0.74853515625; -0.17919921875;0
81;2234971138; 0.9999999983837555; 1.3493596033808952E-5; -5.464919326875206E-5; 7.992335716133782E-6; -0.16237199069890448; -0.0069492523477069496; 0.027942934505488466; 0.48779296875; -0.74853515625; -0.180908203125;0
82;2234987805; 0.999999978848638; 1.9875066861768653E-4; -4.330123619039617E-5; 3.0428573816076998E-5; -0.16234770814401112; -0.006531942635571969; 0.027823500201715805; 0.487548828125; -0.74560546875; -0.177490234375;0
83;2235004472; 0.9999999655106744; 2.5815735784628924E-4; -3.2829512217280594E-5; 3.5435180498255565E-5; -0.162201528003411; -0.005676595620808779; 0.02813224892035039; 0.488525390625; -0.746826171875; -0.179931640625;0
84;2235021139; 0.9999999756812556; 2.1280927483124934E-4; -5.702986621236584E-5; 9.863827218181687E-6; -0.16248116415633618; -0.005106058232227387; 0.027978511377513664; 0.487548828125; -0.74951171875; -0.18017578125;0
85;2235037806; 0.9999999958129846; 7.733765630774103E-5; -4.7391817727962526E-5; -1.2121599285541686E-5; -0.16244102254822246; -0.005183162011794647; 0.02802370561366624; 0.487548828125; -0.748046875; -0.181640625;0
86;2235054473; 0.9999999908020439; 1.2971553833318605E-4; -2.7704139546627652E-5; -2.8324401957713352E-5; -0.16194712206703155; -0.006578913732045749; 0.027839104937501157; 0.486328125; -0.74755859375; -0.177490234375;0
87;2235071140; 0.9999999300945219; 3.7292843608710546E-4; -9.068672545020641E-6; 2.5555666159082783E-5; -0.16226208446585338; -0.006531046477772404; 0.028145693953362805; 0.487548828125; -0.7490234375; -0.179931640625;0
88;2235087807; 0.9999999206869091; 3.945382111150697E-4; -4.1539318602443205E-5; 3.521733275574368E-5; -0.16232196721543832; -0.00518845311664598; 0.027846540103056046; 0.48779296875; -0.7490234375; -0.181396484375;0
89;2235104474; 0.9999999855517828; 1.5274236978596312E-4; -6.485542456378945E-5; -3.687786187944742E-5; -0.16293050371561738; -0.004600475261299697; 0.02779517222798971; 0.48828125; -0.75; -0.180908203125;0
90;2235121141; 0.9999999928663503; 2.920348692869723E-5; -7.754902527354336E-5; -8.602676555874433E-5; -0.16385991338615222; -0.004494934128042638; 0.02749462252941754; 0.48876953125; -0.74658203125; -0.1787109375;0
91;2235137808; 0.999999994731839; 4.5198505442711756E-5; -5.6433895296623133E-5; -7.286036378689743E-5; -0.16299672976512114; -0.005616219229338908; 0.027671515091343468; 0.48974609375; -0.751953125; -0.17822265625;0
92;2235154475; 0.999999970129928; 2.4057402141758333E-4; 1.3131268792321296E-6; -4.315737579646539E-5; -0.1622450949295665; -0.006118320984175543; 0.028129454534978206; 0.48681640625; -0.749267578125; -0.178955078125;0
93;2235171142; 0.9999999438660667; 3.340166595880434E-4; 9.824172044384238E-6; -2.458089159590449E-5; -0.16210681773167102; -0.005226260584154256; 0.028538843699626844; 0.486328125; -0.7470703125; -0.17724609375;0
94;2235187809; 0.9999999690917291; 2.4563571828001285E-4; 3.3309539364534406E-6; -3.8321528423923557E-5; -0.1623324269054091; -0.0035964482207562973; 0.028316915039005144; 0.488525390625; -0.751220703125; -0.179931640625;0
95;2235204476; 0.9999999985928284; 1.7673862393485784E-5; -3.5317832967368685E-5; -3.542073350798481E-5; -0.16261685238785537; -0.003752033205994626; 0.028066690005047253; 0.487548828125; -0.747314453125; -0.17822265625;0
96;2235221143; 0.9999999934790201; -9.613893785853644E-5; -4.925257967466901E-5; -3.706005544512614E-5; -0.16323394364997001; -0.004795008392984808; 0.027866154897051333; 0.4892578125; -0.751220703125; -0.177978515625;0
97;2235237810; 0.9999999985302239; 5.450520786542956E-6; -5.393847447754396E-5; 6.963189209674426E-7; -0.16360243885556164; -0.005508542132167699; 0.028265192782431933; 0.48876953125; -0.74853515625; -0.176025390625;0
98;2235254477; 0.9999999931506229; 1.1381734985521641E-4; -2.372941434097831E-5; 1.3464021345610533E-5; -0.16308981232793632; -0.004982038123854442; 0.02886244052176295; 0.4892578125; -0.751220703125; -0.175048828125;0
99;2235271144; 0.999999994845967; 9.947127203091544E-5; -1.696431156683609E-5; -1.1213574505120063E-5; -0.16316654395284103; -0.004713591454523443; 0.0283677401505769; 0.487548828125; -0.751220703125; -0.175048828125;0
100;2235287811; 0.9999999884851647; 1.5023999475449745E-4; -1.3111989327685427E-5; -1.6902375091998323E-5; -0.16324057984336787; -0.004942146184725438; 0.02831610473988875; 0.488525390625; -0.753173828125; -0.178466796875;0
101;2235304478; 0.9999999792226586; 1.991295174900709E-4; -2.4919757587435476E-5; 3.5792785660349054E-5; -0.16279161815611704; -0.004155985418213735; 0.027940570268491456; 0.488037109375; -0.751220703125; -0.177734375;0
102;2235321145; 0.9999999926507783; 8.876070584967755E-5; -5.66216766062222E-5; 6.0116272508736746E-5; -0.16273809560982092; -0.0037537379838794016; 0.028349330173312134; 0.489990234375; -0.751708984375; -0.175537109375;0
103;2235337812; 0.9999999912183914; -6.535420699543826E-5; -1.0155583095106115E-4; 5.4575250688249095E-5; -0.1623620499484065; -0.004258319233503401; 0.028575853419188307; 0.486083984375; -0.75244140625; -0.176513671875;0
104;2235354479; 0.9999999817755876; -1.3146001141794983E-4; -1.2344413625069164E-4; 6.267882519683798E-5; -0.16221327775716365; -0.005219593456137685; 0.028135603145719223; 0.491455078125; -0.752197265625; -0.17822265625;0
105;2235371146; 0.9999999899257357; 1.066700998597625E-5; -1.1176998124173831E-4; 8.684592478541699E-5; -0.16311871198189748; -0.0063831525910143724; 0.027818717667358002; 0.4873046875; -0.751220703125; -0.1728515625;0
106;2235387813; 0.9999999707507661; 1.3704103006134671E-4; -1.3051011514952918E-4; 1.506165094967149E-4; -0.1627024511320724; -0.004598888100860878; 0.027357293522629153; 0.486572265625; -0.75146484375; -0.1787109375;0
107;2235404480; 0.999999972484707; -4.4570948635414E-5; -1.5968149377806887E-4; 1.6596938411805875E-4; -0.16301465403735377; -0.0036369517751768735; 0.02710918169122723; 0.4873046875; -0.752685546875; -0.177978515625;0
108;2235421147; 0.9999999372372654; -2.2640940397228304E-4; -2.0723609904356457E-4; 1.7696735971139965E-4; -0.16291960220729518; -0.005276934828352273; 0.027411593990183267; 0.487548828125; -0.751708984375; -0.181396484375;0
109;2235437814; 0.9999999536299885; -2.0294940638371228E-4; -1.6723860117447142E-4; 1.5356695485330143E-4; -0.1622925737205736; -0.006477287815626946; 0.02811335109112547; 0.48779296875; -0.75244140625; -0.18017578125;0
110;2235454481; 0.9999999837800209; -4.1266794252037275E-5; -1.2645701502761455E-4; 1.2143159826938366E-4; -0.1626691352234042; -0.005692868064214811; 0.027942570282769058; 0.488037109375; -0.753662109375; -0.17919921875;0
111;2235471148; 0.9999999916076339; -7.764430231227415E-5; -7.234384649268401E-5; 7.431327260654098E-5; -0.16232122065548188; -0.004198558246329004; 0.027328708737299465; 0.4853515625; -0.750244140625; -0.1748046875;0
112;2235487815; 0.9999999893175086; -1.2834815896178853E-4; -6.97209446869629E-5; -5.5428212596408954E-6; -0.16268484680633227; -0.0048012630830793004; 0.027208512738107392; 0.485595703125; -0.752685546875; -0.177490234375;0
113;2235504482; 0.9999999812844795; -1.7304760648229056E-4; -8.447174760203846E-5; -1.8710701248203513E-5; -0.16230529199999089; -0.004179486413724204; 0.02722964159970835; 0.4873046875; -0.753662109375; -0.181884765625;0
114;2235521149; 0.9999999153796619; -3.9066459685527244E-4; -1.257956187001308E-4; -2.8236571931017362E-5; -0.16232254611484676; -0.004243180163337697; 0.027202878003775396; 0.486572265625; -0.7509765625; -0.181396484375;0
115;2235537816; 0.9999998365356868; -5.57131700234692E-4; -1.2529163445232364E-4; -2.889419787105441E-5; -0.16179241469516903; -0.006147184149709363; 0.027778695210173995; 0.486083984375; -0.751953125; -0.17919921875;0
116;2235554483; 0.999999909751734; -4.170416608427763E-4; -7.718775298637405E-5; -2.479572177183087E-5; -0.16239112728527078; -0.007575732869134863; 0.02800681577414362; 0.48828125; -0.75146484375; -0.17626953125;0
117;2235571150; 0.9999999734098908; -2.24138918860306E-4; -4.789995618229015E-5; 2.544714274071991E-5; -0.16273479577068817; -0.006053825476018293; 0.027604417162732535; 0.488525390625; -0.751953125; -0.18115234375;0
118;2235587817; 0.9999999852723322; -1.4554127831944985E-4; -3.046953040225509E-5; 8.570110552047483E-5; -0.16256180573285856; -0.006547504281699208; 0.02712771346453495; 0.48681640625; -0.745849609375; -0.177001953125;0
119;2235604484; 0.999999998508801; -1.2749883536555817E-5; -8.873732632710964E-6; 5.235547205029168E-5; -0.1623453054177565; -0.006493841599604991; 0.027710671083652653; 0.48828125; -0.748291015625; -0.179931640625;0
120;2235621151; 0.9999999993032512; -3.3906781132686525E-5; -1.1913694798471043E-5; 1.0094137615823673E-5; -0.16274748543228007; -0.005024091663846202; 0.027953032409641525; 0.488525390625; -0.7490234375; -0.177978515625;0
121;2235637818; 0.9999999830950093; -1.7951069351695992E-4; -2.4866350017291317E-5; -3.110557477653542E-5; -0.16210474591812726; -0.004934074112679938; 0.027889938478850893; 0.487060546875; -0.752197265625; -0.1787109375;0
122;2235654485; 0.9999999672553372; -2.5146248002672067E-4; -1.81480963402092E-5; -4.38929606877414E-5; -0.16226522332794288; -0.006022040836209247; 0.02749764869078318; 0.486328125; -0.74951171875; -0.179931640625;0
123;2235671152; 0.9999999687246373; -2.427944788105929E-4; 4.000690985397904E-6; -5.987954587477474E-5; -0.16222034526190646; -0.006601006871287195; 0.027911212313865785; 0.48828125; -0.750244140625; -0.1787109375;0
124;2235687819; 0.9999999962059447; -7.746670994429605E-5; -7.097715249523851E-6; -3.920002633012176E-5; -0.16259433127951828; -0.0065427872019629615; 0.028472662075556078; 0.48828125; -0.748291015625; -0.1767578125;0
125;2235704486; 0.999999996059855; -7.974090134527101E-5; -2.8145766112305792E-5; -2.700915717790409E-5; -0.16252154564957813; -0.0055156058611343164; 0.02842215175256703; 0.487548828125; -0.746826171875; -0.177978515625;0
126;2235721153; 0.9999999874358514; -1.544138941525497E-4; -3.531858101291086E-5; -6.102794719242688E-6; -0.16243321190120702; -0.006309486533897672; 0.028080781441449; 0.489501953125; -0.74609375; -0.17822265625;0
127;2235737820; 0.9999999999744286; -4.599691297735298E-6; -5.266406982715189E-6; -1.5001837924688568E-6; -0.16311416069471896; -0.007076281343221726; 0.02831129893960669; 0.48681640625; -0.7470703125; -0.177734375;0
128;2235754487; 0.9999999948852565; 1.0077065239399996E-4; -6.1258210960479795E-6; -6.102192781132221E-6; -0.16288951154980247; -0.005865798966092822; 0.027941756917715117; 0.48779296875; -0.7451171875; -0.178466796875;0
129;2235771154; 0.9999999974854489; 5.670726398449011E-5; 7.8094631893455E-6; -4.186168596581608E-5; -0.1630495727173688; -0.004863577225520971; 0.028277713914087114; 0.488037109375; -0.749755859375; -0.17626953125;0
130;2235787821; 0.9999999823455696; -1.5006765779074227E-4; -3.518665289060919E-5; -1.0747305648345362E-4; -0.16268237229916038; -0.004762628388088899; 0.028022000029896195; 0.488037109375; -0.745361328125; -0.177001953125;0
131;2235804488; 0.9999999761288403; -1.922165187911995E-4; -3.301700161303934E-5; -9.851399046389987E-5; -0.16236519282599043; -0.0060767034419654045; 0.028197841566351467; 0.489501953125; -0.74658203125; -0.176025390625;0
132;2235821155; 0.9999999953404793; -6.483933922496465E-5; -4.415039686976597E-5; -5.626405480568808E-5; -0.16221946695778433; -0.006429247631811345; 0.028075307210080933; 0.488525390625; -0.7490234375; -0.171875;0
133;2235837822; 0.9999999985556012; 3.115186183044738E-5; -2.7316240934396885E-5; -3.423714494943387E-5; -0.16238087872063417; -0.006633009772251126; 0.028312822483822137; 0.4892578125; -0.748046875; -0.175537109375;0
134;2235854489; 0.9999999876160718; 1.5429160075225434E-4; -3.0936755438193415E-5; -2.208028618111424E-6; -0.1630490192471301; -0.005649349096019322; 0.028230563258539967; 0.488525390625; -0.75146484375; -0.177734375;0
135;2235871156; 0.9999999955007164; 8.446880679047197E-5; -3.918655635995472E-5; 1.8110816761396368E-5; -0.16308847102853063; -0.004447519428636679; 0.02778633223499226; 0.490234375; -0.747802734375; -0.177978515625;0
136;2235887823; 0.9999999977357309; -3.903948120148604E-5; -5.4051571555566176E-5; -9.104109005175776E-6; -0.16288898635876997; -0.00493066277529805; 0.027865452308111452; 0.489013671875; -0.7490234375; -0.17529296875;0
137;2235904490; 0.9999999902585193; -1.141505027946188E-4; -7.214325880337824E-5; -3.532667878403118E-5; -0.16227109612743895; -0.005418165161479541; 0.02776414258656519; 0.489990234375; -0.748291015625; -0.1767578125;0
138;2235921157; 0.9999999948664602; -7.274378080124322E-5; -7.032744827097094E-5; 5.428810135155171E-6; -0.16226230294607125; -0.005976941493341784; 0.02793966505113523; 0.491455078125; -0.746826171875; -0.177001953125;0
139;2235937824; 0.9999999907728139; -1.0526973853713928E-4; -8.248247443023994E-5; -2.3859919908331143E-5; -0.16241601302980915; -0.005919559872905447; 0.027727181391146556; 0.488525390625; -0.749267578125; -0.17578125;0
140;2235954491; 0.9999999808483409; -1.559442776612463E-4; -9.429791322750071E-5; -7.136248224359765E-5; -0.16325458418056443; -0.00572153180022883; 0.02744704300786629; 0.49169921875; -0.74609375; -0.175537109375;0
141;2235971158; 0.9999999762759859; -1.92807676406892E-4; -9.29598418840244E-5; -4.039424911489454E-5; -0.1636007294953783; -0.005358165846337262; 0.027397497566349217; 0.488037109375; -0.74658203125; -0.1806640625;0
142;2235987825; 0.9999999720747691; -2.2070651479594305E-4; -7.722636948405416E-5; -3.428094574875473E-5; -0.1633291146501163; -0.005764142394569349; 0.027668813193046655; 0.489501953125; -0.748291015625; -0.177001953125;0
143;2236004492; 0.9999999920721255; -9.80529977750999E-5; -3.830227858844793E-5; -6.909626681839144E-5; -0.16298521821268824; -0.006582403945614719; 0.028038872155289732; 0.488525390625; -0.74609375; -0.17333984375;0
144;2236021159; 0.9999999983554442; 1.8723962115219095E-5; -3.3067602259712066E-5; -4.2954146855844755E-5; -0.16229463580827697; -0.005809098713466659; 0.02780501364527429; 0.48974609375; -0.744384765625; -0.17578125;0
145;2236037826; 0.9999999987917172; -2.6757529786480827E-5; -3.9026647940698656E-5; -1.3323692978461922E-5; -0.16172938126247582; -0.005244345250367946; 0.028158140107690875; 0.49072265625; -0.74853515625; -0.175048828125;0
146;2236054493; 0.9999999948503429; -8.163156385837533E-5; -5.490670656302377E-5; -2.4916974518507384E-5; -0.16208442184766028; -0.005919059926748592; 0.027798663902851843; 0.48876953125; -0.744873046875; -0.17626953125;0
147;2236071160; 0.99999999432992; -9.836273450358757E-5; -3.874379842919163E-5; -1.2800412594049517E-5; -0.16253864001819013; -0.006234042506577102; 0.027945065851375586; 0.490234375; -0.747314453125; -0.174560546875;0
148;2236087827; 0.9999999981469442; -4.864745704175055E-5; -3.659869863668897E-5; 2.679690981333138E-7; -0.16289931554931353; -0.006584254101623929; 0.028230217551487358; 0.486572265625; -0.7470703125; -0.1787109375;0
149;2236104494; 0.9999999996245126; -1.3880448200165318E-5; -1.609255681486732E-5; 1.7301375162537273E-5; -0.16292958181243805; -0.0059894328605396285; 0.027821876203791923; 0.492431640625; -0.744384765625; -0.175048828125;0
150;2236121161; 0.9999999970325415; -6.98744446728794E-5; -3.019424694332418E-5; 1.1865354443862941E-5; -0.16311620742706656; -0.006629423437062194; 0.027985739753286602; 0.48828125; -0.746337890625; -0.17578125;0
151;2236137828; 0.9999999988438892; -3.186921128339737E-5; -2.1542687221459692E-5; -2.8852861300943115E-5; -0.1626408860869488; -0.006744483997719472; 0.028137856480359005; 0.48876953125; -0.74462890625; -0.177001953125;0
152;2236154495; 0.9999999974851888; -1.3498826298863342E-5; -2.6637711771887455E-5; -6.43260169927995E-5; -0.16278887753357588; -0.005909029205391693; 0.027935604154982092; 0.490478515625; -0.74755859375; -0.175537109375;0
153;2236171162; 0.9999999975963634; 3.9536703056675115E-5; -2.9741741750952122E-5; -4.857521166912183E-5; -0.16261666783620382; -0.006498878300298869; 0.02775320870873412; 0.489990234375; -0.747314453125; -0.175537109375;0
154;2236187829; 0.9999999967447216; 6.669454492991278E-5; -4.089678603237668E-5; -1.9744551516098774E-5; -0.1619249656478628; -0.006434651499099317; 0.02782739469862544; 0.48779296875; -0.748046875; -0.173828125;0
155;2236204496; 0.9999999987724134; 9.566733154886542E-6; -3.512758050289167E-5; -3.3611067411232216E-5; -0.1622750037455351; -0.006750174976404649; 0.027796321165131442; 0.48779296875; -0.7470703125; -0.17578125;0
156;2236221163; 0.9999999961413932; -1.6379179770875663E-5; -5.3214613793636796E-5; -6.794954651295759E-5; -0.16210413777202234; -0.0068100060307208915; 0.027949035315850107; 0.489990234375; -0.746337890625; -0.175048828125;0
157;2236237830; 0.9999999966427215; 5.3719224686887834E-5; -4.3101184747082466E-5; -4.439695385555221E-5; -0.16258249246159992; -0.006779503117443464; 0.027539406798330057; 0.490234375; -0.747802734375; -0.171875;0
158;2236254497; 0.9999999843184416; 1.711489194262672E-4; -4.5470745220738136E-5; -1.8908299732611766E-6; -0.16263012296715595; -0.006826637088793545; 0.027221054681376998; 0.4912109375; -0.748046875; -0.17626953125;0
159;2236271164; 0.9999999621750859; 2.742424054174575E-4; -1.1362599996400659E-5; -1.7658461622604985E-5; -0.1625137158696941; -0.006569500270094675; 0.027396899348136453; 0.491455078125; -0.746826171875; -0.1708984375;0
160;2236287831; 0.9999999853539971; 1.4421503135003677E-4; 1.839327907968147E-6; -9.214470656254692E-5; -0.16245197452929663; -0.0052513528364763265; 0.027540951540259123; 0.491943359375; -0.745849609375; -0.173095703125;0
161;2236304498; 0.9999999930941328; 1.488983392461396E-5; -5.057808886016479E-7; -1.1657517435598176E-4; -0.16254136551521065; -0.005552913405786189; 0.02730483104398137; 0.490966796875; -0.748291015625; -0.172607421875;0
162;2236321165; 0.9999999920419016; 1.0787355440744495E-5; 1.313873300545776E-5; -1.2500881325383517E-4; -0.16238036832604746; -0.006486113990039469; 0.027152169806105034; 0.48876953125; -0.7451171875; -0.174072265625;0
163;2236337832; 0.9999999941894129; 3.2346519673265295E-5; 1.1235993609387542E-5; -1.0221853735320475E-4; -0.16264090449003465; -0.006432004459289702; 0.027189455017471262; 0.489013671875; -0.744873046875; -0.171630859375;0
164;2236354499; 0.9999999972395168; -9.837185375172197E-7; 1.0499841065936268E-5; -7.355101597184E-5; -0.16274863186911112; -0.0059439770243674625; 0.02722741851851687; 0.49169921875; -0.74560546875; -0.172119140625;0
165;2236371166; 0.9999999984303267; 3.565706486480247E-5; 2.1865377793348073E-5; -3.728036672384639E-5; -0.16272413394747942; -0.006600912370684331; 0.02754906218203431; 0.49072265625; -0.7470703125; -0.17041015625;0
166;2236387833; 0.9999999902816361; 1.268718586469042E-4; 5.677220125874239E-5; -1.0824803988118692E-5; -0.16295583208435846; -0.006145614895317245; 0.027410888107348978; 0.490234375; -0.746337890625; -0.17041015625;0
167;2236404500; 0.9999999856497572; 1.4507585784856447E-4; 7.742890992695763E-5; -4.0721550110423006E-5; -0.16317092407428327; -0.006005635346979864; 0.02756086685799819; 0.491455078125; -0.746826171875; -0.1708984375;0
168;2236421167; 0.9999999920551499; 1.1493392228806298E-4; 5.1750529057592594E-5; -1.332877713478009E-6; -0.16302579957815783; -0.00564149672811011; 0.027492623792051182; 0.4921875; -0.74755859375; -0.169189453125;0
169;2236437834; 0.9999999986226964; 3.2565824153840683E-5; 2.5372521549757443E-5; 3.24084774114275E-5; -0.1625840344949822; -0.006497376809093118; 0.02751866584318418; 0.489501953125; -0.746826171875; -0.167236328125;0
170;2236454501; 0.9999999931739819; 9.860603290312575E-5; 1.639289536038702E-5; 6.049925044854243E-5; -0.1631229431289154; -0.006747788281152675; 0.02800752206182225; 0.490234375; -0.748779296875; -0.17236328125;0
171;2236471168; 0.9999999943032357; 6.476468399302382E-5; 4.701061779764649E-5; 7.063332135043289E-5; -0.1625173134916792; -0.0058422570405060395; 0.02785909567785582; 0.489013671875; -0.7470703125; -0.17138671875;0
172;2236487835; 0.9999999954761024; 7.958249257938865E-5; 3.644477212419451E-5; 3.723171492880928E-5; -0.1630606485575004; -0.00611303165527409; 0.027775720749826677; 0.489501953125; -0.74658203125; -0.16943359375;0
173;2236504502; 0.999999989842234; 1.368991309733114E-4; 3.289852059065734E-5; 2.2177625538521987E-5; -0.16318768494507363; -0.00593496051913156; 0.02750302617401705; 0.49072265625; -0.748046875; -0.16796875;0
174;2236521169; 0.999999992494003; 1.0831495208130093E-4; 2.7116650987396577E-5; 5.0443557038537534E-5; -0.16255890502828557; -0.006087226378782173; 0.02766443029653913; 0.49072265625; -0.744384765625; -0.168212890625;0
175;2236537836; 0.9999999845704446; 1.6539395115844346E-4; 2.1855905167691984E-5; 5.5011552381911695E-5; -0.16276951946250584; -0.005868656913458933; 0.028005883890436588; 0.489501953125; -0.750732421875; -0.166748046875;0
176;2236554503; 0.9999999991297563; 3.068417958135283E-5; -2.114868147509719E-6; 2.8186800250296074E-5; -0.16314779060835072; -0.005803437127490374; 0.027744342074801358; 0.49169921875; -0.7490234375; -0.167236328125;0
177;2236571170; 0.999999998243931; -2.102830155981117E-5; -3.9208520283481874E-5; 3.914895093753979E-5; -0.162921217975142; -0.006334176929583497; 0.027438280648896182; 0.489990234375; -0.749755859375; -0.16552734375;0
178;2236587837; 0.9999999956364851; -4.7484492629701336E-5; -4.4561914467528E-5; 6.698125459903004E-5; -0.16255220551464317; -0.006083143704357877; 0.027045017144027787; 0.491455078125; -0.75; -0.1669921875;0
179;2236604504; 0.999999995354611; 4.228629912189641E-5; -2.513901069911562E-5; 8.288954556334717E-5; -0.16261358818951124; -0.006396089778561584; 0.027228238119711777; 0.491455078125; -0.750244140625; -0.16796875;0
180;2236621171; 0.9999999969567822; 6.157553066321597E-5; -1.4674487551075146E-6; 4.7882524641496005E-5; -0.1630461592112239; -0.005443990148362728; 0.027389885271888015; 0.490966796875; -0.749267578125; -0.1669921875;0
181;2236637838; 0.9999999982015751; 5.460772899817945E-5; 2.3212977518755062E-5; -8.717992156515033E-6; -0.16323849819716496; -0.005735795337013946; 0.02693429348878601; 0.491455078125; -0.751953125; -0.1689453125;0
182;2236654505; 0.9999999914863704; 1.2399699543713671E-4; 2.3705578044916357E-5; -3.301590345516914E-5; -0.16334698570616657; -0.005943441366295321; 0.027090375949780456; 0.487548828125; -0.7490234375; -0.169921875;0
183;2236671172; 0.9999999809050453; 1.889340121803973E-4; 1.994611361542942E-5; -4.578209974659409E-5; -0.1634137654987307; -0.005690784549944282; 0.026816627589052025; 0.491455078125; -0.75146484375; -0.16552734375;0
184;2236687839; 0.9999999980926955; 5.0032653075626765E-5; -7.511880837043906E-6; -3.542476906392977E-5; -0.16282157266596076; -0.005684947090075207; 0.026449399590829065; 0.490966796875; -0.75244140625; -0.166259765625;0
185;2236704506; 0.9999999922089271; -1.1616928074398292E-4; -4.310602521269413E-5; 1.5123310372455736E-5; -0.16300203720276002; -0.006578384060631562; 0.026565977654217893; 0.49169921875; -0.748291015625; -0.16748046875;0
186;2236721173; 0.9999999928495413; -7.297788288751494E-5; -4.63392784746386E-5; 8.263060602431427E-5; -0.16240524988642044; -0.00746851474043151; 0.02687417957975411; 0.4912109375; -0.750732421875; -0.166748046875;0
187;2236737840; 0.9999999866036131; 9.77655217671014E-5; 3.2349968791395294E-6; 1.3124104201989176E-4; -0.16242445326897592; -0.007368810735295224; 0.027029545277747806; 0.491455078125; -0.750732421875; -0.165283203125;0
188;2236754507; 0.9999999873154098; 8.94373882388555E-5; 2.6438180208143707E-6; 1.317692835047235E-4; -0.1617392120919569; -0.006319279923597355; 0.02696879250807728; 0.48876953125; -0.7509765625; -0.165771484375;0
189;2236771174; 0.9999999853495426; 1.174627689322083E-4; -3.5574059117540746E-5; 1.1932266671904614E-4; -0.16279845327170694; -0.006128128827882287; 0.027421652725943407; 0.49267578125; -0.75244140625; -0.166259765625;0
190;2236787841; 0.9999999691385233; 2.1118690835353338E-4; -3.3482023075820384E-5; 1.2649899656963504E-4; -0.16386191063182157; -0.005552198159690977; 0.028129032206255365; 0.490234375; -0.75244140625; -0.166015625;0
191;2236804508; 0.999999888052837; 4.477743987139071E-4; 2.0292276976849325E-5; 1.5159361748418035E-4; -0.16524967674943492; -0.0027895602223007507; 0.030155703052809305; 0.48974609375; -0.753662109375; -0.166748046875;0
192;2236821175; 0.9999996482129574; 6.771265960363593E-4; -7.793472826968241E-5; 4.888759683629451E-4; -0.16976911757326169; 0.0037487004934595447; 0.03454905623831639; 0.49072265625; -0.75341796875; -0.16552734375;0
193;2236837842; 0.9999986192302112; 7.594594475334726E-4; -4.592516399509472E-4; 0.0014049366355723405; -0.1692696477129446; 0.012649739042866724; 0.04246332497765552; 0.48876953125; -0.7548828125; -0.171630859375;0
194;2236854509; 0.9999937079382064; 0.0013256171434686825; -9.913485238158134E-4; 0.003137523113927787; -0.1701777840508927; 0.019831088937204956; 0.05474834923284336; 0.485107421875; -0.760986328125; -0.171630859375;0
195;2236871176; 0.999977087204799; 0.0029171811696993566; -0.002108416613474704; 0.005733210166456227; -0.1774964159217524; 0.03224216245600683; 0.06692720015562495; 0.48046875; -0.771240234375; -0.181396484375;0
196;2236887843; 0.9999328910289381; 0.004337445943487062; -0.0038636305184166085; 0.01002359019585114; -0.1854266374826817; 0.049899674215042676; 0.07465140113365631; 0.472412109375; -0.785888671875; -0.19384765625;0
197;2236904510; 0.9998675828686239; 0.004353738794327655; -0.005729711912777727; 0.014595618807121737; -0.19493893217938574; 0.056718136766915554; 0.08572994725918964; 0.456787109375; -0.80908203125; -0.220703125;0
198;2236921177; 0.9997840261710682; 0.004905551278527542; -0.007431166707693449; 0.018778028149540604; -0.20676562109586313; 0.052168483812045655; 0.0938534440594277; 0.436767578125; -0.833251953125; -0.25390625;0
199;2236937844; 0.9996677999493337; 0.005472997272429447; -0.00952923157512465; 0.023313725375890552; -0.2173371949095866; 0.061434461078398346; 0.09948467822168114; 0.4072265625; -0.857421875; -0.29345703125;0
200;2236954511; 0.9994909055470517; 0.005597197692901512; -0.011740541747678529; 0.029133499381163275; -0.22714686850316737; 0.07678547252416112; 0.09900261759256332; 0.37255859375; -0.8935546875; -0.341064453125;0
201;2236971178; 0.9992500297108329; 0.006581468247653655; -0.013687932249556077; 0.03561885609247179; -0.23764036585519666; 0.08371109122406985; 0.09602589251839289; 0.32421875; -0.934326171875; -0.402099609375;0
202;2236987845; 0.9990077218097513; 0.007014578105656477; -0.014943317605782875; 0.04136501803967857; -0.24728745833131532; 0.09983484569175471; 0.09220904079346284; 0.259765625; -0.97412109375; -0.466064453125;0
203;2237004512; 0.9988333885748282; 0.004828757285199714; -0.015691428511415407; 0.04541281804158404; -0.24493788856686358; 0.12366286924156043; 0.08621907471709807; 0.189697265625; -1.009521484375; -0.527099609375;0
204;2237021179; 0.9986803319237496; 4.2625818130720416E-4; -0.016600641040869533; 0.04859867950535737; -0.2485861788012313; 0.147671870047331; 0.08089373971544075; 0.1064453125; -1.0341796875; -0.59716796875;0
205;2237037846; 0.9985127512851024; -0.0030692347714354473; -0.01842325528856338; 0.051219615222543736; -0.25056959008332547; 0.14703186172785754; 0.07754886663225813; 0.015380859375; -1.040283203125; -0.668212890625;0
206;2237054513; 0.9983452595244023; -0.004241912510315082; -0.019881094583382195; 0.053791179960800906; -0.24033581185415115; 0.14325511094237425; 0.06687192980623749; -0.082763671875; -1.036376953125; -0.73486328125;0
207;2237071180; 0.9982436742091945; -0.00496700377551712; -0.020886278678347418; 0.05521466415538546; -0.22083229681176234; 0.12679313549843604; 0.06235594426416741; -0.18896484375; -1.015380859375; -0.792724609375;0
208;2237087847; 0.9982315235191412; -0.004661973038976086; -0.020961848373462325; 0.05543187145321726; -0.19737804050364283; 0.12390143469763353; 0.05305471946187145; -0.294677734375; -0.988037109375; -0.836669921875;0
209;2237104514; 0.9981937774153359; -0.005283439510108956; -0.020956096293166027; 0.0560545272426534; -0.18440858354123746; 0.12245528295036191; 0.04228643531940886; -0.408447265625; -0.9423828125; -0.875;0
210;2237121181; 0.9981581070996757; -0.005581347852275931; -0.020250704663197953; 0.056913537475615186; -0.15960529350568878; 0.11353374218770027; 0.03933636811869035; -0.51513671875; -0.882080078125; -0.894287109375;0
211;2237137848; 0.9981855554544166; -0.004682652430109069; -0.01904102343374892; 0.05693073928004177; -0.14569806995343654; 0.11603841034038388; 0.02928690608527903; -0.61767578125; -0.821533203125; -0.90234375;0
212;2237154515; 0.9982188634033331; -0.005310763752543524; -0.01838339484508789; 0.056506170708092135; -0.13799552652397173; 0.10262351242632071; 0.02067315448301578; -0.715576171875; -0.747802734375; -0.89892578125;0
213;2237171182; 0.9982335739004774; -0.004963887651849519; -0.017433034059602337; 0.056578980909315214; -0.12287438289340148; 0.0930083360703129; 0.015141259051344502; -0.80859375; -0.662353515625; -0.880615234375;0
214;2237187849; 0.9982601972319249; -0.0035548567241980855; -0.01650173117336007; 0.056494552696970984; -0.1055024126901486; 0.09120327772711398; 0.011373164261131382; -0.893798828125; -0.573974609375; -0.8486328125;0
215;2237204516; 0.9983038266269988; -0.0020277027005610737; -0.01570159173278402; 0.05602515667721401; -0.08821925501951133; 0.08827893404944362; 0.008120180311794956; -0.965087890625; -0.482421875; -0.806640625;0
216;2237221183; 0.9983798736798273; -0.0011456711476193482; -0.014168528570676688; 0.05509598957107223; -0.06202824203391099; 0.08025149390425759; 0.006176806399960339; -1.0263671875; -0.386474609375; -0.75;0
217;2237237850; 0.9985083261695287; -0.001051403106355403; -0.013112075882322882; 0.05299141994408454; -0.038598061126486005; 0.06361638906806263; 0.010375938935512575; -1.077880859375; -0.291015625; -0.7001953125;0
218;2237254517; 0.9986515323303551; -0.002254427259081121; -0.012134977124461323; 0.05042595425131825; -0.01125262647922097; 0.05450236752164947; 0.01576077333615996; -1.1162109375; -0.197998046875; -0.63916015625;0
219;2237271184; 0.9987907571472889; -0.0033925080468267255; -0.011006524068752967; 0.04779509131931251; 0.008255188939374119; 0.042784948599660685; 0.02127672611886524; -1.14501953125; -0.106689453125; -0.571533203125;0
220;2237287851; 0.9989336558914056; -0.005354786760350658; -0.009826519888771647; 0.0447919288829762; 0.02574733019294908; 0.039709260675903135; 0.029052370935301053; -1.160400390625; -0.021728515625; -0.510009765625;0
221;2237304518; 0.9990851976131854; -0.00945507997428574; -0.00984061806824571; 0.040528158222859274; 0.05305677706431203; 0.005755184352083269; 0.0362230822427137; -1.17138671875; 0.06103515625; -0.447509765625;0
222;2237321185; 0.9993115507859351; -0.009961202784013135; -0.009759471538600186; 0.03437952326883678; 0.09449443858200052; -0.05448154936410209; 0.05140607286964346; -1.17529296875; 0.133056640625; -0.3818359375;0
223;2237337852; 0.9995604160913726; -0.00915373499533012; -0.00881714432503278; 0.026785101919330787; 0.12928299293715773; -0.08066006808546414; 0.06130078126504598; -1.1767578125; 0.186767578125; -0.326416015625;0
224;2237354519; 0.9997758156654812; -0.009187368621193598; -0.00872374525842823; 0.0169648736189221; 0.13765238833345092; -0.12043795694066772; 0.079084990791381; -1.17578125; 0.2216796875; -0.282958984375;0
225;2237371186; 0.9999215260739692; -0.006747710853300087; -0.00830615189654138; 0.006512905098057701; 0.14081548682765863; -0.1199950841037618; 0.08394926450914565; -1.179443359375; 0.235595703125; -0.248046875;0
226;2237387853; 0.9999458210094306; -0.006766567162688225; -0.00740721268986222; -0.0027752143657057103; 0.15034646215497294; -0.07633819659398244; 0.0766108337073848; -1.19140625; 0.23291015625; -0.233154296875;0
227;2237404520; 0.9999540358446807; -0.0035579109266210274; -0.004651272556391307; -0.007591648791897166; 0.17063228060920765; -0.07104090586750461; 0.07039257720029299; -1.19970703125; 0.219482421875; -0.2275390625;0
228;2237421187; 0.9999382499005032; 0.003899586626014251; -5.514354933968125E-4; -0.010391608583933353; 0.18004871435994005; -0.06501061534083882; 0.06489645418127658; -1.203369140625; 0.1962890625; -0.234130859375;0
229;2237437854; 0.9998683448498581; 0.009243353731332643; 0.0027879726668548765; -0.013041494830411756; 0.16420255318607294; -0.03558332823573161; 0.06772536654736133; -1.20849609375; 0.171875; -0.2587890625;0
230;2237454521; 0.9998119334191873; 0.0099461498887074; 0.0045514618634405766; -0.016014246466303894; 0.14984087366070117; 0.005243266292421757; 0.0660569143919173; -1.20751953125; 0.143310546875; -0.292724609375;0
231;2237471188; 0.9997793331546263; 0.00683169076818585; 0.005416334600521323; -0.019112203369406753; 0.14288562919600348; 0.03327027985753638; 0.06294694807068457; -1.205322265625; 0.1064453125; -0.32958984375;0
232;2237487855; 0.9997541848240163; 0.0037048259811683637; 0.006390025917752119; -0.020904826239083657; 0.13266924577147862; 0.04938370218754644; 0.06062087964664977; -1.206787109375; 0.06982421875; -0.3642578125;0
233;2237504522; 0.9997296650692298; 0.0016997599410141784; 0.0073770149516321215; -0.02198379510257448; 0.13012346550805567; 0.044268590560557174; 0.057309283881557566; -1.201904296875; 0.031494140625; -0.40625;0
234;2237521189; 0.9996955875914044; 0.0033048207702140453; 0.008790213434045126; -0.02281539957435541; 0.11900543813620498; 0.028758650266753706; 0.05589044825646217; -1.194091796875; -0.010498046875; -0.4453125;0
235;2237537856; 0.9996293672172963; 0.00558888694752524; 0.010306604616926398; -0.024569624350117395; 0.10621772507994338; 0.02510911020545112; 0.05376377768083136; -1.1845703125; -0.0537109375; -0.48828125;0
236;2237554523; 0.9995411977560297; 0.00584102470467239; 0.011272105263018918; -0.027499382934537353; 0.09060059858527122; 0.03349093178141092; 0.0516182450298002; -1.16650390625; -0.10205078125; -0.53759765625;0
237;2237571190; 0.9994469560976363; 0.004026211709217353; 0.011269219497264504; -0.031025413105456538; 0.0722671819853741; 0.05306610154822235; 0.052376221337875666; -1.146728515625; -0.16162109375; -0.587890625;0
238;2237587857; 0.9993804987989424; 8.300111479686567E-4; 0.01083581670525169; -0.03347409114825223; 0.06084137061600138; 0.08828753068666603; 0.05138921127413039; -1.124755859375; -0.218994140625; -0.63232421875;0
239;2237604524; 0.9993604278329262; -0.0026305933045819574; 0.010311296552017681; -0.034139309071402786; 0.049427051477992034; 0.10132713193081905; 0.05157191279818102; -1.09375; -0.277587890625; -0.68017578125;0
240;2237621191; 0.9993137002330839; -0.00256055116472656; 0.010819643035435368; -0.035334224609871207; 0.04966005148880617; 0.07016716208335985; 0.05456473122904189; -1.063720703125; -0.337646484375; -0.720458984375;0
241;2237637858; 0.9992435261950511; 0.001705418278831694; 0.012389790047448335; -0.03682336226303568; 0.034676874444889295; 0.050166815527408815; 0.06516897351857229; -1.024169921875; -0.3994140625; -0.764892578125;0
242;2237654525; 0.9991541969555688; 0.003777073715675122; 0.013285284382003328; -0.038731455422020555; 0.012165345516167202; 0.07881078724704886; 0.0699417246428574; -0.98095703125; -0.466796875; -0.8037109375;0
243;2237671192; 0.9990813636141215; 8.869539955873029E-4; 0.01241120834960291; -0.04100736639751524; 2.7898796316215904E-4; 0.12009092075743086; 0.06556177104372521; -0.927978515625; -0.53369140625; -0.832763671875;0
244;2237687859; 0.9991016390185282; -0.0010431769145229364; 0.011832197148738456; -0.04067955018248132; -0.009200085803416047; 0.13996781757534027; 0.06360150480188281; -0.867431640625; -0.59326171875; -0.86376953125;0
245;2237704526; 0.9991288068584979; -2.8860286966847504E-4; 0.012643560054371672; -0.03977039606352393; -0.024474349788460283; 0.118754262902787; 0.07307748872883342; -0.810791015625; -0.649169921875; -0.887451171875;0
246;2237721193; 0.9991038529303106; 0.0039040310609214646; 0.01352490853813493; -0.03991649346221304; -0.03490816766153922; 0.08901512539084476; 0.07871934545567101; -0.747314453125; -0.708984375; -0.904052734375;0
247;2237737860; 0.999023747451882; 0.005957020667908097; 0.014172140325060758; -0.04141517077795443; -0.04623861654153989; 0.1057831826278446; 0.07685180776621736; -0.677734375; -0.768310546875; -0.909912109375;0
248;2237754527; 0.9990006774082694; 0.004094114230677182; 0.013757348860832632; -0.0423275338143676; -0.06732249190006827; 0.15132798096882155; 0.07556181747293916; -0.60400390625; -0.821044921875; -0.91064453125;0
249;2237771194; 0.9990402032852357; 0.0014809921358102107; 0.013422852870349833; -0.041669004102684155; -0.09111718467472686; 0.1427017389591292; 0.07670453066212327; -0.527587890625; -0.86865234375; -0.905517578125;0
250;2237787861; 0.9990610704524262; 0.0027012768533305476; 0.013772144205687066; -0.04098790862915205; -0.10915427989401576; 0.1229483696690448; 0.08299099049333411; -0.448974609375; -0.90380859375; -0.893798828125;0
251;2237804528; 0.9990634638628835; 0.002932993916981763; 0.013544239497048168; -0.040989587670850876; -0.1163249736108099; 0.1362874153453973; 0.07956229328906872; -0.37060546875; -0.939453125; -0.875732421875;0
252;2237821195; 0.9990902912165299; 0.0010448823627789983; 0.012963106649162616; -0.04061349632474104; -0.13903245152851962; 0.14605561480233292; 0.06653549752922674; -0.29248046875; -0.968505859375; -0.853515625;0
253;2237837862; 0.9992086596852906; 7.340902498603752E-5; 0.012624002848049931; -0.03771847787401581; -0.1718675635804769; 0.12223341670698638; 0.06336048119828175; -0.22021484375; -0.982177734375; -0.819091796875;0
254;2237854529; 0.9993284006801436; 0.002102130806507896; 0.012431861509774602; -0.03440606719083883; -0.1820360130143459; 0.09581501971175296; 0.07765090491710444; -0.148193359375; -0.994873046875; -0.79345703125;0
255;2237871196; 0.999372459360068; 0.003380378421797503; 0.011672934485567834; -0.03327165632832547; -0.1718756629656263; 0.10312249422143027; 0.08450440036822568; -0.088134765625; -1.005859375; -0.75341796875;0
256;2237887863; 0.9994078504424331; 0.0019762017288232903; 0.01060290712174919; -0.03267447721585903; -0.16778051226545532; 0.12170691191210761; 0.0778630331878724; -0.026123046875; -1.011474609375; -0.71337890625;0
257;2237904530; 0.9994954394675734; -8.709014675600812E-5; 0.00923205727010562; -0.0303912490264911; -0.17371177443368085; 0.11701793994400694; 0.0680491502010574; 0.029052734375; -1.00830078125; -0.6796875;0
258;2237921197; 0.9996011525501116; -1.7398903334997495E-4; 0.008570710067194539; -0.026908148900454232; -0.16619172085790768; 0.09033524833877053; 0.06918920624428507; 0.080810546875; -1.001953125; -0.64453125;0
259;2237937864; 0.9996614072588809; 0.0015575844823974005; 0.008694403109653333; -0.024475541308440266; -0.16336745660096502; 0.07617886606169966; 0.0759105059568253; 0.123046875; -0.997314453125; -0.60546875;0
260;2237954531; 0.9996801184516496; 0.0014572048438907803; 0.008648094818828002; -0.023722305590800907; -0.16099022667279989; 0.08408345301334433; 0.08040437381697928; 0.164306640625; -0.98779296875; -0.5673828125;0
261;2237971198; 0.9997007618644813; 1.078258166688495E-4; 0.008301483717392324; -0.023010008023874155; -0.17223446412761945; 0.09024884802247979; 0.08219716201463959; 0.203125; -0.976806640625; -0.53076171875;0
262;2237987865; 0.9997405762679586; -0.0015434463830913403; 0.00721971483557675; -0.021547010334743544; -0.17543198752560307; 0.0890888757798454; 0.07363876105136927; 0.239013671875; -0.963623046875; -0.496337890625;0
263;2238004532; 0.9997763387911729; -0.0031437164842334497; 0.006314445337483646; -0.019937833885972426; -0.1695460633909125; 0.0763679883598922; 0.06577330949245508; 0.2724609375; -0.947509765625; -0.467041015625;0
264;2238021199; 0.9998144248577996; -0.0028235914095848247; 0.005871209362601053; -0.018129315443218386; -0.17259830499186873; 0.05948912191813231; 0.06674125689178248; 0.29833984375; -0.9287109375; -0.435302734375;0
265;2238037866; 0.9998608957075622; -6.975031019262334E-4; 0.005276958206834473; -0.015806847768532254; -0.17427681963730324; 0.05178624848835313; 0.07109268282680298; 0.32470703125; -0.9111328125; -0.410888671875;0
266;2238054533; 0.9998941457964945; 6.019725774836782E-4; 0.004597515050019177; -0.013791217722865234; -0.17288614796775756; 0.05637977171964052; 0.0735722211579389; 0.34423828125; -0.8984375; -0.386962890625;0
267;2238071200; 0.9999244013866918; 1.5822086565792093E-4; 0.0036908634766656405; -0.011727915604246299; -0.1716906638297433; 0.06548995052362305; 0.07218362600390521; 0.360595703125; -0.892578125; -0.363037109375;0
268;2238087867; 0.9999602494873063; 3.5520174951531036E-4; 0.0027868372426365054; -0.008462081019703027; -0.17007934143508951; 0.057507037322643034; 0.07074699163128204; 0.37353515625; -0.88232421875; -0.348388671875;0
269;2238104534; 0.9999841596747812; 0.00250670310242862; 0.0020230738953292172; -0.0046156268363007355; -0.16995708432524673; 0.0493416775100805; 0.07061060363941157; 0.381103515625; -0.8759765625; -0.33203125;0
270;2238121201; 0.9999879388149928; 0.004656898311955704; 0.0011827230163070671; -0.001018179218478521; -0.17049790084859534; 0.051949851822907726; 0.0715720441901292; 0.383544921875; -0.88037109375; -0.326171875;0
271;2238137868; 0.9999844222833444; 0.005308337498741822; -1.2300037210477567E-5; 0.0017252803698248889; -0.1708547042316798; 0.062369170035422014; 0.0698385670580158; 0.38232421875; -0.89453125; -0.326171875;0
272;2238154535; 0.9999802980899835; 0.004696531395286252; -0.0010429473898490203; 0.004032156428350586; -0.17112228644643213; 0.0665577800191369; 0.06888555085603669; 0.375732421875; -0.90380859375; -0.324951171875;0
273;2238171202; 0.9999671706330853; 0.0048621142612146895; -0.0017478027110192484; 0.006242009825061013; -0.17086901634922305; 0.060543291755962445; 0.07120009201766786; 0.3671875; -0.91455078125; -0.333251953125;0
274;2238187869; 0.9999472769979711; 0.00574795078515139; -0.0022280833632176695; 0.008212181844099276; -0.17444838814041994; 0.05971346482120373; 0.0738134377333898; 0.35595703125; -0.92919921875; -0.34130859375;0
275;2238204536; 0.999924844616664; 0.00588747796941963; -0.003143090297147664; 0.010284148233277281; -0.1760214769153844; 0.06698166059381835; 0.06909227001594877; 0.33984375; -0.947509765625; -0.350341796875;0
276;2238221203; 0.999893392302643; 0.005047135849088669; -0.004453433728380905; 0.012957522033970936; -0.17471186868943522; 0.07400111438383056; 0.06374263350563387; 0.324462890625; -0.965087890625; -0.36572265625;0
277;2238237870; 0.9998351570771553; 0.00435904761514555; -0.005836978015401985; 0.016630906891586087; -0.17809393095473613; 0.07028377965525956; 0.0637213152435313; 0.298583984375; -0.982421875; -0.39599609375;0
278;2238254537; 0.9997521826461149; 0.004559124188798169; -0.00717947077795593; 0.020572867576227227; -0.18249100625187106; 0.06274712575569294; 0.06468005651182149; 0.267822265625; -1.006103515625; -0.42041015625;0
279;2238271204; 0.9996760948758794; 0.004967027685891301; -0.008349411055958622; 0.023522782673356505; -0.1819979921772662; 0.06027771960863779; 0.06937073638731137; 0.22900390625; -1.02880859375; -0.455078125;0
280;2238287871; 0.9996335547741568; 0.005494248204472141; -0.008588141248858984; 0.025076148750160232; -0.17667388176411575; 0.06964083595005913; 0.07124989863844254; 0.1875; -1.053466796875; -0.48974609375;0
281;2238304538; 0.9996077567848943; 0.004830170596519967; -0.00871333618375586; 0.026174029113394674; -0.17664147496210433; 0.09573619336427436; 0.06971239078890781; 0.144287109375; -1.07177734375; -0.5205078125;0
282;2238321205; 0.999558814291089; 0.0028868712120562745; -0.009289052579879583; 0.02806343260838634; -0.182818772428488; 0.11483078958159702; 0.06513917372586804; 0.094482421875; -1.086181640625; -0.555908203125;0
283;2238337872; 0.9994894686626161; 5.225666745484192E-4; -0.010329215865469242; 0.030229724712550508; -0.1822675903984704; 0.10904830381940893; 0.061774858389227014; 0.0400390625; -1.099853515625; -0.594970703125;0
284;2238354539; 0.9994382017841477; 5.27254046113701E-4; -0.01099004354661909; 0.03165788622892865; -0.17435929011813495; 0.09697970381110173; 0.06309314330865787; -0.019775390625; -1.103271484375; -0.636474609375;0
285;2238371206; 0.999395561479917; 0.0015074224047447737; -0.011152652896610604; 0.032891605392603836; -0.16786286443126908; 0.10453165351485319; 0.06483010420620106; -0.07958984375; -1.10791015625; -0.6708984375;0
286;2238387873; 0.9993371374074854; 0.0017380876100834275; -0.011203049709160669; 0.034594168972334416; -0.16414616372178992; 0.12207355581044657; 0.06707725474518769; -0.149658203125; -1.1083984375; -0.70263671875;0
287;2238404540; 0.9992714415951963; 7.664519691976679E-4; -0.01134544772670665; 0.03643184567816555; -0.15821996939107796; 0.13483892991238555; 0.06636432791560909; -0.2177734375; -1.099853515625; -0.735595703125;0
288;2238421207; 0.999231200184087; -9.023874212303329E-4; -0.01136576789073407; 0.0375101798964651; -0.14247098328245944; 0.13517172165426816; 0.0651421777283229; -0.288818359375; -1.088623046875; -0.7646484375;0
289;2238437874; 0.9992096941723252; -0.0018597815228012515; -0.011264858071464656; 0.0380740233934582; -0.12734289969365042; 0.138749408296316; 0.06428434868548842; -0.365478515625; -1.0625; -0.78857421875;0
290;2238454541; 0.9991936532248639; -0.0026378596033020396; -0.011071348147473294; 0.03850338039784637; -0.11453827012440998; 0.13881771514759617; 0.06302482201698864; -0.435546875; -1.037353515625; -0.807373046875;0
291;2238471208; 0.9991814274283441; -0.003066317704146504; -0.01080217414681395; 0.038863682425830666; -0.09614610321705397; 0.14005711526986248; 0.060987726411169105; -0.510498046875; -1.0009765625; -0.827392578125;0
292;2238487875; 0.9991931743878931; -0.0030386009097259636; -0.010225912046037846; 0.038719476804102315; -0.07541327019132792; 0.13322041652329333; 0.06178547786098476; -0.583984375; -0.95849609375; -0.833984375;0
293;2238504542; 0.9992184780645985; -0.002552064856497671; -0.009810971498210197; 0.038205561080776836; -0.06370357424088413; 0.13041106129730973; 0.05836396791736164; -0.648681640625; -0.9169921875; -0.84228515625;0
294;2238521209; 0.9992541522041309; -0.00230238174552988; -0.009525325363293148; 0.037351124719676165; -0.049900509477816754; 0.12245536527819981; 0.054405556805062275; -0.712158203125; -0.86572265625; -0.84033203125;0
295;2238537876; 0.999263318717496; -0.0020732955993786883; -0.008782109533605477; 0.03730141905066501; -0.039387744112885884; 0.12986593113500572; 0.05070773843910449; -0.77490234375; -0.815185546875; -0.835205078125;0
296;2238554543; 0.9992549332779811; -0.003143988762999872; -0.00866828603364256; 0.03747738613503543; -0.03355949977338455; 0.13012174801557558; 0.04827303794379882; -0.83642578125; -0.76318359375; -0.82421875;0
297;2238571210; 0.9992725329369342; -0.0026787307111920122; -0.00820541404945202; 0.03714701199097501; -0.018909702920597675; 0.12272288928968376; 0.04724619506831658; -0.88671875; -0.700927734375; -0.812255859375;0
298;2238587877; 0.9993119451067971; -0.002429444011663451; -0.008131023951358287; 0.03610568678430276; -0.009440776346454152; 0.10739539068631354; 0.047031197856527006; -0.9384765625; -0.644287109375; -0.790771484375;0
299;2238604544; 0.9993475154980441; -0.0010426007652083735; -0.007561808688497152; 0.03530262456092068; 0.004435320868611426; 0.0983996297867332; 0.04977928120870444; -0.982666015625; -0.580322265625; -0.7666015625;0
300;2238621211; 0.9993934537239217; -9.46500708026432E-5; -0.006557335418548583; 0.03420112640460907; 0.0159901405373857; 0.10262351401077312; 0.04914869264515552; -1.02294921875; -0.52294921875; -0.740966796875;0
301;2238637878; 0.9994318356956461; 2.1589928100418376E-5; -0.005654189997387871; 0.03322702916872775; 0.029124881134679873; 0.1064026073842253; 0.05083708161360262; -1.061279296875; -0.459228515625; -0.7109375;0
302;2238654545; 0.9994637428886853; 3.7185226724051335E-5; -0.004908164123152482; 0.032374916110147256; 0.04040723444410314; 0.10099986092491055; 0.05048063511891852; -1.090087890625; -0.403564453125; -0.68359375;0
303;2238671212; 0.999517971467202; 5.005403312371981E-5; -0.003973295136825928; 0.030790179188159992; 0.05571380050801816; 0.08855612257132017; 0.05741618560852903; -1.1142578125; -0.345947265625; -0.65380859375;0
304;2238687879; 0.999569821594617; -1.5159003447615116E-4; -0.0032242691253366877; 0.029150520859401743; 0.06003314497833742; 0.08785044321277628; 0.0585547089116276; -1.134033203125; -0.288330078125; -0.620361328125;0
305;2238704546; 0.9996258701123506; -0.0016656450468199024; -0.0028394715949893734; 0.02715295250548769; 0.07112678243032851; 0.07943747226937495; 0.06057223320985175; -1.150390625; -0.23193359375; -0.59375;0
306;2238721213; 0.9996757025006123; -0.002696062766247259; -0.0025859347079205124; 0.025189958657252653; 0.07957771198929105; 0.07055105596970435; 0.06578206092736645; -1.16162109375; -0.18017578125; -0.5693359375;0
307;2238737880; 0.9997220463977591; -0.001715604912604779; -0.002305548895675858; 0.02340023697210006; 0.08685060761331548; 0.07045937784805342; 0.07110803353518294; -1.169677734375; -0.135498046875; -0.54248046875;0
308;2238754547; 0.9997609430835; -0.0018628028087712967; -0.001992001592622084; 0.021693745184759305; 0.09907568535776713; 0.07166469727848705; 0.07343194848241182; -1.17626953125; -0.085693359375; -0.519775390625;0
309;2238771214; 0.9998075937932286; -0.001665080912523792; -0.0019013914529514842; 0.019452187781631273; 0.10934662484031181; 0.06171435813108238; 0.07715664282552614; -1.1806640625; -0.04736328125; -0.4921875;0
310;2238787881; 0.9998463022942954; -0.002526203439018909; -0.0017332642646703535; 0.017262267510322865; 0.11231098533688212; 0.05989723252244293; 0.07967107626238; -1.18115234375; -0.01220703125; -0.466064453125;0
311;2238804548; 0.9998801601676421; -0.004023340534585196; -0.0021221033045879527; 0.014797794147703382; 0.11493361801725886; 0.05655479557442268; 0.08189416010387665; -1.181396484375; 0.01953125; -0.45068359375;0
312;2238821215; 0.9999146145117155; -0.005691665825924175; -0.002624453734438204; 0.011466510742554725; 0.12430148616413338; 0.03768624075965734; 0.07996214462192959; -1.18603515625; 0.043212890625; -0.42724609375;0
313;2238837882; 0.9999504422032113; -0.004348103860760899; -0.0027861906082780052; 0.008511420111388864; 0.1279953517738566; 0.010658706147488067; 0.08103043094414084; -1.18701171875; 0.066650390625; -0.41064453125;0
314;2238854549; 0.9999767028935671; -0.0014774316581096514; -0.0029108497852283204; 0.005994816038370265; 0.12937121531437268; 0.010535102116706482; 0.0825314353218611; -1.19140625; 0.07861328125; -0.396484375;0
315;2238871216; 0.9999873589867186; -7.244489957860534E-4; -0.0035419163074272846; 0.003494548510334567; 0.12802065544343055; 0.018528562294698292; 0.08127776306373599; -1.193115234375; 0.081787109375; -0.3857421875;0
316;2238887883; 0.9999909101298008; 1.427459312096091E-4; -0.004022293102126374; 0.0014072809145000698; 0.12825115241000262; 0.01811751915741844; 0.08141237285316197; -1.19482421875; 0.087646484375; -0.37890625;0
317;2238904550; 0.9999921191081139; 5.691677798485839E-4; -0.003846954141996095; -7.991955526717999E-4; 0.12910886069897354; 0.028206780409082137; 0.07595214293238758; -1.201171875; 0.084228515625; -0.37158203125;0
318;2238921217; 0.9999917944636293; 8.483596773108393E-4; -0.0030723955075170344; -0.0025003354002804123; 0.1314972534479354; 0.03197643954999373; 0.07118603619339578; -1.203369140625; 0.076416015625; -0.368408203125;0
319;2238937884; 0.9999905324432565; 0.0017141246945325261; -0.0018466403951068468; -0.0035477767171834544; 0.13248632735709812; 0.04012252521735712; 0.0670051614501049; -1.205322265625; 0.070068359375; -0.364990234375;0
320;2238954551; 0.9999882013854671; 0.00216437839458819; -4.3982299110795214E-4; -0.004326558882079196; 0.13411790712412408; 0.05462009503801499; 0.06561945178328457; -1.207275390625; 0.05859375; -0.3759765625;0
321;2238971218; 0.9999854770325151; 0.001807259929355376; 8.998650344086423E-4; -0.004996976938209275; 0.13291711716691096; 0.061206043278243506; 0.06641967193266292; -1.206787109375; 0.047607421875; -0.38232421875;0
322;2238987885; 0.9999792559883041; 0.0015923699459524099; 0.0020562099781916148; -0.005892703247120212; 0.1315606208083215; 0.05246443381049005; 0.06570102960664162; -1.2041015625; 0.034912109375; -0.392578125;0
323;2239004552; 0.9999664791427084; 0.0016303581198148787; 0.0032933745041276445; -0.0073168441087678735; 0.13340314140351428; 0.042646364099342325; 0.06503958713343061; -1.202392578125; 0.02197265625; -0.40380859375;0
324;2239021219; 0.9999450686675585; 0.0019405706771069564; 0.004604794012216363; -0.009213560928543307; 0.13261269436732123; 0.03485903498783157; 0.0651614870776069; -1.2001953125; 0.009765625; -0.423828125;0
325;2239037886; 0.9999140934357801; 0.002527369443294236; 0.005631144625971862; -0.011563233215697773; 0.1325954044048502; 0.02943664666782994; 0.06376185063537113; -1.19482421875; -0.012939453125; -0.4462890625;0
326;2239054553; 0.999872154577208; 0.003584878280996129; 0.006713539778770095; -0.014062415599082306; 0.13095604637771238; 0.02717504197784947; 0.06051633087240946; -1.190185546875; -0.033203125; -0.472412109375;0
327;2239071220; 0.9998166449702659; 0.004884055879867899; 0.00785904925707548; -0.01676477805813251; 0.12552879323289823; 0.025265372597013114; 0.058693174144597335; -1.17919921875; -0.06298828125; -0.502197265625;0
328;2239087887; 0.99974656764046; 0.006267275924894067; 0.009305241177520686; -0.019517536479498027; 0.11620658277649225; 0.03603330681314264; 0.058406530524396406; -1.16943359375; -0.1015625; -0.5400390625;0
329;2239104554; 0.9996751279138322; 0.0056581604554192255; 0.010324582001853877; -0.02260590314964195; 0.10196736487565612; 0.045863212188878885; 0.058296277933452156; -1.153076171875; -0.1416015625; -0.57666015625;0
330;2239121221; 0.9996090592846982; 0.004559101411216321; 0.010751552640614783; -0.025403686860356545; 0.08751272858979771; 0.06722897572700903; 0.05867562954229638; -1.134033203125; -0.192626953125; -0.62060546875;0
331;2239137888; 0.999566256826975; 0.002170673132069756; 0.010560496551222322; -0.027405515934852857; 0.07401069660454328; 0.09578195969732897; 0.056398424388615705; -1.111083984375; -0.240234375; -0.65771484375;0
332;2239154555; 0.9995200542131166; 1.0844303534374156E-4; 0.010525758844024903; -0.029135165465015822; 0.06905352632686525; 0.08362668414774158; 0.05612078272836484; -1.083984375; -0.289306640625; -0.697509765625;0
333;2239171222; 0.9994561001814521; 0.0017374371668102406; 0.011956634989518156; -0.03068426309856365; 0.06177153985809145; 0.060133671343763864; 0.060821575741327; -1.05078125; -0.3427734375; -0.732177734375;0
334;2239187889; 0.9993741556262297; 0.003984295626677348; 0.01300521389545817; -0.03265404823682988; 0.041512871574903076; 0.07323143173022564; 0.06645637755977393; -1.01611328125; -0.399169921875; -0.773193359375;0
335;2239204556; 0.9993081462490125; 0.0031044472735451134; 0.012942870424640764; -0.034728566809744545; 0.020507245680622323; 0.10477662463086984; 0.06797435505059636; -0.970947265625; -0.457763671875; -0.810791015625;0
336;2239221223; 0.9993040994285167; -6.467534418456711E-4; 0.012074072596731268; -0.03528619200587679; 0.009121103986202968; 0.14381967914439764; 0.06733110880953644; -0.921630859375; -0.513671875; -0.84130859375;0
337;2239237890; 0.9992838027235315; -0.005957294989381412; 0.012291952122399918; -0.03528881074545399; 0.004136353755321716; 0.1611880416702664; 0.061148507097758174; -0.8720703125; -0.55859375; -0.87109375;0
338;2239254557; 0.9992565175163588; -0.007448274168351865; 0.012681974180455859; -0.03563850367058369; 0.0031401473382159937; 0.10258881029084282; 0.06310325060895859; -0.815185546875; -0.60107421875; -0.899169921875;0
339;2239271224; 0.9993002935477311; -5.78877583678028E-4; 0.015147067780054426; -0.034192902097189816; -0.016764217260373204; 0.07222209896118902; 0.07277047961637911; -0.75537109375; -0.638671875; -0.91796875;0
340;2239287891; 0.9993084396297729; 0.0055787291628659474; 0.016765883826662057; -0.032717356328814284; -0.04872419641394105; 0.10249986020337455; 0.08707498984558401; -0.694091796875; -0.68408203125; -0.933837890625;0
341;2239304558; 0.9993487602784851; 0.002757380030621648; 0.01535430140434435; -0.032537633804660133; -0.056809373645336565; 0.15730585445383177; 0.08656152587997798; -0.63330078125; -0.731689453125; -0.9375;0
342;2239321225; 0.9993493910929276; -0.0025021342526998502; 0.014257036832666105; -0.03303438734301328; -0.05081103739110261; 0.18817940320328524; 0.0737384367763823; -0.57080078125; -0.76416015625; -0.94287109375;0
343;2239337892; 0.9993738074948851; -0.005647270350863098; 0.013738138574648008; -0.03211486850766055; -0.07165448987316825; 0.15568022853168084; 0.06809713488188102; -0.5068359375; -0.7841796875; -0.9501953125;0
344;2239354559; 0.9994511983603291; -0.0021870673673778374; 0.015404727774728013; -0.029244028358264063; -0.09668543435954997; 0.10357540154277285; 0.0848547873259802; -0.44091796875; -0.80517578125; -0.943359375;0
345;2239371226; 0.999483187169978; 2.5400361113175896E-4; 0.016150358910439477; -0.027793163795660717; -0.09068410089890314; 0.11424903409265748; 0.10240001662000082; -0.38427734375; -0.82470703125; -0.933349609375;0
346;2239387893; 0.9994002528452384; -0.002644005868585597; 0.015418765060207814; -0.030893454482439686; -0.06486835329313559; 0.1245535272218741; 0.11165905010829294; -0.319580078125; -0.840087890625; -0.917724609375;0
347;2239404560; 0.9993326799126085; -0.004674810663246154; 0.013946694092320524; -0.03343397565115356; -0.07444816935933997; 0.15882561608481494; 0.08368878259596918; -0.25; -0.8505859375; -0.90283203125;0
348;2239421227; 0.9993811883430374; -0.007716995475036126; 0.014119025361272521; -0.0312784508846668; -0.11469903695804311; 0.1552247091014694; 0.05999770749976335; -0.184326171875; -0.8515625; -0.884765625;0
349;2239437894; 0.9994346500050727; -0.007377622461604061; 0.013728081290499267; -0.02979078448334824; -0.14764498368054696; 0.0855732145156787; 0.08317791201413471; -0.12109375; -0.841796875; -0.862548828125;0
350;2239454561; 0.9994553524380175; -0.00353869386761807; 0.012436476079767446; -0.030361327234278507; -0.14773004410279722; 0.06795015987027922; 0.10222043989751874; -0.0634765625; -0.8359375; -0.833984375;0
351;2239471228; 0.999482998446024; -0.0011498106305384836; 0.011354755401394719; -0.030057998646514126; -0.1612623851045959; 0.09570239266446573; 0.09280326621640425; -0.005615234375; -0.8349609375; -0.803955078125;0
352;2239487895; 0.9995471929751192; -0.001147707713170798; 0.010529782445604334; -0.028164081100102822; -0.17440867239620428; 0.10562250918798109; 0.07289548273672358; 0.048583984375; -0.82958984375; -0.7734375;0
353;2239504562; 0.9996196425923831; -0.001805439764283212; 0.009414296314587137; -0.02585887769480583; -0.17354849620026339; 0.0766355307766981; 0.06812145097842856; 0.091552734375; -0.8251953125; -0.741943359375;0
354;2239521229; 0.9996361570265708; 8.584656493049181E-5; 0.00896834461661085; -0.025438454952179834; -0.16068389909285374; 0.041612450681836624; 0.08043585404186701; 0.134521484375; -0.814208984375; -0.7060546875;0
355;2239537896; 0.999634629183814; 0.003566351084648145; 0.009301995320589779; -0.025126921011843665; -0.16561794201712288; 0.052745938941346805; 0.08384679044146919; 0.177490234375; -0.808837890625; -0.667236328125;0
356;2239554563; 0.9996641347143285; 0.004473091504196558; 0.008999195531707907; -0.023887731119343114; -0.17580505044084305; 0.072269996943572; 0.07430846211327362; 0.213623046875; -0.80908203125; -0.630615234375;0
357;2239571230; 0.9997140661825693; 0.001734669123784227; 0.008141987054408568; -0.022416173771414253; -0.17204404271179688; 0.07340604511393359; 0.06360531887086901; 0.244384765625; -0.800537109375; -0.593017578125;0
358;2239587897; 0.9997291858415348; -0.00156559692897984; 0.007631115322040285; -0.021928747383734237; -0.16755126999806272; 0.0484137069189805; 0.06414643281740998; 0.2783203125; -0.783935546875; -0.56005859375;0
359;2239604564; 0.9997497359897397; -0.0013766699692717155; 0.007568414184270217; -0.02100688637035281; -0.1748366694038513; 0.02968753922010526; 0.0671189859678969; 0.311279296875; -0.767822265625; -0.528564453125;0
360;2239621231; 0.9997783905501866; 3.799307142530184E-4; 0.007352402924170617; -0.019722261857394896; -0.17750459091121018; 0.02833242094067702; 0.06339150097625976; 0.33642578125; -0.749267578125; -0.48974609375;0
361;2239637898; 0.9998137412160305; 8.083065925141297E-4; 0.006866394019852277; -0.01801893862637483; -0.17489093912310594; 0.03511028505766451; 0.05788745745414515; 0.36328125; -0.740966796875; -0.456298828125;0
362;2239654565; 0.9998564142414498; -4.204582592470807E-5; 0.00601682364744035; -0.015841305677700868; -0.17000006516293947; 0.03307700502975244; 0.057431610503742694; 0.383056640625; -0.728271484375; -0.4306640625;0
363;2239671232; 0.999895408828404; -3.800394258924866E-4; 0.005221419150832547; -0.01348197893356118; -0.1670023862754323; 0.02260842190324163; 0.06009653903532453; 0.39794921875; -0.713623046875; -0.402099609375;0
364;2239687899; 0.9999366128589523; 2.380315947608791E-5; 0.0043093479100886145; -0.010401885317822157; -0.16250238940221273; 0.01937762159197761; 0.06106065929787809; 0.41357421875; -0.701904296875; -0.381591796875;0
365;2239704566; 0.9999647295811548; 1.0640567752101537E-4; 0.0036059446063418515; -0.00758455239389877; -0.160249815905124; 0.01802633144472969; 0.06383459483316373; 0.4228515625; -0.69482421875; -0.365478515625;0
366;2239721233; 0.9999814019593893; 2.2333649397587862E-4; 0.002969431392012348; -0.005322436787117302; -0.1644317549495519; 0.021909232731074584; 0.06695375120512645; 0.435546875; -0.686279296875; -0.353271484375;0
367;2239737900; 0.9999933249908851; 8.123814197460444E-4; 0.00209969445247199; -0.0028777236332008797; -0.16778938570176663; 0.028480050064346278; 0.06898334001251041; 0.435302734375; -0.688232421875; -0.344482421875;0
368;2239754567; 0.9999982319728334; 0.001501789353892613; 0.0011258406114809663; 1.1472951304281054E-4; -0.16754367127373115; 0.03613109065240585; 0.07105183023784836; 0.439697265625; -0.6865234375; -0.33935546875;0
369;2239771234; 0.9999947562835716; 0.0015741991136232758; 1.1023170885846034E-4; 0.002827923528175847; -0.1672477211374271; 0.041083766227920315; 0.07449388836888371; 0.436279296875; -0.695068359375; -0.339111328125;0
370;2239787901; 0.9999879824643265; 8.200718646607097E-4; -9.97720815470879E-4; 0.004729372287830991; -0.1716234120883003; 0.04189796933872942; 0.07675706696881608; 0.43310546875; -0.700439453125; -0.347412109375;0
371;2239804568; 0.9999816909226279; 9.778695673736126E-4; -0.0017318677481698646; 0.005715087465115455; -0.1773142943190701; 0.03695192789732574; 0.08056863425726218; 0.428466796875; -0.708984375; -0.35595703125;0
372;2239821235; 0.9999776170909491; 0.0018660973775403433; -0.002233975706132076; 0.006024313257877112; -0.1827115038717244; 0.04480494333941492; 0.08092732067267697; 0.4189453125; -0.7177734375; -0.363525390625;0
373;2239837902; 0.9999668562963948; 0.002488175204231946; -0.0028713762280705157; 0.007200728533651724; -0.18333864331560332; 0.05388133225933833; 0.07531255908012957; 0.412109375; -0.72900390625; -0.376708984375;0
374;2239854569; 0.9999450131809836; 0.0029928571394849945; -0.0036780562668781718; 0.009353358900572317; -0.1794963859857437; 0.0490043017198349; 0.06880758886434798; 0.40087890625; -0.740966796875; -0.389892578125;0
375;2239871236; 0.9999242706321579; 0.003676772175580101; -0.004268304482964524; 0.010941477229175491; -0.173887800640468; 0.03950859537403688; 0.07170485421112163; 0.38818359375; -0.758544921875; -0.410888671875;0
376;2239887903; 0.9998914015199215; 0.0049022049188851; -0.005001984964428317; 0.012966637955772242; -0.17913884926941837; 0.046600101763531784; 0.07321191758230376; 0.369384765625; -0.775634765625; -0.428466796875;0
377;2239904570; 0.9998196772253644; 0.005492825372798604; -0.006235478635366817; 0.017075148859671433; -0.1830133219845849; 0.054798617688448535; 0.06812551543519194; 0.347900390625; -0.794921875; -0.4560546875;0
378;2239921237; 0.9996978791489879; 0.0053941687488149315; -0.007658324461450604; 0.022724511765233657; -0.1852362878572335; 0.05618849018232021; 0.06280616716424404; 0.318603515625; -0.8251953125; -0.488525390625;0
379;2239937904; 0.9995383784326715; 0.005361277452074986; -0.009186789656597702; 0.02845856004918668; -0.19426341591547613; 0.048346038979114755; 0.06594008399224506; 0.279541015625; -0.850830078125; -0.52490234375;0
380;2239954571; 0.9993974863004739; 0.0060684499662044256; -0.0103756927973065; 0.03256045592859169; -0.19958528719418123; 0.04638869784906462; 0.07014895673702401; 0.231201171875; -0.880859375; -0.5703125;0
381;2239971238; 0.9992838283138984; 0.006966810611524876; -0.010855468817070786; 0.03557320363678474; -0.20153779963771012; 0.06476330325993268; 0.07199148718408489; 0.176513671875; -0.915771484375; -0.617919921875;0
382;2239987905; 0.9991837891987122; 0.0064425929685316685; -0.01077108783861286; 0.038395729777129184; -0.2002744438559526; 0.09117137898593124; 0.0704979523224189; 0.11083984375; -0.94287109375; -0.66015625;0
383;2240004572; 0.9991409291041217; 0.0044511492341661185; -0.011075453853865243; 0.03968532954857113; -0.19742281283235766; 0.099661602376952; 0.07225245897026253; 0.041259765625; -0.964599609375; -0.70556640625;0
384;2240021239; 0.999169676531895; 0.002673955138818518; -0.011618522382200349; 0.038959176078533386; -0.18189714234511736; 0.10468621849389827; 0.07449035291715317; -0.030517578125; -0.970947265625; -0.748046875;0
385;2240037906; 0.999202828375165; 0.0015932680159631563; -0.01182260690652523; 0.03809718139224428; -0.16453034414563808; 0.11325089268488989; 0.07270447720350873; -0.1015625; -0.974609375; -0.78369140625;0
386;2240054573; 0.9992108768076521; 5.773728372976406E-4; -0.012362323514188674; 0.037742062307463214; -0.15066180501328472; 0.11225587308101843; 0.0710630491768617; -0.17431640625; -0.9677734375; -0.81982421875;0
387;2240071240; 0.9992467315861112; 6.768695573184935E-4; -0.012421218403411734; 0.0367590069976245; -0.1285659822746626; 0.10706611820696718; 0.06998246072380881; -0.243896484375; -0.957763671875; -0.844970703125;0
388;2240087907; 0.9993007090388178; 6.378371169667441E-4; -0.012270991182534526; 0.03531442840718599; -0.10668550214041743; 0.10588679174301223; 0.07062878947889419; -0.31494140625; -0.943115234375; -0.866943359375;0
389;2240104574; 0.999358008534649; 7.041816256115885E-4; -0.01193805997792105; 0.033772142808267853; -0.09244049785761095; 0.11274184664582151; 0.06912161314737553; -0.3798828125; -0.923828125; -0.88623046875;0
390;2240121241; 0.9993873225533279; -2.5628797942839343E-4; -0.01169911162652604; 0.03298552141943918; -0.08815932569206679; 0.11948915125996831; 0.06488811062816749; -0.447998046875; -0.896484375; -0.897216796875;0
391;2240137908; 0.9994009686129515; -8.967035603607565E-4; -0.011353697114900032; 0.03268016860486409; -0.08132202806831171; 0.11257424359617224; 0.06806591403034337; -0.509033203125; -0.869384765625; -0.906005859375;0
392;2240154575; 0.9993934265515063; -5.829358714465327E-5; -0.010769065757021358; 0.03311801307774509; -0.07719831352059028; 0.1204330220199222; 0.0661210083293948; -0.568359375; -0.83740234375; -0.909912109375;0
393;2240171242; 0.9993973052834464; 1.5358885294114444E-4; -0.010320030095513855; 0.033143620524588864; -0.07012634851652519; 0.11978137672427235; 0.06464834110946738; -0.6298828125; -0.80322265625; -0.9052734375;0
394;2240187909; 0.9993944142488376; 7.090479974902753E-5; -0.009774271634937883; 0.033395558907414025; -0.06049633478333366; 0.12890653651942166; 0.06295191545853399; -0.685546875; -0.764892578125; -0.90185546875;0
395;2240204576; 0.9993992683385572; -9.954009589374646E-4; -0.009209965088732898; 0.03339593035613634; -0.04981321883932439; 0.1316756425785609; 0.06212197171072824; -0.743896484375; -0.72607421875; -0.89404296875;0
396;2240221243; 0.9994216027367452; -0.0016454709739320283; -0.008885077815432409; 0.03278426147716687; -0.03242972256771431; 0.12189760100997676; 0.06346206892331012; -0.79443359375; -0.67529296875; -0.88525390625;0
397;2240237910; 0.9994363737612468; -0.0020666555555315935; -0.008286220599582284; 0.03246540136759541; -0.014388983999452968; 0.12103963202008361; 0.06069731854142084; -0.840087890625; -0.625; -0.868408203125;0
398;2240254577; 0.9994353483752171; -0.002187239313996725; -0.007745246356411329; 0.03262225561131918; -0.00625651835955239; 0.1325173475132167; 0.05924086356981239; -0.885986328125; -0.578857421875; -0.853515625;0
399;2240271244; 0.9994371777549729; -0.0019185024361344227; -0.007360461348064563; 0.03267216978287291; 0.0023635320842905596; 0.13485770000121214; 0.054314283049310116; -0.928466796875; -0.524658203125; -0.830078125;0
400;2240287911; 0.9994683338325527; -0.0017607650533003616; -0.006810535680848718; 0.03183655094616611; 0.01815520215362912; 0.11726870206293623; 0.056767859219702774; -0.965087890625; -0.4677734375; -0.809326171875;0
401;2240304578; 0.9994929145523526; -8.987637927910519E-4; -0.005861269471862329; 0.03128500445048402; 0.03199714242853163; 0.10564265556209496; 0.05897241046351309; -1.000244140625; -0.413330078125; -0.784423828125;0
402;2240321245; 0.9994967459314353; -2.5900997956132543E-4; -0.005095044030913155; 0.03130859806227956; 0.04116448815985958; 0.11932925674268954; 0.054051054213219187; -1.02734375; -0.357421875; -0.758544921875;0
403;2240337912; 0.9995152240060792; -0.002085759085856259; -0.00482954745210662; 0.030686186803202568; 0.05021279719966319; 0.12164024695925764; 0.05462149399048699; -1.053466796875; -0.302978515625; -0.730712890625;0
404;2240354579; 0.9995408265720053; -0.0038369461626889256; -0.00455537203205031; 0.02970963556738579; 0.061964529738437156; 0.11167076741626863; 0.055780728286522946; -1.073486328125; -0.244873046875; -0.702392578125;0
405;2240371246; 0.9995587129426632; -0.004870997084906431; -0.004128117387891761; 0.02901053971641088; 0.07136220546193588; 0.09869842120380554; 0.05909117943469433; -1.08984375; -0.185791015625; -0.669677734375;0
406;2240387913; 0.9995665344229936; -0.005219578156549498; -0.0038015037944363343; 0.028723645910204626; 0.07670814586580121; 0.0890914468239257; 0.06381229111365373; -1.103759765625; -0.1259765625; -0.638427734375;0
407;2240404580; 0.9995880541083025; -0.006001207108787071; -0.003625789298738469; 0.027830940501099303; 0.09318193007848488; 0.06924160525303213; 0.06438526561903066; -1.11669921875; -0.070556640625; -0.605712890625;0
408;2240421247; 0.9996362529522208; -0.006394241476038398; -0.00374797351961409; 0.025931219679877854; 0.10063956189074943; 0.0457708235470907; 0.07251641288675696; -1.12255859375; -0.01318359375; -0.571044921875;0
409;2240437914; 0.9996871598761952; -0.007543277654034508; -0.004135455190133919; 0.02348572654339393; 0.11020976832700505; 0.037727306115718055; 0.07379416696403915; -1.126953125; 0.033935546875; -0.537353515625;0
410;2240454581; 0.9997539093887293; -0.008814255365263257; -0.00468808328694359; 0.01981038715934086; 0.12138172395201623; 0.021031249796586136; 0.07657994804539697; -1.131103515625; 0.082275390625; -0.503662109375;0
411;2240471248; 0.9998313583322322; -0.008256747993611258; -0.004978936353084219; 0.01562981768560687; 0.12807691952163375; -7.341715855339881E-5; 0.08075276892591755; -1.135498046875; 0.1142578125; -0.46875;0
412;2240487915; 0.999904984424354; -0.006239835854346482; -0.004885800987628698; 0.011278985794490576; 0.12883286694748694; -0.023539529290520764; 0.08167975444351404; -1.14111328125; 0.141845703125; -0.447509765625;0
413;2240504582; 0.9999580368270974; -0.0038663322597413396; -0.004655529724943319; 0.00687765241449398; 0.12750085860000304; -0.021464996692892688; 0.07776344677593215; -1.14208984375; 0.15576171875; -0.427001953125;0
414;2240521249; 0.9999842131517549; -0.0021302477634524697; -0.004128017469952673; 0.0031614812192334862; 0.12826931075609543; -0.004335132381253541; 0.07631688053476356; -1.147705078125; 0.16357421875; -0.4130859375;0
415;2240537916; 0.9999945352016156; 8.2117389157782E-5; -0.0032719210640322354; 4.662147464778999E-4; 0.1298151831580857; 0.0026064501591076886; 0.07532146661459731; -1.14990234375; 0.1630859375; -0.4052734375;0
416;2240554583; 0.9999931521070493; 0.0024748410923891295; -0.0019096396019910868; -0.001980953600067059; 0.1353222626402697; 0.009551561325367188; 0.07059609671512243; -1.15478515625; 0.158447265625; -0.4033203125;0
417;2240571250; 0.999981502905813; 0.004312199554060869; -3.008720325687886E-4; -0.004278814936105353; 0.13432426339310793; 0.022957147238761234; 0.06828627359755499; -1.155517578125; 0.150390625; -0.4111328125;0
418;2240587917; 0.999965891719412; 0.005701509481729039; 0.0011548989585042915; -0.005862968175474326; 0.12750303343568334; 0.042350680398092595; 0.06858572370066347; -1.157470703125; 0.1357421875; -0.419677734375;0
419;2240604584; 0.9999540633589667; 0.006231043086735527; 0.002375201513119374; -0.006885033893524601; 0.12597944247314383; 0.05464665632558721; 0.06740058460872919; -1.152587890625; 0.119873046875; -0.438232421875;0
420;2240621251; 0.9999422807874943; 0.0067092124057990254; 0.0035629234573472672; -0.0075978377736697356; 0.12272963559477182; 0.059756051604873; 0.06856288717777176; -1.15283203125; 0.102294921875; -0.45458984375;0
421;2240637918; 0.9999309019115555; 0.006684310582246444; 0.004500068266797275; -0.00855925113414602; 0.12052316876384901; 0.060100750166609485; 0.06914676296740879; -1.146240234375; 0.08544921875; -0.4794921875;0
422;2240654585; 0.9999188951782654; 0.005910223866731845; 0.005299530226318906; -0.009959282037508788; 0.11937308082219203; 0.05902193525270445; 0.06754953056410855; -1.141845703125; 0.06591796875; -0.4970703125;0
423;2240671252; 0.9999001235887096; 0.004356654938043686; 0.005972953651753877; -0.012045174540369382; 0.11871963925558207; 0.05641837904882679; 0.06692597621427314; -1.135986328125; 0.04248046875; -0.51953125;0
424;2240687919; 0.9998727541756748; 0.003318866955878963; 0.006509388784471105; -0.014180565465888473; 0.1145563989682585; 0.054280233130597655; 0.06853277049233045; -1.128662109375; 0.017578125; -0.54541015625;0
425;2240704586; 0.999843917826296; 0.0031567588265173085; 0.00712503411792198; -0.015855874251924088; 0.11211579689339443; 0.05404668283148384; 0.06736661449009841; -1.12060546875; -0.009521484375; -0.578125;0
426;2240721253; 0.9998023668302659; 0.0036680881063878013; 0.007932493438443102; -0.017856314235903392; 0.10955419058628671; 0.044336234141061595; 0.06801546796660947; -1.107177734375; -0.044677734375; -0.6064453125;0
427;2240737920; 0.999738871447479; 0.005070579005494236; 0.009031027950055616; -0.020369552759827384; 0.10285491137577951; 0.04016210192372878; 0.06812263827903672; -1.095458984375; -0.078857421875; -0.6396484375;0
428;2240754587; 0.999666015525675; 0.005337515466127402; 0.009771346422643214; -0.023321430504119445; 0.08995596119816104; 0.04963945209979155; 0.06963623406198546; -1.075927734375; -0.123046875; -0.67431640625;0
429;2240771254; 0.9996187087656269; 0.004251779647519771; 0.009461377778392899; -0.025589876633240197; 0.06980703820430041; 0.07971145335057511; 0.07064104119265857; -1.05615234375; -0.169189453125; -0.716064453125;0
430;2240787921; 0.9996087959672059; 7.839873689102494E-4; 0.008831356065150621; -0.02652635555158314; 0.06691134102271229; 0.10649699945619949; 0.06675218084240546; -1.032958984375; -0.216796875; -0.74267578125;0
431;2240804588; 0.9995617619419055; -4.0118978200245903E-4; 0.00925881753702651; -0.028114007330303118; 0.06705172761961511; 0.08315729585093859; 0.07156024169390449; -1.006103515625; -0.2607421875; -0.776123046875;0
432;2240821255; 0.9995049150112337; 0.0016761127586159552; 0.010340927970080628; -0.029667839879648966; 0.05631833486045062; 0.06367607669366437; 0.07472795104173169; -0.97314453125; -0.306884765625; -0.810791015625;0
433;2240837922; 0.9994331560240777; 0.0024531236202897377; 0.011194472950231349; -0.03165489850910536; 0.04157452762931084; 0.0797781541529051; 0.07626039022016441; -0.940673828125; -0.358642578125; -0.843994140625;0
434;2240854589; 0.9993812491264494; 5.386025304844888E-4; 0.011100691084293903; -0.033370697613666234; 0.027009310920000966; 0.11152197573094645; 0.0721278179881054; -0.8984375; -0.41650390625; -0.875244140625;0
435;2240871256; 0.9993463546912192; -0.0017051556817150038; 0.010890105923637318; -0.034429077862250475; 0.015587766373490597; 0.11471191884758357; 0.06859535006767062; -0.85400390625; -0.46337890625; -0.897705078125;0
436;2240887923; 0.9993429578094988; -3.5626684745709847E-4; 0.011491937376831575; -0.03437238900371531; 0.005667195957549674; 0.1125223938556479; 0.07456064744399073; -0.80419921875; -0.51025390625; -0.91796875;0
437;2240904590; 0.9993155504894783; 2.4359732698192582E-4; 0.012231287548033987; -0.03491084094046457; 0.001616414229461763; 0.11195877999545596; 0.07720779554715634; -0.752197265625; -0.55615234375; -0.94091796875;0
438;2240921257; 0.9992760072480346; 5.608232528255819E-4; 0.012938099157167428; -0.03577362723997224; -0.005877078486242118; 0.10641071069971421; 0.07810712685623288; -0.6953125; -0.60302734375; -0.952880859375;0
439;2240937924; 0.9992403582766072; -1.2700622587891175E-4; 0.013720649888582072; -0.03647511517858829; -0.026927556296573833; 0.12022016228068147; 0.07840774637637513; -0.6337890625; -0.645751953125; -0.96533203125;0
440;2240954591; 0.9992188377405724; -0.0012699695546435907; 0.013938718898232895; -0.03695691541762969; -0.04138650716739512; 0.12298498295884937; 0.07766488853994569; -0.56689453125; -0.68310546875; -0.97021484375;0
441;2240971258; 0.9991973947606625; -0.0015497742096718947; 0.014410734160095806; -0.037342941024655026; -0.0492574016643198; 0.11911460391308515; 0.07852935781241586; -0.5009765625; -0.7119140625; -0.969970703125;0
442;2240987925; 0.9991664956729933; -0.0022759080551065236; 0.014790520872576209; -0.03797860791804722; -0.056810015657372544; 0.11941393416841664; 0.07986942191372169; -0.431884765625; -0.739990234375; -0.9638671875;0
443;2241004592; 0.9991130589272743; -0.002593673675655661; 0.01511142291688117; -0.03921751184453343; -0.07417961240815425; 0.12482001610231618; 0.076736036154805; -0.35498046875; -0.763427734375; -0.956787109375;0
444;2241021259; 0.999113999703684; -0.0036344290278649827; 0.015090108929755876; -0.039118986876407635; -0.10501396082596265; 0.1357284460126378; 0.06376533086188352; -0.277099609375; -0.780029296875; -0.937744140625;0
445;2241037926; 0.9991436720253748; -0.004827665901231404; 0.015613018532945777; -0.03801118185331993; -0.13073353565336032; 0.11189460535872328; 0.06889836576574086; -0.20166015625; -0.78857421875; -0.915771484375;0
446;2241054593; 0.9991333274855392; -0.0033207302761169566; 0.01613783822456572; -0.038224819627375534; -0.14451794858777656; 0.0935656254347777; 0.08057495294063954; -0.128662109375; -0.789306640625; -0.884765625;0
447;2241071260; 0.999095855574208; -0.003942864331660245; 0.014830023933669086; -0.03964839953176142; -0.16052394084591098; 0.10798908364166658; 0.0813439140694816; -0.0556640625; -0.7890625; -0.853271484375;0
448;2241087927; 0.9990450753465956; -0.007118168600487307; 0.01293785180387297; -0.04112032456330203; -0.17072438353679614; 0.10932242381099819; 0.07166372431465978; 0.014404296875; -0.77734375; -0.814453125;0
449;2241104594; 0.999029060698066; -0.007845412049463207; 0.012320218548539569; -0.04156437904540992; -0.18773641689680587; 0.08022256787417475; 0.06644863982167601; 0.084228515625; -0.75439453125; -0.77490234375;0
450;2241121261; 0.9990994711693466; -0.0047372415241908605; 0.012116055068490042; -0.04038572100942028; -0.20579861571456806; 0.05340909248113228; 0.06550456224395945; 0.150634765625; -0.729736328125; -0.725830078125;0
451;2241137928; 0.9991784067139087; -0.0014436078993949608; 0.012347503595828023; -0.038574171512019924; -0.21088637525300355; 0.04218683951062799; 0.06530207320817852; 0.2060546875; -0.707275390625; -0.671630859375;0
452;2241154595; 0.9992883117147121; 9.286389416701679E-5; 0.012171213844533861; -0.03570326315910227; -0.2142310502148899; 0.038438271768748304; 0.06823857388427626; 0.2587890625; -0.685302734375; -0.6220703125;0
453;2241171262; 0.9994360517255455; 0.001309212783685676; 0.011558886204893547; -0.03150010512430113; -0.20834750616017847; 0.026596383163683054; 0.0703279724375176; 0.308837890625; -0.66650390625; -0.569580078125;0
454;2241187929; 0.9995913740105595; 0.0025164879503682958; 0.01053359255869297; -0.026453652297646624; -0.20207041636063108; 0.01924863070635821; 0.07237785333863248; 0.34228515625; -0.6494140625; -0.5244140625;0
455;2241204596; 0.9997388588256475; 0.003205407869094068; 0.009379075295496782; -0.02059059156475113; -0.18608550560062873; 0.018340987695420884; 0.0746722037987643; 0.37109375; -0.636474609375; -0.4853515625;0
456;2241221263; 0.9998547374566666; 0.0027535348070645282; 0.008122449122757664; -0.01472914973020878; -0.1711136560932674; 0.021358018710590898; 0.08006835387995151; 0.390380859375; -0.6318359375; -0.449951171875;0
457;2241237930; 0.999924650580833; 0.0010629309154736033; 0.006872526593172383; -0.01011591404145479; -0.1648226707909522; 0.027097103197590858; 0.08606696985739896; 0.40625; -0.624755859375; -0.41943359375;0
458;2241254597; 0.9999523248690995; -0.002313794847051298; 0.005617659568197001; -0.007644360225993074; -0.16903255239568357; 0.029231200711485578; 0.0873678677247798; 0.419677734375; -0.618408203125; -0.404052734375;0
459;2241271264; 0.9999533327793395; -0.005473138190084381; 0.004049674465604101; -0.0068539885151888144; -0.1754123107351829; 0.02639919068482774; 0.08837024786485675; 0.4306640625; -0.6064453125; -0.3876953125;0
460;2241287931; 0.9999525227174023; -0.006774464373033862; 0.0025722783683600763; -0.006514777629135604; -0.17610784571129612; 0.023110700178653347; 0.07971915708238628; 0.43994140625; -0.591064453125; -0.37744140625;0
461;2241304598; 0.9999653744954726; -0.005329154987425921; 0.0021948322723742697; -0.006002718429615418; -0.1717350020973918; 0.01182299664410627; 0.07156310179216069; 0.4453125; -0.574462890625; -0.364501953125;0
462;2241321265; 0.9999869798162675; -5.863751161665487E-4; 0.002045939950254414; -0.004637940478587066; -0.17247425975256786; 0.004078754588614383; 0.07011387243216258; 0.451171875; -0.564208984375; -0.354736328125;0
463;2241337932; 0.9999870129132459; 0.003908892270641895; 0.0018162423581093575; -0.0027195274878280555; -0.17090081166120819; 0.011364947904941955; 0.071125615477108; 0.45654296875; -0.56884765625; -0.346923828125;0
464;2241354599; 0.9999839739076019; 0.0053866199245272695; 0.0012047276537423825; -0.0012589221698582342; -0.1689390041617188; 0.021005661061344737; 0.07163309466859608; 0.4541015625; -0.571044921875; -0.341552734375;0
465;2241371266; 0.9999891799836975; 0.004634822368258629; 3.814016816252458E-4; 1.1344559993625715E-4; -0.1674338220812348; 0.02539531421394472; 0.07089096422845485; 0.4560546875; -0.580078125; -0.33935546875;0
466;2241387933; 0.9999921536555483; 0.0035089948867681464; -4.3393086863356694E-4; 0.0017864171473016; -0.16845125818664733; 0.02410797341430717; 0.06878985152314745; 0.4541015625; -0.5908203125; -0.34228515625;0
467;2241404600; 0.9999881326152799; 0.0026639920606507106; -0.001268759187561683; 0.0038765996737098467; -0.16994436085757322; 0.02184858394225394; 0.06652315070359187; 0.451171875; -0.597900390625; -0.350341796875;0
468;2241421267; 0.9999697122540593; 0.003066740443938676; -0.0020241184509589287; 0.0068609490655378025; -0.17100984611502057; 0.019132893095306434; 0.0651605889927971; 0.444580078125; -0.6064453125; -0.356689453125;0
469;2241437934; 0.9999271549714877; 0.004398756935988679; -0.0030562421941316142; 0.010816426013027515; -0.17529358241449022; 0.021342320166036786; 0.06584831271568777; 0.436279296875; -0.627197265625; -0.373291015625;0
470;2241454601; 0.9998648859821219; 0.0050669312086231155; -0.0042971197023172; 0.015035649315853272; -0.17826152839838627; 0.02618330718248643; 0.06614827894707806; 0.41748046875; -0.65087890625; -0.3935546875;0
471;2241471268; 0.9997970345440195; 0.0052483978958521305; -0.005453458795167899; 0.018670935265300396; -0.1804380896535173; 0.028358967932978332; 0.06722575891622296; 0.399658203125; -0.676025390625; -0.42236328125;0
472;2241487935; 0.9997225565111767; 0.006214150126500229; -0.00650803595711208; 0.0217678618367404; -0.1889479188769127; 0.03308712212184207; 0.07021049021269696; 0.375732421875; -0.705810546875; -0.455322265625;0
473;2241504602; 0.99963062808835; 0.007697939314020241; -0.007385738576036974; 0.02499599935379571; -0.19594033818151257; 0.043893938721591454; 0.06974488523913455; 0.343994140625; -0.738525390625; -0.49267578125;0
474;2241521269; 0.9995328489911174; 0.009088200133700264; -0.007910708040462481; 0.02808752577797835; -0.19719808919727; 0.05601858655118293; 0.06793571561675468; 0.3076171875; -0.7783203125; -0.525390625;0
475;2241537936; 0.9994567767922746; 0.009159015535623372; -0.008280403840204212; 0.03055648328356553; -0.19847207677743922; 0.07316710209804828; 0.06897233585297705; 0.260498046875; -0.816162109375; -0.566162109375;0
476;2241554603; 0.9994028147370408; 0.008395825034355042; -0.008744120620536833; 0.032358374066787265; -0.19862380482447903; 0.08641449894976153; 0.07177110163830996; 0.215087890625; -0.851806640625; -0.609375;0
477;2241571270; 0.9993551985333765; 0.006947630145034189; -0.009536432210814391; 0.033911267454520395; -0.20116829925288174; 0.09696114114071107; 0.07146993705886537; 0.16064453125; -0.88330078125; -0.650146484375;0
478;2241587937; 0.9993057464554916; 0.005309283676077137; -0.010468690033783772; 0.03535877736653387; -0.19242521295974385; 0.10551071518797717; 0.06943078572399997; 0.1025390625; -0.90771484375; -0.693603515625;0
479;2241604604; 0.9992557188738597; 0.0034743378168825556; -0.010924287872098775; 0.03683201337298068; -0.18279343782439808; 0.11202770841298823; 0.06824541721347747; 0.042236328125; -0.923828125; -0.73046875;0
480;2241621271; 0.9992077964455792; 0.0023711259021930164; -0.011647864558000544; 0.03798005444393601; -0.17414747266086564; 0.11691109270990001; 0.07136501466083026; -0.0283203125; -0.931396484375; -0.7724609375;0
481;2241637938; 0.9991477819066148; 0.0018179283686366454; -0.01189425187786175; 0.03948331064898584; -0.1652371822157171; 0.12346901593144796; 0.0712816706469078; -0.101806640625; -0.933837890625; -0.806884765625;0
482;2241654605; 0.9990738169009148; 0.0018499720911385187; -0.012049394287537015; 0.04126618571667251; -0.15900845023622523; 0.12645907107291007; 0.07391466886916132; -0.173828125; -0.9287109375; -0.8427734375;0
483;2241671272; 0.9990097257188336; 0.001512254882314601; -0.012102583684209635; 0.04278794774838463; -0.14753688914093244; 0.12798265727401675; 0.07339198033534822; -0.252685546875; -0.916015625; -0.870361328125;0
484;2241687939; 0.9989973068552768; 0.0011618397300903194; -0.012185639461822663; 0.04306438453353244; -0.12731001793369148; 0.13120734148110474; 0.07263074036017272; -0.332763671875; -0.900146484375; -0.890625;0
485;2241704606; 0.9990082301319901; -7.686009739777955E-4; -0.012232296690715239; 0.04280579749007963; -0.10420946622231156; 0.13262862145463541; 0.07013166655843012; -0.412109375; -0.868896484375; -0.9130859375;0
486;2241721273; 0.9989836731869847; -0.001484666895928466; -0.012193738006686551; 0.04336737510470337; -0.0914591393935196; 0.13805541426504797; 0.06693918487259679; -0.489990234375; -0.837158203125; -0.92529296875;0
487;2241737940; 0.9989578989255815; -0.0013781538735005983; -0.01216559026811448; 0.043968344061573135; -0.08069272667877789; 0.131953831730948; 0.06368356237576678; -0.56591796875; -0.791015625; -0.930419921875;0
488;2241754607; 0.9989738001820975; -0.0012936403293468124; -0.01204659454196222; 0.04364118014420146; -0.06040596680047379; 0.11567032583232421; 0.0632643646244335; -0.642578125; -0.740966796875; -0.927978515625;0
489;2241771274; 0.9989882163367967; -8.652867638642148E-4; -0.011356262211536461; 0.043506668542012635; -0.03954213876232162; 0.11321515511440663; 0.06204774444143721; -0.71435546875; -0.685302734375; -0.919677734375;0
490;2241787941; 0.9990009516006871; -5.054036615542712E-5; -0.010278019373519522; 0.043490900937444385; -0.026227835002125038; 0.11347064094639094; 0.059905264602998234; -0.778076171875; -0.63037109375; -0.908203125;0
491;2241804608; 0.9990563756916419; -2.658411047861686E-4; -0.00947111463334971; 0.04238614757193882; -0.012283939213674738; 0.10631897858955378; 0.0566256090491618; -0.838134765625; -0.571044921875; -0.88818359375;0
492;2241821275; 0.9991106765291865; -0.0013830357891240208; -0.008760128461636709; 0.04122139501196938; 0.00235981872539275; 0.1058840962057693; 0.05587781769013703; -0.892822265625; -0.505859375; -0.863037109375;0
493;2241837942; 0.9991511746332166; -0.0020186105073371485; -0.007847559669950932; 0.04038899909517093; 0.009539805245574903; 0.11051090334424732; 0.05377756420163078; -0.938720703125; -0.43896484375; -0.8349609375;0
494;2241854609; 0.9992099615714581; -0.0034627652541833753; -0.00723205536321342; 0.03892504757072354; 0.021979832159070692; 0.09321181705914586; 0.05372722015374268; -0.978515625; -0.369873046875; -0.80712890625;0
495;2241871276; 0.9992884890917837; -0.00283797566865443; -0.006166618620591647; 0.03710032718929119; 0.03579080364426013; 0.07590078534633186; 0.056815785496065085; -1.010498046875; -0.302734375; -0.774658203125;0
496;2241887943; 0.9993510641889587; -0.0025030110954679663; -0.005235143685421163; 0.03554966540552251; 0.04386111123491851; 0.08319605235833805; 0.057420352529644024; -1.039306640625; -0.23291015625; -0.740478515625;0
497;2241904610; 0.9994202552191649; -0.004557098628689166; -0.005160969081238309; 0.03334292590476035; 0.04945497013969088; 0.09086047058587815; 0.05870849296535718; -1.060791015625; -0.16845703125; -0.708984375;0
498;2241921277; 0.9994784456235468; -0.008197168448632108; -0.0056891075189820514; 0.030712818480253035; 0.0652134743288798; 0.08135833287266495; 0.05644536999862863; -1.076904296875; -0.104736328125; -0.666748046875;0
499;2241937944; 0.9995597339845204; -0.009637700857490689; -0.006042088558689319; 0.027403395498104225; 0.07809896543174828; 0.049814265353292655; 0.06556558660303533; -1.087646484375; -0.04638671875; -0.62841796875;0
500;2241954611; 0.9996521069125508; -0.008984571752857884; -0.006280225751185032; 0.02398960983905385; 0.0906480273624782; 0.04280321359058639; 0.06889780856896481; -1.097900390625; 0.009033203125; -0.5947265625;0
501;2241971278; 0.9997431379262451; -0.009611853114875335; -0.006804573111358181; 0.01936409651533139; 0.1056304993397337; 0.038359541216199354; 0.07263610747293228; -1.108642578125; 0.057373046875; -0.557861328125;0
502;2241987945; 0.9998295346023868; -0.008852259787208688; -0.007212536281068272; 0.014509257521628183; 0.10771228346325554; 0.006295656082156816; 0.07934629882678879; -1.11474609375; 0.08837890625; -0.522216796875;0
503;2242004612; 0.9998990306406752; -0.006877070879797442; -0.007446345403541944; 0.009959234914572625; 0.113831277744561; -0.0068158297492677405; 0.078043738137517; -1.12353515625; 0.114013671875; -0.4990234375;0
504;2242021279; 0.9999513215828136; -0.004111091127829036; -0.0067877285439630905; 0.005863457660521737; 0.12155117562182119; 0.003459599858570174; 0.07467972067011208; -1.132568359375; 0.126708984375; -0.47607421875;0
505;2242037946; 0.9999786029159617; -0.0012957368857392515; -0.005404343730670946; 0.003450774551458147; 0.11753409209621596; 0.011397645555536412; 0.07173059462542705; -1.14013671875; 0.130126953125; -0.46337890625;0
506;2242054613; 0.9999903637767054; 9.899771354230091E-4; -0.004003361043664223; 0.0015051243662667912; 0.12263632756237709; 0.019906296856549002; 0.0720741493963648; -1.141357421875; 0.126953125; -0.44970703125;0
507;2242071280; 0.9999950391363023; 8.408916601471417E-4; -0.002975337723712446; -6.016389540204893E-4; 0.11788616846342613; 0.04171436335188919; 0.07316184284266573; -1.14501953125; 0.125; -0.444580078125;0
508;2242087947; 0.9999955440012087; 3.539414658555451E-4; -0.001973221237736911; -0.0022120355133253833; 0.12452952018794038; 0.055070100759190624; 0.07324515198000374; -1.146728515625; 0.122802734375; -0.4453125;0
509;2242104614; 0.9999959303993916; 6.474045732774991E-4; -5.49875620641127E-4; -0.0027235434227360637; 0.12708645199577784; 0.06438527383219887; 0.07115358046967747; -1.151611328125; 0.114990234375; -0.449462890625;0
510;2242121281; 0.9999951493655705; 0.0015905068263243338; 8.97464645891577E-4; -0.0025231112886518747; 0.12736264371792533; 0.06334724477924167; 0.07231116413622522; -1.14892578125; 0.110107421875; -0.4521484375;0
511;2242137948; 0.9999925524403945; 0.001866960699878184; 0.0021049956054844947; -0.00264168790563088; 0.1275938973423234; 0.06345296593602105; 0.07360949120564118; -1.1494140625; 0.1064453125; -0.458251953125;0
512;2242154615; 0.9999906517707472; 0.0010798373428445585; 0.002794820248901986; -0.003117579542772392; 0.12361319173428818; 0.057742804129232; 0.07618711981142766; -1.146240234375; 0.09912109375; -0.469970703125;0
513;2242171282; 0.9999852849269539; 8.685924618451746E-4; 0.0033983255408326363; -0.004138461092295765; 0.12790080981288204; 0.04251269428986437; 0.07589079370146239; -1.14404296875; 0.091552734375; -0.48046875;0
514;2242187949; 0.9999690633544017; 0.001987412452236159; 0.004418746648241213; -0.006196547742403885; 0.13415736041602763; 0.023003541161480207; 0.07455153208282826; -1.138671875; 0.087646484375; -0.49365234375;0
515;2242204616; 0.9999335545637864; 0.004271345582801289; 0.005520751561678306; -0.009174059436144856; 0.1340383310061652; 0.02006388132200621; 0.07239558287521607; -1.13134765625; 0.0703125; -0.5107421875;0
516;2242221283; 0.9998857373653353; 0.005472879387277918; 0.006261771582983523; -0.012623391827665642; 0.12829755908743395; 0.021149866188165185; 0.06898435701717497; -1.12744140625; 0.04736328125; -0.540283203125;0
517;2242237950; 0.999827498493429; 0.005979550725449895; 0.006684804098032238; -0.016264428169012055; 0.1195745238050045; 0.022491096930190274; 0.06708184722034648; -1.118896484375; 0.016357421875; -0.567138671875;0
518;2242254617; 0.999753102971972; 0.005808321124697091; 0.007083872371124845; -0.020243894285824043; 0.1104782871745405; 0.027056601145682497; 0.06824539214322131; -1.10791015625; -0.02099609375; -0.597900390625;0
519;2242271284; 0.9996631051621246; 0.004472628127957123; 0.007388470317287733; -0.024476157411216424; 0.09844831848019754; 0.037929295497027296; 0.06589945285569104; -1.09716796875; -0.0654296875; -0.635498046875;0
520;2242287951; 0.9995659386282427; 0.0024575688690635644; 0.007473104075541471; -0.028390974005310293; 0.08929766969360092; 0.05441419729699151; 0.06016811639723627; -1.079833984375; -0.121337890625; -0.6708984375;0
521;2242304618; 0.9995112554436587; 5.014219390811758E-4; 0.008185063186352481; -0.03016626523313182; 0.08214898203135709; 0.07862165018294584; 0.054308666325922225; -1.059814453125; -0.167724609375; -0.707275390625;0
522;2242321285; 0.9994709745355361; -1.7716899545122677E-4; 0.00862804974631154; -0.031357557776520495; 0.07524026661976659; 0.07731155064854842; 0.05669296877322995; -1.035400390625; -0.22412109375; -0.746337890625;0
523;2242337952; 0.999416983765627; 0.0012873543269119325; 0.009529055538256394; -0.0327602255822867; 0.059363193827294464; 0.06130099930392948; 0.0639921660951368; -1.006591796875; -0.280029296875; -0.78125;0
524;2242354619; 0.9993339767974039; 0.003105154356316392; 0.010326285019463257; -0.03486156439986826; 0.04112465483821713; 0.06253163107853674; 0.07328229804085994; -0.969970703125; -0.338134765625; -0.818359375;0
525;2242371286; 0.9992363509168928; 0.001965236556595029; 0.010216556221578244; -0.03766264502846837; 0.02374059963623399; 0.09182042867188352; 0.0746552488397388; -0.929443359375; -0.402099609375; -0.850341796875;0
526;2242387953; 0.9991447231984713; -0.003217502720795712; 0.009434007952628333; -0.040130652559379365; 0.01893320484562249; 0.12255398670929762; 0.0658032058705582; -0.88232421875; -0.457275390625; -0.876953125;0
527;2242404620; 0.9991445457313921; -0.00705688688979525; 0.009060908461740848; -0.03972753478989708; 0.008863061896664248; 0.1448095912905114; 0.05737307804495445; -0.827392578125; -0.50830078125; -0.90673828125;0
528;2242421287; 0.9992021037007218; -0.0050770166553540386; 0.010507877494798092; -0.03819639213967116; -0.004164817150427755; 0.11914510840541936; 0.06281508307090207; -0.77587890625; -0.551513671875; -0.933837890625;0
529;2242437954; 0.9991982312255521; 0.0019278361045315662; 0.012396431108108008; -0.03801981929815266; -0.01660701624236998; 0.062299949318439796; 0.0727855508587011; -0.71826171875; -0.598876953125; -0.945068359375;0
530;2242454621; 0.9990996452359835; 0.007297532763200498; 0.013840057613834835; -0.03943472721025937; -0.03236840048828573; 0.08825617941258065; 0.07668974352294247; -0.6572265625; -0.6572265625; -0.9560546875;0
531;2242471288; 0.9990559497295001; 0.004033511253073552; 0.012783508877311724; -0.04132217319843574; -0.05134607360491675; 0.1613509037138601; 0.06686170439305376; -0.589599609375; -0.716552734375; -0.9541015625;0
532;2242487955; 0.9991241631691521; -7.013896078824633E-4; 0.01167575169336549; -0.04017575695060693; -0.08316862919586841; 0.17676306008366205; 0.061027783521690096; -0.52001953125; -0.75439453125; -0.955078125;0
533;2242504622; 0.9992833061288964; 0.0011851932668310305; 0.012037549628114097; -0.03586874416498579; -0.12385288798738789; 0.1321563907900405; 0.0728324784163543; -0.45068359375; -0.785400390625; -0.948974609375;0
534;2242521289; 0.99932601041554; 0.006271570867622034; 0.012016286652357879; -0.03411453005539983; -0.11676889880276213; 0.1156299872704191; 0.08339637787384088; -0.390625; -0.822998046875; -0.935546875;0
535;2242537956; 0.9992987861910071; 0.004382511682539114; 0.011119008306077373; -0.03548375914163774; -0.09493320151003282; 0.1461713974849361; 0.0755441467286663; -0.326171875; -0.852783203125; -0.91552734375;0
536;2242554623; 0.9992590448045541; -0.0012464666646073708; 0.010046186990788688; -0.03713329805027271; -0.10610867602597886; 0.1585621397690005; 0.06406972255207143; -0.257568359375; -0.871337890625; -0.89404296875;0
537;2242571290; 0.9993044923462525; -0.003622420836357443; 0.009755760684752646; -0.03580830598261756; -0.133518724484688; 0.1394143320988507; 0.053504081321505456; -0.19140625; -0.87890625; -0.8720703125;0
538;2242587957; 0.999427363557005; -5.878559790649107E-4; 0.010875987296032315; -0.032036109301514654; -0.1492361068562248; 0.08745847513477326; 0.06798306931311641; -0.12939453125; -0.88623046875; -0.84521484375;0
539;2242604624; 0.9994504996147653; 0.006191299879761858; 0.011872965830385525; -0.030321598044717932; -0.15639110770704276; 0.08527242794866537; 0.08828109879605825; -0.07470703125; -0.897705078125; -0.812744140625;0
540;2242621291; 0.9994558927744942; 0.005850481773860827; 0.010552213514733554; -0.03069757402942555; -0.15758971664454358; 0.13306425153990598; 0.08375051125124469; -0.017578125; -0.91357421875; -0.775390625;0
541;2242637958; 0.9994718205126657; 1.9984685081214648E-4; 0.008996422299172094; -0.031226662456129015; -0.15462216567012896; 0.13165104114903484; 0.07418966434411231; 0.033935546875; -0.91552734375; -0.73779296875;0
542;2242654625; 0.9994859487458388; -0.0022095281811509437; 0.008806434665278211; -0.03074740563581488; -0.16453595613722388; 0.1026890837052809; 0.06447084166280576; 0.08544921875; -0.898681640625; -0.70068359375;0
543;2242671292; 0.9995251324597458; -0.0016258894004128055; 0.00886981353386901; -0.029465106021522528; -0.16785467450818353; 0.07243268323897659; 0.06340871159520728; 0.137451171875; -0.886962890625; -0.666259765625;0
544;2242687959; 0.9995338295558839; 3.8172361290728096E-4; 0.009231935358424157; -0.0290989558226859; -0.17302629610194606; 0.06313859049366238; 0.0744047737619907; 0.18505859375; -0.8740234375; -0.622802734375;0
545;2242704626; 0.9995549385313799; 0.0010800937874370642; 0.009127251056610605; -0.028380478204029506; -0.17855837836253638; 0.07288003039480298; 0.07612579756885016; 0.231201171875; -0.861328125; -0.58154296875;0
546;2242721293; 0.9995958286882805; 3.2253569888635036E-4; 0.00879689318310418; -0.027031276515137703; -0.18458418651779335; 0.0663738507648968; 0.0715594642055862; 0.272216796875; -0.846923828125; -0.53857421875;0
547;2242737960; 0.9996473389384221; -5.407399801495849E-4; 0.008309530463920535; -0.02521620623873694; -0.18936494949652016; 0.05766185593401914; 0.06697606476732433; 0.30859375; -0.827392578125; -0.49609375;0
548;2242754627; 0.9997095390163937; -0.0016833934202288847; 0.007381531328977055; -0.022880489100136958; -0.18799592560986977; 0.04668282933402065; 0.06509803602425698; 0.3408203125; -0.804931640625; -0.456298828125;0
549;2242771294; 0.9997763580142837; -0.0022510733197446675; 0.006412269682176057; -0.02002621836810387; -0.1831997942582892; 0.03483746622986973; 0.06496050488799747; 0.369384765625; -0.783203125; -0.425537109375;0
550;2242787961; 0.999841066478722; -0.0018997513897741625; 0.005469748831964932; -0.016861630261168492; -0.17728447547378484; 0.02856553204817884; 0.0646756199304017; 0.39208984375; -0.765869140625; -0.393798828125;0
551;2242804628; 0.9998950415917832; -0.001887824378477565; 0.004545691126396711; -0.013626393927432203; -0.17482019464470375; 0.026992660248168508; 0.06568801994493455; 0.4091796875; -0.74755859375; -0.37060546875;0
