DeviceTag:;Xsens DOT 1;;;;;;;;;;;
FirmwareVersion:;1.3.0;;;;;;;;;;;
AppVersion:;2020.1.1;;;;;;;;;;;
Measurement Mode:;Inertial Mode - High Fidelity (with mag);;;;;;;;;;;
StartTime:;2020-07-29 17:12:53.763 +0200;;;;;;;;;;;
© Xsens Technologies B. V. 2005-2020;;;;;;;;;;;;
PacketCounter;SampleTimeFine;dQ_W;dQ_X;dQ_Y;dQ_Z;dV[1];dV[2];dV[3];Mag_X;Mag_Y;Mag_Z;Status
2;2240642116; 0.9999999995591268; 1.913162201974683E-5; 6.697685471318549E-6; 2.1699505713401734E-5; -0.15961938762288944; 0.018674398877827236; -0.02657977745554173; 1.6748046875; -1.85595703125; 1.009521484375;0
3;2240658783; 0.9999999966450165; -6.6046047357049E-5; 2.0050536918642118E-5; 4.411193122116908E-5; -0.1590202649126034; 0.01743436492545588; -0.027162849666727995; 1.67626953125; -1.85498046875; 1.0068359375;0
4;2240675450; 0.9999999943952754; 3.551923932937351E-5; 9.210215547913321E-5; 3.827565365066565E-5; -0.15915270634587758; 0.01689687268618407; -0.027375673956522267; 1.67919921875; -1.855712890625; 1.007568359375;0
5;2240692117; 0.9999999995724682; -5.518811987459404E-6; 2.781011691849883E-5; -7.155675444237009E-6; -0.15946216133697777; 0.016912013571516726; -0.02735207808493497; 1.671875; -1.855224609375; 1.00927734375;0
6;2240708784; 0.9999999935386531; -1.1118360460327104E-4; 1.1200570757999297E-5; -2.0867366580024083E-5; -0.15924905051264002; 0.017945669329403436; -0.02717341759773735; 1.67822265625; -1.855712890625; 1.0068359375;0
7;2240725451; 0.9999999799381216; -1.9092714907867347E-4; 5.331186770995978E-5; -2.8782371569779922E-5; -0.15981372001873284; 0.018047856897681434; -0.026604137958782102; 1.674560546875; -1.856201171875; 1.0068359375;0
8;2240742118; 0.9999999889296092; -1.2899359908480346E-4; 7.21998872594068E-5; -1.698850217701775E-5; -0.15990585765451634; 0.017150995787095814; -0.026669286868802343; 1.673583984375; -1.85546875; 1.00927734375;0
9;2240758785; 0.9999999972677887; -3.5244994870037294E-5; 6.217791108194953E-5; 1.8871152965393993E-5; -0.1592591697942759; 0.01625212802777271; -0.02671237203582252; 1.67529296875; -1.85693359375; 1.00830078125;0
10;2240775452; 0.9999999956616282; 3.258830027913495E-5; 8.307816851370332E-5; 2.669764426510568E-5; -0.15931838437843934; 0.016589900771146956; -0.026741756415197934; 1.677978515625; -1.859619140625; 1.00830078125;0
11;2240792119; 0.9999999964883357; -8.36671345039175E-7; 8.356650330308692E-5; 6.266435617297007E-6; -0.15893270584716448; 0.017696854718971408; -0.027101501771451823; 1.672119140625; -1.856201171875; 1.01025390625;0
12;2240808786; 0.9999999915513124; -6.054237049235578E-5; 1.1400651592533008E-4; 1.531374429331045E-5; -0.15925766247494913; 0.0180818317615805; -0.027020926330123245; 1.676025390625; -1.8544921875; 1.00732421875;0
13;2240825453; 0.9999999877626249; -1.3819029077907774E-4; 6.95516290331391E-5; 2.3254341192324727E-5; -0.15935818011385028; 0.01714728166146667; -0.026742809100679818; 1.677734375; -1.854736328125; 1.007568359375;0
14;2240842120; 0.9999999874344838; -1.252171108256095E-4; 7.646410975539754E-5; 6.004121296082632E-5; -0.15964319359200588; 0.016994019229687983; -0.02673112991478096; 1.67529296875; -1.8544921875; 1.007568359375;0
15;2240858787; 0.9999999929988712; -3.2188044789882575E-5; 9.075136012945408E-5; 6.877774346314426E-5; -0.1595718492719856; 0.016694820960219056; -0.02719664674617329; 1.676025390625; -1.8544921875; 1.0078125;0
16;2240875454; 0.9999999898165467; 3.500505883405336E-5; 1.2868671348465618E-4; 5.0806319087215446E-5; -0.15993580750247344; 0.01704791517045467; -0.026758150342085923; 1.677978515625; -1.857177734375; 1.010009765625;0
17;2240892121; 0.9999999905182577; 9.213055921775126E-5; 6.704023565391737E-5; 7.733725752745448E-5; -0.1599804374961045; 0.017565187342695944; -0.02723920745936452; 1.675537109375; -1.8564453125; 1.00927734375;0
18;2240908788; 0.9999999887994276; 4.320375285496447E-5; 1.0019772027398956E-4; 1.0244509439033544E-4; -0.15942930450486845; 0.018391800066515168; -0.027347581111525895; 1.675537109375; -1.85693359375; 1.009521484375;0
19;2240925455; 0.9999999733074172; -1.5752004684985166E-4; 1.2503755044580847E-4; 1.137462564363423E-4; -0.15972206960499621; 0.01780729113311385; -0.027526498508392956; 1.67236328125; -1.854248046875; 1.00927734375;0
20;2240942122; 0.9999999737899802; -1.8302236382797266E-4; 1.0817102529455531E-4; 8.498166081377656E-5; -0.15974803262559076; 0.01691261167611422; -0.027270259786289174; 1.672607421875; -1.853759765625; 1.008544921875;0
21;2240958789; 0.9999999758530451; -1.4071747423954895E-4; 1.288307742092279E-4; 1.0906481138489578E-4; -0.15951180665228465; 0.0165749979293722; -0.02668757698444881; 1.6748046875; -1.85498046875; 1.00927734375;0
22;2240975456; 0.9999999791081498; 1.0720886395670925E-5; 1.0880210640473038E-4; 1.7271613807595676E-4; -0.15955200532687838; 0.016686500094066817; -0.027175983818500875; 1.676025390625; -1.854736328125; 1.009521484375;0
23;2240992123; 0.9999999615264542; 1.8374262977682854E-4; 9.196910403038579E-5; 1.8635294484731227E-4; -0.1603009187452787; 0.01704840189985166; -0.02741320356979198; 1.67236328125; -1.85400390625; 1.011474609375;0
24;2241008790; 0.9999999414855262; 2.3880345164892236E-4; 6.549110608669585E-5; 2.360355286337712E-4; -0.1598830889356022; 0.016788113945284698; -0.02716928397028478; 1.673095703125; -1.85595703125; 1.011474609375;0
25;2241025457; 0.99999993601085; 2.7631398181737765E-4; 7.1694248953251E-5; 2.1561264793901194E-4; -0.15973149329217923; 0.018566929309821505; -0.027165138625132947; 1.671630859375; -1.856201171875; 1.010009765625;0
26;2241042124; 0.9999999258569449; 2.6204894103951104E-4; 8.895154863540479E-5; 2.677761740162432E-4; -0.15915557671636493; 0.018667896966349035; -0.028018645539003115; 1.670166015625; -1.859130859375; 1.013427734375;0
27;2241058791; 0.9999999235866609; 2.782875944160046E-4; 3.536655359705904E-5; 2.722717282480636E-4; -0.1600920126396335; 0.01763634478270993; -0.02710613051999353; 1.67236328125; -1.8544921875; 1.010986328125;0
28;2241075458; 0.9999999320884223; 2.318108436332178E-4; -5.425509531277462E-5; 2.8132413358367137E-4; -0.1597863478123417; 0.01801505454192502; -0.026700689637225244; 1.671875; -1.856689453125; 1.011474609375;0
29;2241092125; 0.999999948700587; 1.5965850216670407E-4; -2.7526385388020047E-5; 2.763155521928185E-4; -0.1593293429575716; 0.01801523492190573; -0.027230459953959583; 1.671142578125; -1.857177734375; 1.011474609375;0
30;2241108792; 0.9999999775703622; 8.73532675714217E-5; -4.546093525212986E-5; 1.875152937586E-4; -0.15981057813467234; 0.017628967526417034; -0.027453171588701683; 1.669677734375; -1.85595703125; 1.01025390625;0
31;2241125459; 0.999999993708048; -4.641015740750043E-5; -6.994914253229124E-5; 7.441181867429149E-5; -0.15997791722751195; 0.01712673406757176; -0.02758922443768518; 1.6708984375; -1.857177734375; 1.012451171875;0
32;2241142126; 0.9999999962257246; -1.4941758486985979E-5; -4.578941746329752E-5; 7.230922447842847E-5; -0.15981358319648534; 0.01807410423733797; -0.027591580049249435; 1.671630859375; -1.855224609375; 1.01220703125;0
33;2241158793; 0.9999999794766986; 6.612730663393962E-5; -6.351810607513331E-5; 1.806633108945577E-4; -0.15985604797989925; 0.018227271516732698; -0.027727838319555404; 1.67333984375; -1.85546875; 1.011962890625;0
34;2241175460; 0.9999999739712113; 6.403036807961504E-5; -8.380766755990145E-5; 2.023214358951031E-4; -0.1598943514972468; 0.01746762540270223; -0.027376465803672572; 1.669921875; -1.857177734375; 1.013427734375;0
35;2241192127; 0.9999999786618228; 8.713019344511186E-5; -9.942946414671917E-5; 1.5874024343931484E-4; -0.1596343512729898; 0.018025798521918344; -0.027319891661592207; 1.66943359375; -1.85791015625; 1.01123046875;0
36;2241208794; 0.9999999863785491; 1.8792017722452092E-5; 1.138701629696537E-5; 1.6358513855868617E-4; -0.15911475365811134; 0.019501610630262588; -0.027892680842001614; 1.672607421875; -1.8583984375; 1.01318359375;0
37;2241225461; 0.9999999746560017; -1.8849701449924483E-4; -6.967102858389251E-5; 1.0150280439052974E-4; -0.15915859183463313; 0.01887236862651459; -0.027554671370190034; 1.670166015625; -1.85693359375; 1.010986328125;0
38;2241242128; 0.9999999472975986; -2.853123289326409E-4; -1.4815799380112074E-4; 4.5286685264489535E-5; -0.15915669468198865; 0.01822191283591545; -0.02695987946863731; 1.671630859375; -1.858154296875; 1.010498046875;0
39;2241258795; 0.9999999294580361; -3.328713222585933E-4; -1.6911771252021288E-4; -4.09854244705632E-5; -0.15955884403381487; 0.018647509256565; -0.027074407848378945; 1.669189453125; -1.8564453125; 1.011962890625;0
40;2241275462; 0.9999999084604426; -3.8404978340869644E-4; -1.7619726844453346E-4; -6.737501614978436E-5; -0.16046854582215045; 0.019087571970197045; -0.0275834941217937; 1.670654296875; -1.85986328125; 1.01025390625;0
41;2241292129; 0.9999998782804288; -4.5183430144948855E-4; -1.5916951674192076E-4; -1.181099336691749E-4; -0.16150523506627665; 0.02029821231215102; -0.027377479454581116; 1.6708984375; -1.85693359375; 1.0107421875;0
42;2241308796; 0.9999998892265882; -4.37439386648919E-4; -1.7000795703916302E-4; 3.5928938718843284E-5; -0.16020486445888033; 0.020175860130710852; -0.028111949632806082; 1.669677734375; -1.8564453125; 1.01025390625;0
43;2241325463; 0.9999999207008335; -3.2028789332536056E-4; -1.788265029828984E-4; 1.5503249311088488E-4; -0.159632097161767; 0.018680853688607717; -0.027650018448676705; 1.66845703125; -1.857421875; 1.00634765625;0
44;2241342130; 0.9999999210738078; -3.2005474640542375E-4; -1.8184350148895553E-4; 1.4950009559577815E-4; -0.1588686965337616; 0.017769436047112598; -0.02675329089857676; 1.672119140625; -1.8583984375; 1.009033203125;0
45;2241358797; 0.9999999324048569; -3.605283510559887E-4; -1.9564066628140198E-5; 6.947544227797754E-5; -0.15775405869346382; 0.0169301667654223; -0.027057179435743768; 1.673095703125; -1.8564453125; 1.00537109375;0
46;2241375464; 0.9999998213508177; -5.888954306376981E-4; 3.951249990469947E-5; -9.454769602995627E-5; -0.15866230065563086; 0.015763604119506638; -0.026131739803535965; 1.67333984375; -1.856689453125; 1.006591796875;0
47;2241392131; 0.9999998138468359; -5.62219951800863E-4; -3.662418317285088E-6; -2.3706877926843453E-4; -0.1595090920728201; 0.014514866052092484; -0.02567093179494166; 1.674072265625; -1.857177734375; 1.008544921875;0
48;2241408798; 0.9999998969638513; -2.7804980836965143E-4; -1.797236843509298E-4; -3.1058008335160814E-4; -0.1597883630025922; 0.015221566945324887; -0.025090466997553386; 1.672607421875; -1.8564453125; 1.005126953125;0
49;2241425465; 0.9999999520463081; -7.02393484865449E-5; -1.9596731051335636E-4; -2.2928285711748544E-4; -0.1591798994492162; 0.015980989632938248; -0.026179545694306687; 1.672119140625; -1.858642578125; 1.005126953125;0
50;2241442132; 0.9999999742984649; 1.3404346009529555E-4; -1.3492558049152395E-4; -1.234119443554449E-4; -0.1600526561014846; 0.016299683539847846; -0.02567952094418165; 1.6728515625; -1.85595703125; 1.00390625;0
51;2241458799; 0.9999999512193114; 2.5959194824207166E-4; -1.7360868077404004E-4; 5.781102279611706E-6; -0.1598216900959223; 0.016965133119907737; -0.027209483328057622; 1.677734375; -1.8544921875; 1.00244140625;0
52;2241475466; 0.9999999644924171; 2.4525135179065405E-4; -8.452547602288281E-5; 6.1011332425808806E-5; -0.15943693153582622; 0.01815445462694676; -0.027559558980551888; 1.6767578125; -1.85546875; 1.00537109375;0
53;2241492133; 0.9999999975129218; -1.5142781559923657E-5; -4.774307372237829E-5; 4.9653313003938944E-5; -0.15909221793061065; 0.019337472512623913; -0.0273112770312324; 1.676513671875; -1.85546875; 1.00634765625;0
54;2241508800; 0.9999999896341171; -1.2217604927630688E-4; -6.542443783880138E-5; 3.904384277503281E-5; -0.15926339412020227; 0.019006566004169625; -0.025987739183020293; 1.676513671875; -1.857666015625; 1.004638671875;0
55;2241525467; 0.9999999675548532; -1.9267586236465517E-4; -1.5222103253095118E-4; 6.778688678710233E-5; -0.15873055354365637; 0.01724313131807404; -0.026674315074612272; 1.6767578125; -1.856201171875; 1.00390625;0
56;2241542134; 0.9999999899445473; -1.1266773345217085E-4; -4.136160769157433E-5; 7.553876200699916E-5; -0.15924904467013987; 0.016246280815142067; -0.026160701360447534; 1.672607421875; -1.8564453125; 1.004638671875;0
57;2241558801; 0.9999999933559891; -5.1393429851637196E-5; -7.37147744273095E-5; 7.220020296305753E-5; -0.15911626510118002; 0.016382831844070515; -0.02697484532215938; 1.675537109375; -1.858642578125; 1.003662109375;0
58;2241575468; 0.9999999956551997; -5.6134541835783924E-5; 5.040906249288713E-6; 7.425027391066985E-5; -0.1592958930556738; 0.017813501295367455; -0.02672992124719279; 1.671875; -1.8564453125; 1.005615234375;0
59;2241592135; 0.9999999895921828; -5.084649619399584E-5; 1.129903765183238E-5; 1.3454590243494605E-4; -0.15926718700937795; 0.01867808581038132; -0.026861269086811742; 1.67236328125; -1.856689453125; 1.003662109375;0
60;2241608802; 0.9999999929779352; -4.850572983097767E-5; 1.9956282436783827E-5; 1.0626886024928117E-4; -0.16011147769898187; 0.01895821807573508; -0.026344587870960744; 1.675048828125; -1.860107421875; 1.005615234375;0
61;2241625469; 0.9999999876980364; -1.0957919171916686E-4; -3.7035535882037895E-5; 1.0594666980284774E-4; -0.15905832211538226; 0.01898410103557615; -0.02669698782916572; 1.677001953125; -1.85986328125; 1.00537109375;0
62;2241642136; 0.9999999768877641; -1.839295023800258E-4; 3.2440310239446886E-5; 1.0649899428993859E-4; -0.15850467627664286; 0.01898927916337194; -0.027170548203229446; 1.67431640625; -1.858154296875; 1.00537109375;0
63;2241658803; 0.9999999510883644; -2.8171518525679784E-4; 7.203170368997454E-5; 1.1520094173317343E-4; -0.15866369053074683; 0.018444583611385817; -0.027322620639924158; 1.6728515625; -1.85888671875; 1.004638671875;0
64;2241675470; 0.9999999216646507; -3.8845917676777475E-4; 6.768415850551963E-5; 3.448209862189078E-5; -0.15938090175325323; 0.017815727586271687; -0.02634029396978032; 1.672119140625; -1.857177734375; 1.0029296875;0
65;2241692137; 0.9999999109543867; -4.201837823782917E-4; 3.847770031754211E-5; 7.5016248414216955E-6; -0.15957768128881594; 0.01802803672786673; -0.026346564319816267; 1.67626953125; -1.857177734375; 1.00341796875;0
66;2241708804; 0.9999998979002538; -4.433677138160619E-4; 8.581552271763605E-5; -1.61322167377409E-5; -0.15943859566082208; 0.01702723437650911; -0.026804559594850435; 1.67578125; -1.855712890625; 1.002197265625;0
67;2241725471; 0.9999999498928893; -2.839538399103392E-4; 1.3917407746599777E-4; -1.4663280178350837E-5; -0.1598631739304622; 0.01691755098398206; -0.026196213896542468; 1.673583984375; -1.8583984375; 1.004150390625;0
68;2241742138; 0.9999999823262498; -1.8228174106252326E-4; 4.557973209805278E-5; -6.5844523649549735E-6; -0.15953615883049854; 0.017450088324987838; -0.02576183928893684; 1.67626953125; -1.857177734375; 1.00341796875;0
69;2241758805; 0.9999999763619979; -1.6455902191631067E-4; 1.4206437234336872E-4; 3.747827527711412E-6; -0.15870266743380881; 0.01808917960738199; -0.026786761297492828; 1.673583984375; -1.857421875; 1.002197265625;0
70;2241775472; 0.9999999424482376; -3.033235766853326E-4; 1.5184043145917428E-4; 6.543135741665651E-6; -0.15897562690428743; 0.017721928084783713; -0.026572276023142487; 1.673583984375; -1.85693359375; 1.002197265625;0
71;2241792139; 0.9999999390384632; -2.738291080152111E-4; 2.1643461695976254E-4; -9.835968924121198E-6; -0.15982296821257835; 0.017551527794061595; -0.02627489599898531; 1.674072265625; -1.8583984375; 1.0048828125;0
72;2241808806; 0.9999999684069124; -1.9347298603475394E-4; 1.5906718609336182E-4; 2.1260483042462308E-5; -0.1593429396485114; 0.016205428380736377; -0.026424923546099818; 1.67529296875; -1.859619140625; 1.0048828125;0
73;2241825473; 0.9999999911984043; -9.457663327216981E-5; 9.295836268542051E-5; 4.1466412169510755E-6; -0.16012394889312856; 0.01643345273348101; -0.02596846555636047; 1.6748046875; -1.85595703125; 1.002197265625;0
74;2241842140; 0.9999999955597918; 5.643070835187336E-5; 3.732161224345027E-5; 6.559793272548076E-5; -0.15961814326735774; 0.01720936374445815; -0.026640224015514073; 1.67431640625; -1.857421875; 1.003662109375;0
75;2241858807; 0.9999999830497688; 1.3718619335223448E-4; 9.203037699519885E-5; 8.130695015851065E-5; -0.15918141567017113; 0.01764994813974416; -0.026518932099897453; 1.675048828125; -1.854736328125; 1.0029296875;0
76;2241875474; 0.9999999868103916; 1.021746155189518E-4; 8.660979683498134E-5; 9.186026155871829E-5; -0.1593040577944958; 0.018300918149800467; -0.027110693659627635; 1.674560546875; -1.856689453125; 1.004638671875;0
77;2241892141; 0.9999999910158437; 3.5450670820058594E-5; 8.659100397997305E-5; 9.598729392157336E-5; -0.1594965718948954; 0.018719621446839578; -0.026799418437418027; 1.674560546875; -1.85498046875; 1.000732421875;0
78;2241908808; 0.999999995577865; 3.9157175292375834E-5; 2.1045494601745766E-6; 8.547839744621477E-5; -0.1596334474930448; 0.018655178330088288; -0.02713555074368336; 1.67626953125; -1.859130859375; 1.005615234375;0
79;2241925475; 0.9999999982728037; -1.541550152703297E-5; -7.009355614692737E-6; 5.6281646701461525E-5; -0.1591960433347023; 0.018258497015712055; -0.02735203767402339; 1.6748046875; -1.855712890625; 1.005615234375;0
80;2241942142; 0.9999999985174588; -2.058595306986266E-5; 5.455933299654271E-6; 5.011520419950788E-5; -0.15943000394347687; 0.01799954651991785; -0.02690508824654011; 1.67529296875; -1.8583984375; 1.00244140625;0
81;2241958809; 0.9999999993052628; -2.850836967557835E-5; 1.5050633897950583E-5; 1.8714312462697617E-5; -0.1593883909505963; 0.017518858913163567; -0.026726131640908257; 1.675048828125; -1.858642578125; 1.005126953125;0
82;2241975476; 0.9999999991195241; 3.5775184620556733E-6; -3.189740484187132E-5; 2.7031624337536808E-5; -0.15979160498723138; 0.017544340965180313; -0.02644640422443361; 1.672119140625; -1.8564453125; 1.004638671875;0
83;2241992143; 0.999999992264442; 1.0555273483306427E-4; -9.383848217102421E-6; 6.512817730125466E-5; -0.15895999411916042; 0.017098186817724487; -0.02651534077566277; 1.675537109375; -1.857177734375; 1.005615234375;0
84;2242008810; 0.9999999755681788; 2.0527613379839327E-4; -6.652097854129015E-5; 4.7961548765185213E-5; -0.15931218194799923; 0.017356598885128034; -0.026561159500966512; 1.674072265625; -1.85595703125; 1.00439453125;0
85;2242025477; 0.9999999837304308; 1.6812239939037465E-4; -2.4249710136897695E-5; 6.0712014361141715E-5; -0.15890007066046707; 0.018259584318476067; -0.027299239831495424; 1.673095703125; -1.856201171875; 1.007568359375;0
86;2242042144; 0.9999999905692198; 1.2104994557862736E-4; -2.9218368924444075E-5; 5.7920270780442706E-5; -0.1597160126034862; 0.018749318376613998; -0.02674385843860758; 1.672119140625; -1.85546875; 1.006103515625;0
87;2242058811; 0.9999999903889785; 7.091296527236834E-5; -9.621144145088857E-5; 7.02620305141899E-5; -0.15913256042896973; 0.018389823427907067; -0.02705809798998278; 1.673583984375; -1.857421875; 1.00634765625;0
88;2242075478; 0.999999996342065; 5.283622569254853E-5; -6.365877048005593E-5; 2.172012966900061E-5; -0.15870803498219857; 0.017913061636931515; -0.026767664408346943; 1.672119140625; -1.8583984375; 1.00732421875;0
89;2242092145; 0.9999999887895819; 5.477651588525756E-5; -1.3918964672284678E-4; -6.827266692710499E-6; -0.15873638952114155; 0.01760012103429366; -0.027296020579098988; 1.67236328125; -1.856201171875; 1.00341796875;0
90;2242108812; 0.999999994957496; 4.5421221020108815E-5; -6.325601463186976E-5; -6.3408178474611E-5; -0.15966314516489485; 0.017837457244301278; -0.02756261055275071; 1.671142578125; -1.855224609375; 1.005126953125;0
91;2242125479; 0.9999999934055521; 7.420235348867821E-5; -1.51191244578755E-5; -8.633839586574822E-5; -0.16067954011220248; 0.018351846149275618; -0.026892372076437656; 1.673095703125; -1.8583984375; 1.00341796875;0
92;2242142146; 0.9999999837705469; 1.7338323626744923E-4; -4.8120700713714944E-5; -9.030930864128983E-6; -0.16044823829956753; 0.016824392192053544; -0.026569193440891148; 1.6748046875; -1.855224609375; 1.005859375;0
93;2242158813; 0.9999999294403602; 3.6612768989627287E-4; -4.430533580297713E-6; 8.396522905307348E-5; -0.15944932933623582; 0.01713297693157587; -0.02629568795671673; 1.67041015625; -1.85302734375; 1.00732421875;0
94;2242175480; 0.999999917941162; 3.854528495299825E-4; 1.6354096830470403E-5; 1.2359738458961322E-4; -0.15908131252111823; 0.018479609847330485; -0.02633219497501468; 1.671875; -1.85546875; 1.0048828125;0
95;2242192147; 0.999999938312278; 3.3660785622266487E-4; -5.448817365391601E-5; 8.427117173226419E-5; -0.15915984251160142; 0.018844575026131447; -0.02690153932700992; 1.674072265625; -1.854736328125; 1.00634765625;0
96;2242208814; 0.9999999914553517; 1.088986252117119E-4; -7.230092170867204E-5; 1.7212256957499505E-6; -0.15924277337754564; 0.019095608937458597; -0.02679671534959028; 1.6728515625; -1.857421875; 1.006103515625;0
97;2242225481; 0.9999999979049499; -2.928263971258005E-5; -5.1732038336652075E-5; -2.5620762575617743E-5; -0.16012385605414445; 0.019033942692029078; -0.026828205770018945; 1.675048828125; -1.855712890625; 1.0048828125;0
98;2242242148; 0.9999999897290145; -1.2939508509318687E-4; -3.7443061906353163E-6; -6.152124082542398E-5; -0.15970790543753194; 0.018557201888966236; -0.026877488340124413; 1.6748046875; -1.856201171875; 1.006103515625;0
99;2242258815; 0.9999999969486085; -6.525293838113844E-5; -1.619221948343658E-5; -3.978252226322088E-5; -0.16051670872589904; 0.01817176946926126; -0.026632696434531943; 1.6728515625; -1.85595703125; 1.005859375;0
100;2242275482; 0.9999999974308084; -8.96915489095873E-6; -7.104184894538014E-5; 3.315586474261778E-6; -0.16012614509657502; 0.0181025649062085; -0.026776693843948388; 1.673828125; -1.8564453125; 1.0048828125;0
101;2242292149; 0.9999999962269889; -1.6165242884558229E-6; -3.6977764011375536E-5; 7.858787406112012E-5; -0.1597223606574556; 0.018115199024963523; -0.02702287350890937; 1.67626953125; -1.857421875; 1.00732421875;0
102;2242308816; 0.9999999952651597; 1.4411943411257733E-5; -2.6398224045320887E-5; 9.254788052276419E-5; -0.15951266128133137; 0.017750579937307765; -0.026836335769255926; 1.673583984375; -1.856201171875; 1.009521484375;0
103;2242325483; 0.9999999944027893; -7.919852904980651E-5; -5.3097698710875836E-5; 4.5854648321408405E-5; -0.15933256657133704; 0.018331392330883073; -0.026795719181160783; 1.675048828125; -1.855224609375; 1.003173828125;0
104;2242342150; 0.9999999869478785; -1.5006004612577728E-4; -4.203234383447913E-5; 4.2655685435710744E-5; -0.1590264552353669; 0.018315900696387014; -0.026554554685274193; 1.6748046875; -1.8583984375; 1.00830078125;0
105;2242358817; 0.9999999792858377; -1.9085148782960193E-4; -4.8381885817169734E-5; 5.160646141522119E-5; -0.1593480656837993; 0.017897415248556828; -0.02664142802729675; 1.673583984375; -1.85693359375; 1.010009765625;0
106;2242375484; 0.9999999812933824; -1.049719013764272E-4; -1.4666512178518334E-4; 6.988187816503455E-5; -0.1597048266235917; 0.017718419975736366; -0.02716594106225862; 1.675048828125; -1.855712890625; 1.0068359375;0
107;2242392151; 0.9999999839334265; -1.196257541724588E-4; -1.2926485579163596E-4; 3.336799021746995E-5; -0.15950238977563705; 0.017432593219438183; -0.02695659585123862; 1.673828125; -1.857421875; 1.005126953125;0
108;2242408818; 0.9999999771641; -1.8599708378203017E-4; -1.0494490501747335E-4; -7.965616206528914E-6; -0.15960980960407012; 0.01799366502791544; -0.026705508931118352; 1.675537109375; -1.856689453125; 1.003662109375;0
109;2242425485; 0.9999999867355615; -1.5557159012893895E-4; -3.925747159534698E-5; -2.802156564502001E-5; -0.15909381917324614; 0.017909006024064564; -0.026999215491111846; 1.6728515625; -1.859375; 1.0048828125;0
110;2242442152; 0.9999999811027759; -1.6866113947339167E-4; -3.613900699175888E-5; -8.967630718847985E-5; -0.16002219265231268; 0.01821406470776926; -0.02688455787744737; 1.67626953125; -1.857421875; 1.005615234375;0
111;2242458819; 0.9999999669377478; -2.2184091090843294E-4; -1.1410878872641918E-4; -6.237225222976984E-5; -0.15966884926521263; 0.01881861517297596; -0.02678684409144203; 1.67578125; -1.856689453125; 1.0048828125;0
112;2242475486; 0.9999999674548563; -2.0867599272905712E-4; -1.2728811203720217E-4; -7.309140129690972E-5; -0.15971221696504967; 0.019035566469295283; -0.026897173155447138; 1.67431640625; -1.857177734375; 1.005859375;0
113;2242492153; 0.9999999582905946; -2.8052934130587404E-4; -6.198063707434087E-5; -2.967318882513004E-5; -0.15896774275538175; 0.018605978859863204; -0.027316927331719643; 1.677734375; -1.856689453125; 1.00244140625;0
114;2242508820; 0.9999999280933443; -3.7306638808792814E-4; 2.652445262616571E-5; -6.26995182521628E-5; -0.15909893108599352; 0.017667118043949756; -0.026782405477714856; 1.675537109375; -1.85546875; 1.001708984375;0
115;2242525487; 0.9999998736155643; -4.850742720308998E-4; 2.0093379819320637E-5; -1.3064479389074404E-4; -0.15947769630413325; 0.017150616359682867; -0.026452363876191785; 1.67333984375; -1.85546875; 1.004638671875;0
116;2242542154; 0.9999998626398177; -4.982744392393601E-4; -1.5982077438511658E-5; -1.6182553018456725E-4; -0.1595882274808655; 0.01703449282313006; -0.0258751642301326; 1.67626953125; -1.859130859375; 1.005615234375;0
117;2242558821; 0.9999999100191069; -3.804797455337072E-4; -1.0331576931369574E-4; -1.5659755150615465E-4; -0.1595074330011678; 0.016579489522068103; -0.02600981221959124; 1.67529296875; -1.8564453125; 1.000732421875;0
118;2242575488; 0.9999999581499762; -2.7573258046137417E-4; -3.4776603969471913E-6; -8.751854450411711E-5; -0.15955466807554206; 0.01599642380905604; -0.02602959702624625; 1.677001953125; -1.855712890625; 1.000732421875;0
119;2242592155; 0.9999999903226526; -1.2358954121829968E-4; -2.9243718033956926E-5; -5.679018177501272E-5; -0.15975838064490605; 0.01645887013473138; -0.02630255858569927; 1.67724609375; -1.854736328125; 0.99951171875;0
120;2242608822; 0.9999999986394605; -1.0915178723397423E-5; 9.473453616813678E-6; -5.0121764856747575E-5; -0.15924740281900604; 0.01706384297275567; -0.027056433067880446; 1.677734375; -1.855224609375; 1.000244140625;0
121;2242625489; 0.9999999941562391; -7.193594300233808E-5; 7.655847384985953E-5; -2.5525319604202682E-5; -0.15931806133723614; 0.01792166022105385; -0.026890862690683127; 1.67626953125; -1.8564453125; 1.0009765625;0
122;2242642156; 0.9999999941334546; -7.674725788903158E-5; 7.000088252719085E-5; -3.0705465566382983E-5; -0.1602177344377249; 0.018273658379149925; -0.025724091380724748; 1.679443359375; -1.853515625; 1.000244140625;0
123;2242658823; 0.9999999712703871; -2.2573982807586046E-4; -3.2059145242770155E-5; -7.397949809934136E-5; -0.15979367696299365; 0.01771693931936343; -0.026128383296599937; 1.67919921875; -1.853515625; 0.9990234375;0
124;2242675490; 0.9999999570469559; -2.743397814199966E-4; -5.732160182507496E-6; -1.0300928631767903E-4; -0.15902152425674335; 0.017330161695289514; -0.02652464803018654; 1.67724609375; -1.853271484375; 1.00146484375;0
125;2242692157; 0.99999995497537; -2.7107386631247676E-4; 6.518283108895156E-5; -1.1099286249610653E-4; -0.15908307806565303; 0.01603906339779876; -0.026313887443881055; 1.67822265625; -1.85400390625; 1.00244140625;0
126;2242708824; 0.9999999813133762; -1.6226648776831998E-4; 5.190859611289151E-5; -9.13692055881099E-5; -0.15989778851026032; 0.01620168374800429; -0.02604325407574478; 1.6806640625; -1.85693359375; 1.00146484375;0
127;2242725491; 0.9999999959331082; -1.7825943949029144E-5; 1.3199489959668522E-5; -8.74173486309915E-5; -0.16017164649030735; 0.01670543516198272; -0.0255888041020939; 1.681640625; -1.853271484375; 0.99951171875;0
128;2242742158; 0.9999999938311676; 5.68114900941219E-5; -7.803844633747643E-5; -5.495562182622482E-5; -0.15978157138673266; 0.017261620012204156; -0.026138086125105313; 1.679443359375; -1.853759765625; 0.99853515625;0
129;2242758825; 0.9999999963738395; 6.664451794849424E-5; 1.545536895294214E-5; -5.07145025994138E-5; -0.15955619113509759; 0.017597474055303933; -0.02640244678572086; 1.678955078125; -1.8525390625; 1.0;0
130;2242775492; 0.9999999981599291; -1.1731707882323139E-5; -1.0697032542555942E-5; -5.854982714270651E-5; -0.1599147552481933; 0.017507623314558914; -0.026637915169638926; 1.675537109375; -1.8544921875; 1.0009765625;0
131;2242792159; 0.9999999922794103; -1.0504933701666053E-4; 3.604742537190176E-5; -5.573508036321729E-5; -0.15983989051095784; 0.018250909525252587; -0.026134634546742398; 1.677978515625; -1.854736328125; 1.00146484375;0
132;2242808826; 0.9999999773601328; -2.0098673627397257E-4; 7.4863313464929035E-6; -6.948395933165097E-5; -0.15999850205812488; 0.01766740635255472; -0.025946949179158664; 1.67724609375; -1.851806640625; 0.999267578125;0
133;2242825493; 0.9999999815817789; -1.7303053026448967E-4; -2.499268204605304E-5; -7.919749429902147E-5; -0.1596306164308596; 0.016511527192342668; -0.025802002755586723; 1.677734375; -1.8544921875; 1.00244140625;0
134;2242842160; 0.9999999957314035; -7.744404422616036E-5; -4.48022620923444E-5; -2.30731500742154E-5; -0.15946398412730126; 0.01651284109116655; -0.02604352691073451; 1.67919921875; -1.85498046875; 0.99951171875;0
135;2242858827; 0.999999998758522; 3.982286191664408E-5; -1.563877912780232E-5; 2.55445558284273E-5; -0.16020259414185645; 0.015944693436199725; -0.02650345444161595; 1.680908203125; -1.85302734375; 0.999267578125;0
136;2242875494; 0.9999999889009744; 1.4579723195251582E-4; -2.8731460348943586E-5; 1.075737997624504E-5; -0.16035774813322667; 0.017009720746238362; -0.025841225695410676; 1.678955078125; -1.8525390625; 1.0;0
137;2242892161; 0.9999999962734961; 7.677769676192603E-5; -3.800871434474218E-5; 1.065507381303732E-5; -0.15964106609056453; 0.01830881267311109; -0.026342140101533018; 1.678955078125; -1.8544921875; 0.999755859375;0
138;2242908828; 0.9999999961719143; -6.835264441565347E-5; -3.05834515166234E-5; -4.5263010039653384E-5; -0.1590950379081138; 0.018664534822954368; -0.026518105380581605; 1.676513671875; -1.85302734375; 0.997802734375;0
139;2242925495; 0.9999999812938454; -1.8111892167796406E-4; -3.261054893107657E-5; -5.953820126136656E-5; -0.15861185618193457; 0.017349240415201403; -0.026544644028933407; 1.67822265625; -1.853271484375; 1.0;0
140;2242942162; 0.9999999615213863; -2.4182505945719024E-4; -7.253855823315809E-5; -1.1496096836688396E-4; -0.1596561667414638; 0.01694596712210017; -0.026867926790610112; 1.68115234375; -1.854736328125; 1.0009765625;0
141;2242958829; 0.9999999657701252; -2.401537744184945E-4; -5.847621506649414E-5; -8.582799796907904E-5; -0.1600175278748704; 0.017106695346534955; -0.026992145443152475; 1.681640625; -1.852783203125; 0.999267578125;0
142;2242975496; 0.9999999581665944; -2.636380112702452E-4; -3.9795713334130074E-5; -1.1215217179616488E-4; -0.1607864648582999; 0.016168829625874143; -0.026232671148048534; 1.680419921875; -1.852294921875; 1.000732421875;0
143;2242992163; 0.9999999846843599; -1.528501083153111E-4; -4.448281380734637E-5; -7.272828562870927E-5; -0.16052750889653872; 0.016850038218985584; -0.025896111606961533; 1.684814453125; -1.8544921875; 0.998779296875;0
144;2243008830; 0.9999999986810003; -4.7773202957235306E-5; -1.6682390134761808E-5; 8.79876688381076E-6; -0.15939643400266654; 0.01739661716514604; -0.026348083507353327; 1.6806640625; -1.8515625; 0.997802734375;0
145;2243025497; 0.9999999981863535; -4.8741332496798906E-5; 2.3156084768591323E-5; 2.6746422013779195E-5; -0.15950021605128814; 0.016661766504762733; -0.02594607201017486; 1.68017578125; -1.8515625; 0.99951171875;0
146;2243042164; 0.9999999949069154; -7.078541671773353E-5; -6.982477802154609E-5; 1.732322874187231E-5; -0.15956503986139156; 0.01630859153986417; -0.025488267677012386; 1.68115234375; -1.853271484375; 1.00048828125;0
147;2243058831; 0.9999999940273173; -8.568748282503091E-5; -6.297855839302453E-5; 2.5233347013819966E-5; -0.159301144296133; 0.017110613576927416; -0.025738314674110113; 1.682861328125; -1.851318359375; 0.998779296875;0
148;2243075498; 0.9999999960305077; -7.840885518814456E-5; 2.6337089592542998E-5; 3.312693464752048E-5; -0.15963052460181307; 0.017647998116610355; -0.026231915776318046; 1.682861328125; -1.85205078125; 1.000732421875;0
149;2243092165; 0.9999999843394616; -1.7556039637034448E-4; 6.231499448887401E-6; -2.1466067540332204E-5; -0.16067622973696313; 0.01723158755065065; -0.025191432379947663; 1.678955078125; -1.851806640625; 0.99755859375;0
150;2243108832; 0.9999999646953887; -2.593367527016499E-4; -4.7828030267899064E-5; -3.265194752077871E-5; -0.15989594885945121; 0.016460598819160073; -0.025782529349238383; 1.686279296875; -1.85302734375; 0.998291015625;0
151;2243125499; 0.9999999902261459; -1.3607402979964878E-4; -2.4167920688579484E-5; -2.1153674446938723E-5; -0.1600978899153813; 0.01643314594395015; -0.02583940043829646; 1.680419921875; -1.852294921875; 1.000732421875;0
152;2243142166; 0.999999997091382; -4.722919446376039E-5; -5.9533803566547146E-5; -6.508872981203506E-6; -0.15976137358997702; 0.017161183870939886; -0.026001230257980203; 1.685546875; -1.85302734375; 0.99853515625;0
153;2243158833; 0.9999999921128007; -1.2395913314230955E-4; 6.519865247640866E-6; 1.9131736313071638E-5; -0.15979161472742687; 0.017004799620560274; -0.02618148418692784; 1.68115234375; -1.8525390625; 0.998779296875;0
154;2243175500; 0.9999999940026741; -9.366113070630178E-5; 5.628578892295789E-5; -7.358948870328508E-6; -0.160120984916104; 0.015939271793496884; -0.025420555972608547; 1.6845703125; -1.85400390625; 0.999755859375;0
155;2243192167; 0.9999999986100861; -1.2225745899263618E-6; 5.2276759428995796E-5; -6.743391470442895E-6; -0.15963576165228266; 0.015915466796497166; -0.02569756590231495; 1.681640625; -1.853271484375; 0.9990234375;0
156;2243208834; 0.9999999892505386; 1.3373945288555622E-4; -3.953254756840913E-5; 4.527536806309129E-5; -0.1592606619352182; 0.016254316358815562; -0.02607154500366736; 1.68212890625; -1.853759765625; 0.998046875;0
157;2243225501; 0.999999993070441; 8.333963062756578E-5; -4.29620451719917E-5; 7.118908991166074E-5; -0.15902319990547525; 0.0166855084580061; -0.02616149784109614; 1.681396484375; -1.85400390625; 0.998046875;0
158;2243242168; 0.9999999855958921; 1.4527656690546675E-4; 5.11611971911602E-6; 8.761712052474113E-5; -0.1596922134609803; 0.015772204929355802; -0.026111637579777552; 1.679931640625; -1.853515625; 0.999267578125;0
159;2243258835; 0.9999999471096795; 3.047576452473999E-4; 2.0351001161218744E-5; 1.117553246098857E-4; -0.1600929390626997; 0.016194339469253166; -0.026037624643972468; 1.681640625; -1.851318359375; 0.9990234375;0
160;2243275502; 0.9999999510893021; 2.990819848049109E-4; 2.429579934910831E-6; 9.146287305528134E-5; -0.15970995767280685; 0.01802307371967601; -0.02657007698120962; 1.68310546875; -1.85400390625; 1.0029296875;0
161;2243292169; 0.9999999850604395; 1.5761978332565207E-4; 4.099291677189809E-6; 7.084010595748148E-5; -0.15954909114761007; 0.01763670971415; -0.026613780643531645; 1.680419921875; -1.8515625; 0.998779296875;0
162;2243308836; 0.9999999823208917; 1.5493229941435094E-4; 7.847512323443802E-5; 7.208227237570641E-5; -0.15935538886480508; 0.01725425033112249; -0.025994569940205423; 1.68115234375; -1.851806640625; 1.000244140625;0
163;2243325503; 0.9999999950281009; 6.724890280954132E-5; 6.574996844432858E-5; 3.314098583506731E-5; -0.15928372604691118; 0.017280020436815428; -0.026197762129548954; 1.67822265625; -1.85205078125; 1.001953125;0
164;2243342170; 0.999999997675402; -3.332123692659228E-5; 5.941423285021203E-5; 2.9732344808963695E-6; -0.15969091025766327; 0.016593289689014832; -0.026829195456549174; 1.680908203125; -1.85009765625; 0.99755859375;0
165;2243358837; 0.9999999934242088; -1.1034164524176271E-4; 2.9048571891128472E-5; -1.1510181348262096E-5; -0.15999928167159166; 0.01582114849131143; -0.025559440174548337; 1.681396484375; -1.853759765625; 1.000244140625;0
166;2243375504; 0.9999999831591049; 1.3170374067275614E-4; 1.0548914881201162E-4; 7.216615764582546E-5; -0.16011281187927567; 0.015816842813019833; -0.026169340697352217; 1.6787109375; -1.8525390625; 1.00048828125;0
167;2243392171; 0.999999977801874; 1.7791590063481744E-4; 4.053666380140348E-5; 1.053516149245315E-4; -0.16023423606803375; 0.016363664803043177; -0.025953319087799298; 1.6796875; -1.8505859375; 1.000732421875;0
168;2243408838; 0.999999945369681; 2.589104254989705E-4; 1.010347065516365E-4; 1.7893578391092735E-4; -0.15991051974695453; 0.016703296929828467; -0.026453640854175738; 1.679931640625; -1.854248046875; 1.0029296875;0
169;2243425505; 0.9999999453757393; 2.219731280449777E-4; 1.6574012099179053E-4; 1.802960377615959E-4; -0.15948251375830838; 0.017135287504695333; -0.02654784047630187; 1.679443359375; -1.852294921875; 1.002197265625;0
170;2243442172; 0.9999999773120454; 9.911747628560397E-5; 1.4748347115475793E-4; 1.1747450996490993E-4; -0.15987565188465686; 0.016951113645936742; -0.02645990867190831; 1.677001953125; -1.8525390625; 1.004150390625;0
171;2243458839; 0.9999999929524638; -1.1316708623476668E-5; 8.667229622521395E-5; 8.034250216620854E-5; -0.1597374743250261; 0.017074523090876925; -0.026137676906791016; 1.6796875; -1.8544921875; 1.0;0
172;2243475506; 0.9999999888379112; 8.367138382631145E-5; 6.808806219581189E-5; 1.0337936369297918E-4; -0.15952568535203232; 0.0171722704827754; -0.026474102691788168; 1.680419921875; -1.853759765625; 1.00341796875;0
173;2243492173; 0.9999999777027166; 8.237679001873999E-5; 1.4346737270324456E-4; 1.3124688070814686E-4; -0.15957329584565702; 0.017013719720124824; -0.02635821923639644; 1.678466796875; -1.851318359375; 1.004638671875;0
174;2243508840; 0.9999999754731383; 1.5141213653563357E-5; 1.4687999144779448E-4; 1.650779649502998E-4; -0.15992885215994854; 0.017782782442433833; -0.02631878912497561; 1.68017578125; -1.854736328125; 1.004150390625;0
175;2243525507; 0.9999999766582954; -2.7031552906398026E-5; 1.0857147823906123E-4; 1.8483759878945574E-4; -0.15980494286600538; 0.017223720730048114; -0.026318001297670986; 1.678466796875; -1.854736328125; 1.006103515625;0
176;2243542174; 0.999999981402233; 6.633571028313856E-7; 9.248738056075874E-5; 1.692370471201854E-4; -0.1596964355921303; 0.01703231833505025; -0.02654329289025354; 1.6806640625; -1.8544921875; 1.00634765625;0
177;2243558841; 0.9999999690571081; 6.175879779848903E-5; 1.245922666051405E-4; 2.0627263700184753E-4; -0.15952875331420222; 0.017437423184631286; -0.027645073648596145; 1.677734375; -1.852294921875; 1.00537109375;0
178;2243575508; 0.9999999742355573; 1.0803018795760289E-4; 7.860045492872476E-5; 1.8352201936278068E-4; -0.15998303456328758; 0.017331935580189063; -0.026851541699606615; 1.67822265625; -1.8525390625; 1.00439453125;0
179;2243592175; 0.9999999901403893; 3.2265646480761356E-5; -6.623545628310635E-6; 1.365074281410306E-4; -0.1597643082412788; 0.017546762832654744; -0.026682457771372813; 1.677001953125; -1.85302734375; 1.004150390625;0
180;2243608842; 0.9999999934245206; -4.882298185160394E-5; 4.2580873432715445E-5; 9.462634058293729E-5; -0.15910267074707657; 0.017496563906047945; -0.0271314296338431; 1.67822265625; -1.8525390625; 1.00439453125;0
181;2243625509; 0.9999999828580389; -9.926773510826603E-5; 8.904385503630957E-5; 1.2845633732228026E-4; -0.15967452964566572; 0.018305320273973167; -0.027326613647520124; 1.67822265625; -1.8525390625; 1.00439453125;0
182;2243642176; 0.9999999722657873; -1.295354323654907E-4; 3.4512014702552114E-5; 1.9364378931141513E-4; -0.15993078732073537; 0.01853785152547271; -0.027082854709953127; 1.680419921875; -1.854736328125; 1.003173828125;0
183;2243658843; 0.9999999574285291; -1.9334602587542382E-4; 2.2116659200661918E-5; 2.1741919810142066E-4; -0.16018316707774793; 0.017782849779886475; -0.027530153133527337; 1.6748046875; -1.855224609375; 1.00537109375;0
184;2243675510; 0.9999999416145703; -2.196120794021872E-4; 1.0203893838489633E-6; 2.6180211860254987E-4; -0.15940590591234366; 0.01730699949921965; -0.027860216796554316; 1.6796875; -1.855224609375; 1.004150390625;0
185;2243692177; 0.9999999370326516; -2.6784677070543217E-4; 3.088889862658262E-5; 2.3073507810028596E-4; -0.15960677533146156; 0.016754245291918105; -0.02688178732884248; 1.674560546875; -1.854248046875; 1.00634765625;0
186;2243708844; 0.9999999378976515; -3.1555359569124253E-4; 8.84317092871706E-6; 1.566921178667302E-4; -0.15991171269801704; 0.016340380684393734; -0.026578007779374906; 1.677734375; -1.85400390625; 1.002197265625;0
187;2243725511; 0.9999999526204187; -2.8201372599212515E-4; 4.890396020398175E-5; 1.1329528374492971E-4; -0.15958482631821064; 0.016668415868185835; -0.025910175775501677; 1.677978515625; -1.854248046875; 1.005126953125;0
188;2243742178; 0.999999949253989; -2.92360433021277E-4; 4.6610127168812694E-5; 1.1766432080662081E-4; -0.15889642905217718; 0.016811337841490283; -0.027164362883198928; 1.67822265625; -1.85546875; 1.00439453125;0
189;2243758845; 0.9999999677102128; -2.11770639183817E-4; -5.618198824508536E-5; 1.2874918975180896E-4; -0.15895031518712513; 0.017279812440384; -0.027080439593509135; 1.67822265625; -1.8544921875; 1.0048828125;0
190;2243775512; 0.9999999118577153; -3.760461136321225E-4; -5.183281595013551E-5; 1.7940803028604346E-4; -0.15888903972350676; 0.017712689296814025; -0.02782105811316816; 1.6767578125; -1.855224609375; 1.003662109375;0
191;2243792179; 0.9999996215491842; -8.534052335516795E-4; -4.9617305059035395E-5; 1.6167596818167376E-4; -0.1591910248099046; 0.021015621647065275; -0.028655838736608156; 1.67578125; -1.853515625; 1.000732421875;0
192;2243808846; 0.9999985391329558; -0.001708599575367925; 3.164046224808648E-6; 4.908598755115623E-5; -0.1609977920585221; 0.02449658019225715; -0.027629743653241265; 1.6767578125; -1.857421875; 0.99951171875;0
193;2243825513; 0.9999963971441501; -0.002671423821168112; -2.1938323038721286E-4; -1.451360920134981E-4; -0.1623524403069009; 0.026877229297591454; -0.02747915892253481; 1.677978515625; -1.8544921875; 0.99560546875;0
194;2243842180; 0.9999962554106064; -0.0025463288590425737; -9.479699396635761E-4; 3.266911387747595E-4; -0.16654208215624325; 0.020474390324748903; -0.018449669563392532; 1.68017578125; -1.85546875; 0.992919921875;0
195;2243858847; 0.9999961274995246; -0.0017619233522679634; -0.0019515589241544883; 9.121566866159282E-4; -0.16399206244226078; 0.01679648278722154; -0.01693843331765795; 1.683349609375; -1.858642578125; 0.990966796875;0
196;2243875514; 0.9999934142117577; -0.0017530212768559206; -0.0026519557797930545; 0.0017508797951325539; -0.16293193301922948; 0.014240199261940626; -0.013495759299854172; 1.6787109375; -1.858642578125; 0.98193359375;0
197;2243892181; 0.9999888658847756; 3.8520769545238864E-4; -0.0033372220717884163; 0.0033140112183058794; -0.16956485874502336; 6.057456096613704E-4; -0.006807145656901423; 1.677978515625; -1.861572265625; 0.9775390625;0
198;2243908848; 0.9999824128320571; 0.0010012921651534334; -0.004493105090543633; 0.00373944477463678; -0.171364676520279; 0.005269085759579878; -0.013831199581540336; 1.674072265625; -1.8662109375; 0.974853515625;0
199;2243925515; 0.9999747437463414; 0.0012901585793957115; -0.005459989574303077; 0.00436301204759404; -0.1748591819364515; 0.014405951391624592; -0.015953965570960196; 1.674072265625; -1.87109375; 0.968017578125;0
200;2243942182; 0.9999622693923353; 0.002365229551287401; -0.0060831537613292444; 0.005732427166241616; -0.17865737961831382; 0.01389078897385074; -0.012240621162079773; 1.66748046875; -1.876220703125; 0.960693359375;0
201;2243958849; 0.9999492009203973; 0.0035492371929330413; -0.00707906314483954; 0.0062358126173469594; -0.17468624176068598; 0.0016399420603079844; -0.00788211058704296; 1.657958984375; -1.8857421875; 0.952880859375;0
202;2243975516; 0.999940925476658; 0.004952702641510848; -0.007687456421659037; 0.005875313369915869; -0.1669690210521396; 0.0023958168996986596; -0.008552738470675784; 1.6552734375; -1.891845703125; 0.94921875;0
203;2243992183; 0.9999341433180327; 0.005644069345112246; -0.007935646261603037; 0.0060728104260349145; -0.1673565875214615; 0.02026669543551622; -0.00935814235302115; 1.6474609375; -1.900634765625; 0.94482421875;0
204;2244008850; 0.9999129418046484; 0.0065758951862007475; -0.008724053052459548; 0.007399818403976077; -0.17378303301901973; 0.040344957469957234; -0.00318562152031451; 1.637451171875; -1.907470703125; 0.9404296875;0
205;2244025517; 0.9998913632201338; 0.007470286571373136; -0.009334283508579053; 0.008621353008974654; -0.17246229820606543; 0.050786851132222074; -0.002385308083970347; 1.623291015625; -1.91748046875; 0.939697265625;0
206;2244042184; 0.9998939693509238; 0.007160580135300382; -0.009164640446945914; 0.008762734348255308; -0.16682609041602947; 0.05938582088258368; -0.007059328474611413; 1.6171875; -1.92529296875; 0.935791015625;0
207;2244058851; 0.9999104757954956; 0.006487431430651988; -0.008294750861216395; 0.008255345904831126; -0.16397125924937614; 0.06450936224987205; -0.0016358488715517011; 1.60205078125; -1.936767578125; 0.930908203125;0
208;2244075518; 0.9999255761457002; 0.005192450682344835; -0.007707998431656483; 0.00790363117677978; -0.16376953504399505; 0.07366377795870119; -8.807453835510681E-4; 1.58984375; -1.94287109375; 0.927978515625;0
209;2244092185; 0.9999358886630617; 0.002837886311597773; -0.007502870683687851; 0.007991989514468391; -0.15964414859881132; 0.08745865599849559; -0.00915732091854059; 1.57861328125; -1.953369140625; 0.922607421875;0
210;2244108852; 0.9999307214778783; 0.0016815628128846183; -0.007905705118846628; 0.008557126726300213; -0.15790648289608358; 0.07274258426562394; -0.006334425209814269; 1.571044921875; -1.961181640625; 0.914306640625;0
211;2244125519; 0.9999280623335467; 0.0010791967896510019; -0.0077778869896478345; 0.009066971167050799; -0.1519875382038779; 0.06112022053361484; -0.015284940504065108; 1.558837890625; -1.97021484375; 0.906005859375;0
212;2244142186; 0.9999390581928672; -9.573259530350209E-4; -0.007111719498537673; 0.008389688501696135; -0.1461656501200092; 0.06382239570979804; -0.022644839179872523; 1.545166015625; -1.978515625; 0.894287109375;0
213;2244158853; 0.9999488055674454; -0.002652653465437832; -0.006327014494562147; 0.007437644883785345; -0.1468000678676186; 0.05951249394911735; -0.01522513750242074; 1.53466796875; -1.9853515625; 0.88232421875;0
214;2244175520; 0.9999545733254397; -0.0027435872730233457; -0.0058207488703073415; 0.007031564335345464; -0.1504876129313782; 0.050290381122871694; -0.006233584628759418; 1.527099609375; -1.989990234375; 0.869873046875;0
215;2244192187; 0.9999592672064592; -0.003701933484890632; -0.0055583593900406245; 0.006071594295207428; -0.14421374245373303; 0.05134847783497768; -0.008818393116982483; 1.5166015625; -1.994384765625; 0.85693359375;0
216;2244208854; 0.9999725570998421; -0.003483136037407783; -0.004220988976700536; 0.0049936021674266695; -0.13683272960617177; 0.048032311267104534; -0.006031630731925072; 1.51318359375; -2.0009765625; 0.84521484375;0
217;2244225521; 0.9999856606988482; -0.001432970972091982; -0.0030329314214193742; 0.00417448414467131; -0.14085178532071546; 0.032153849489447626; 0.0031852374572836663; 1.5078125; -2.000732421875; 0.8349609375;0
218;2244242188; 0.9999911578930352; 0.0015607065395025627; -0.0021528894648382845; 0.003257821019731544; -0.14310390084553382; 0.023995666240173377; -0.0023399683335449638; 1.498291015625; -2.004150390625; 0.837158203125;0
219;2244258855; 0.9999864137268747; 0.004647463983528111; -0.001955512712912389; 0.0013226527190681183; -0.1381052914868224; 0.02181322289869923; -0.003827504729039713; 1.496826171875; -2.007080078125; 0.842041015625;0
220;2244275522; 0.999972572734388; 0.007089986054564457; -0.0016515850840505; -0.0013631373464906837; -0.13766442542482432; 0.02684541459837637; 0.00528762433294605; 1.495849609375; -2.005615234375; 0.848388671875;0
221;2244292189; 0.9999460476260797; 0.009675956747703593; -0.0029736049737766612; -0.0023313883113321725; -0.14146286327962507; 0.0336534432776337; 0.005197683729775486; 1.493408203125; -2.00927734375; 0.861328125;0
222;2244308856; 0.9999402154800019; 0.010139323352804944; -0.003470243757791661; -0.002171864640422738; -0.1356252768866079; 0.031499025658906235; 0.007530198305824316; 1.491943359375; -2.005615234375; 0.87255859375;0
223;2244325523; 0.999945062792222; 0.00950883999426999; -0.004034401163198449; -0.0017824047456236338; -0.14419425226897145; 0.04528583442718209; 0.02193815644390405; 1.49169921875; -2.001953125; 0.883056640625;0
224;2244342190; 0.9999672955285207; 0.0070628145902054545; -0.0037941721258869525; -0.0010624412076023493; -0.13248752298888225; 0.06493852460576453; 0.02251952306734708; 1.49462890625; -2.00732421875; 0.8896484375;0
225;2244358857; 0.999998067536358; 0.0012479129184186782; -0.0012812227414049082; -8.161526723175495E-4; -0.11905038630970802; 0.0929221919964978; 0.010337827688486824; 1.494873046875; -2.005126953125; 0.892578125;0
226;2244375524; 0.999979496314895; -0.0051320714504169695; 0.0038272952124836506; -1.435402147802467E-4; -0.12650324694806722; 0.08602970262728513; 0.006416716492369428; 1.494140625; -2.006103515625; 0.891357421875;0
227;2244392191; 0.9999651759677253; -0.005480378638053007; 0.006293615652834373; 5.199840631253672E-5; -0.14299975147213767; 0.05196520457591254; 0.01839049103758976; 1.49951171875; -2.006103515625; 0.890380859375;0
228;2244408858; 0.9999761396740001; -6.910195777521388E-4; 0.0068421140604620215; 6.542551576083078E-4; -0.16067024208677513; 0.03887408689607254; 0.028369403031623126; 1.498291015625; -2.00634765625; 0.89013671875;0
229;2244425525; 0.9999734759244068; 0.004349103643307192; 0.00555603910913384; 0.0018064259125147866; -0.17059752959152677; 0.05442740243557065; 0.030072949060153856; 1.4873046875; -2.005126953125; 0.905029296875;0
230;2244442192; 0.9999706071937252; 0.005707258563672005; 0.0045176273564037925; 0.002408939884807504; -0.16966681075109896; 0.07346976466157457; 0.02597835292023062; 1.48193359375; -2.0087890625; 0.919189453125;0
231;2244458859; 0.9999853857384701; 0.003804092358768399; 0.00340919679023273; 0.001770471139168506; -0.16242680996534234; 0.084706467505992; 0.023879641883628934; 1.47314453125; -2.012451171875; 0.93017578125;0
232;2244475526; 0.9999984240482969; 8.144420933174079E-4; 0.0015580147051934975; 2.4733616330735453E-4; -0.1542981803933064; 0.08227800262800351; 0.025167927291086217; 1.471923828125; -2.012939453125; 0.935791015625;0
233;2244492193; 0.9999970888697751; -0.0021413449182766386; 1.1452201448386434E-4; -0.0011062452821424265; -0.14599332948978888; 0.0799605733341801; 0.017488516421630726; 1.47412109375; -2.01220703125; 0.934326171875;0
234;2244508860; 0.9999902358048114; -0.004123992245210012; -7.181874928231664E-4; -0.0014160472182784822; -0.14685378306381924; 0.07534249779160955; 0.013182715994246355; 1.477294921875; -2.0107421875; 0.926025390625;0
235;2244525527; 0.9999875520509763; -0.00473058648350258; -9.674962206414895E-4; -0.0012574759166431029; -0.14976236919446995; 0.07049240524886223; 0.0077768664903220385; 1.481201171875; -2.0068359375; 0.9189453125;0
236;2244542194; 0.999985411436183; -0.005145852032245907; -0.0010358211276888243; -0.0012744395872363312; -0.15114841793103648; 0.06378326952151227; 0.0025787885812758333; 1.486328125; -2.00390625; 0.90966796875;0
237;2244558861; 0.9999804944231125; -0.005818563256848347; -9.225613802277405E-4; -0.0020746024759454866; -0.14677284358323117; 0.05470943819972461; 0.0022425394115908118; 1.4951171875; -2.004638671875; 0.89990234375;0
238;2244575528; 0.9999793010105634; -0.005639823036344124; -4.520218692918854E-4; -0.0030635963790013876; -0.14303509549778817; 0.05270511979533012; 0.0011655791063621473; 1.50341796875; -2.002685546875; 0.892578125;0
239;2244592195; 0.999984444974285; -0.004677374542723128; 3.858231017728198E-6; -0.003038414384598565; -0.14555170017909794; 0.05449302571657804; 0.00433434503380346; 1.5087890625; -1.99853515625; 0.88427734375;0
240;2244608862; 0.9999930381754578; -0.0031350279541735027; 0.0010001347442423205; -0.0017592415517426185; -0.1430273587384084; 0.059720545495251486; 0.003626659038665672; 1.514892578125; -1.99609375; 0.88037109375;0
241;2244625529; 0.999996350303796; -0.0019517242299042642; 0.0018557558797282075; -2.1522484317182403E-4; -0.14691832988299994; 0.059196046144702544; 0.0063141701449570715; 1.5146484375; -1.992919921875; 0.876708984375;0
242;2244642196; 0.9999965728483673; -0.0020616672974574785; 0.0016101538988231858; -1.059428945452412E-4; -0.15006372225990264; 0.060035822525192364; 7.570154913476984E-4; 1.51708984375; -1.994873046875; 0.879150390625;0
243;2244658863; 0.9999932582376019; -0.002855986680516495; 0.0023064545946274583; -8.418211492922102E-5; -0.1545060646619281; 0.06120965747681992; -0.007240619000169135; 1.5185546875; -1.995361328125; 0.876220703125;0
244;2244675530; 0.9999826490756971; -0.005112190173292078; 0.0026810339280046312; -0.0011743578075057992; -0.14656959725300045; 0.07765501335401735; -0.013724009618464102; 1.52001953125; -1.9931640625; 0.87158203125;0
245;2244692197; 0.9999842305787698; -0.004349607172310976; 0.00351679894801675; -5.016337224308943E-4; -0.14462915418514127; 0.07562851530464754; 0.01077059574074428; 1.520263671875; -1.98974609375; 0.8701171875;0
246;2244708864; 0.9999837080476515; -0.0032922997996875647; 0.004427769377882946; 0.0014626208102451188; -0.14917373958244984; 0.058208795556394535; 0.01811666537563232; 1.5234375; -1.992919921875; 0.87060546875;0
247;2244725531; 0.9999797697267829; -0.004098956629813286; 0.0043209148084748525; 0.0022334697076505376; -0.15500913324314905; 0.05806795862616341; 0.003660204166308559; 1.519287109375; -1.993408203125; 0.867919921875;0
248;2244742198; 0.9999796965753172; -0.0030365373678959973; 0.004841843010216216; 0.0028182324628455713; -0.15590475277158622; 0.06588885116813734; -0.002525257295790298; 1.518310546875; -1.994384765625; 0.869140625;0
249;2244758865; 0.9999743718208591; -0.004055286278405415; 0.005542467045648911; 0.002022724332766957; -0.1453695795306857; 0.08391554646280419; -7.394820990094912E-4; 1.515625; -1.997802734375; 0.868896484375;0
250;2244775532; 0.999974656303362; -3.691569885498347E-4; 0.00664899822861935; 0.0025181931312885375; -0.14811977512063854; 0.05385392351282753; 0.026796352284569537; 1.50927734375; -1.999267578125; 0.87353515625;0
251;2244792199; 0.9999755895516094; 2.981677230972368E-4; 0.006457972784529726; 0.0026506573589126785; -0.156912902601627; 0.0409058777929676; 0.012046805590927542; 1.502685546875; -2.00244140625; 0.880859375;0
252;2244808866; 0.9999859716494699; -0.0012389726615544827; 0.004774748308646549; 0.0019295672049665646; -0.1570863593873344; 0.07509729072379417; -0.013083851972587674; 1.497802734375; -2.005615234375; 0.8857421875;0
253;2244825533; 0.9999775689831182; -0.00579730044594301; 0.0031118151768866342; 0.0012527747034072891; -0.14488293387969517; 0.10279593136116182; -0.009385158442283574; 1.498779296875; -2.005859375; 0.88037109375;0
254;2244842200; 0.999989784307385; -0.001991982547404514; 0.003649796679945278; 0.0017726450844409158; -0.14372766690382824; 0.04741974808315491; 0.03135382686026949; 1.496337890625; -2.002685546875; 0.879638671875;0
255;2244858867; 0.9999849228773614; 9.921165359000339E-6; 0.005476435223137594; -4.032081033029656E-4; -0.1441104604277243; 0.008442698865485494; 0.013836617219025148; 1.4931640625; -2.006103515625; 0.88671875;0
256;2244875534; 0.9999685717411182; -0.002758040775001802; 0.005651338651861752; -0.004828158298305296; -0.16107368349470177; 0.03297370039047099; -0.019553382844098962; 1.499755859375; -2.001708984375; 0.888671875;0
257;2244892201; 0.9999545902028683; -0.006723884881790987; 0.0027973164502340248; -0.006146700333311218; -0.15128599560074482; 0.07645462393599793; -0.02052887304008935; 1.51318359375; -1.9990234375; 0.886474609375;0
258;2244908868; 0.9999700821940336; -0.005640419701426508; 0.0033109138749996413; -0.004130161227111018; -0.1445303564529548; 0.0635179875571551; -0.003535516764854814; 1.521484375; -1.99072265625; 0.882080078125;0
259;2244925535; 0.9999857505847348; -0.0013361986069579945; 0.004382437832855885; -0.002739970694819294; -0.14835932580555353; 0.03088434177383459; 0.011705844139396739; 1.52734375; -1.98828125; 0.88623046875;0
260;2244942202; 0.9999823942562512; 1.0959087576001281E-4; 0.004451573513898397; -0.003922073510984836; -0.15899342639885303; 0.023902423263101432; 0.012463816011405225; 1.529541015625; -1.985595703125; 0.886474609375;0
261;2244958869; 0.9999751697835932; -7.080531747935548E-4; 0.0036117486649117486; -0.0060094715705201205; -0.16542347020244624; 0.04829927400664048; 5.288429230445174E-4; 1.538330078125; -1.982177734375; 0.893310546875;0
262;2244975536; 0.9999858657419033; 0.001143773946242349; 0.0025939391577325392; -0.004497952558885687; -0.15781501031096562; 0.06425439134362156; -0.012639861089962902; 1.5439453125; -1.976806640625; 0.898193359375;0
263;2244992203; 0.999989513168263; 0.002205856331576078; 0.003363657012800198; -0.0021894206642223972; -0.15405652201968917; 0.06072203461133169; -0.007102561538788046; 1.550048828125; -1.97216796875; 0.904541015625;0
264;2245008870; 0.9999888318440928; 0.001968866366946237; 0.003327018207795199; -0.0027185845877685244; -0.16022233600213157; 0.057932778604393664; 0.0014137274821569602; 1.553466796875; -1.97412109375; 0.914306640625;0
265;2245025537; 0.9999878138191428; 2.434427497517433E-4; 0.0027360785399150878; -0.004102051079937775; -0.15761155311358077; 0.0614610868193931; -0.008303414008733162; 1.557373046875; -1.968994140625; 0.920166015625;0
266;2245042204; 0.9999861256056294; -5.692109600548001E-4; 0.0032208477841206983; -0.004129253525394838; -0.15648058311824675; 0.052443268359971144; -0.009373718213053373; 1.560791015625; -1.96240234375; 0.922119140625;0
267;2245058871; 0.9999901340524326; -1.0380799384202E-5; 0.0025032805820233155; -0.003669506283480451; -0.1627800562201841; 0.0472839237258581; -0.008736997155859988; 1.5673828125; -1.96044921875; 0.927734375;0
268;2245075538; 0.9999937140798499; 2.1104717633935177E-4; 0.00124285627384603; -0.0033139957995452773; -0.15909608463469707; 0.037577246970253775; -0.006409734053261083; 1.57421875; -1.956298828125; 0.930908203125;0
269;2245092205; 0.9999929942638356; 0.0025078778838832083; 0.0010988352737240775; -0.002552358283881007; -0.16273142676849886; 0.024618209835635403; 0.0011348714486525344; 1.57568359375; -1.953369140625; 0.935546875;0
270;2245108872; 0.9999880554197367; 0.004544924262266242; 4.703929025899612E-4; -0.001735341989637762; -0.1591075628433187; 0.02127634277844563; -0.005865394982746287; 1.57763671875; -1.953857421875; 0.94140625;0
271;2245125539; 0.9999865316809978; 0.005052775212713911; 1.0912353890586009E-4; -0.0011806825618383978; -0.15569693269232004; 0.031185863042368544; -0.013061172099037916; 1.578369140625; -1.953369140625; 0.9482421875;0
272;2245142206; 0.9999913364382038; 0.0041200650139262; -2.0280726277951969E-4; -5.576576281577927E-4; -0.15609063467498568; 0.046712790635631066; -0.0153516351464742; 1.576904296875; -1.95166015625; 0.954833984375;0
273;2245158873; 0.9999950107807806; 0.0030582672158779856; -7.809768033121278E-4; -1.2446049818110041E-4; -0.1600657492189909; 0.05635034692297263; -0.011490946148866768; 1.57470703125; -1.9501953125; 0.95751953125;0
274;2245175540; 0.9999951730307042; 0.0027708509722581265; -0.0012924762138867912; 5.529967613364661E-4; -0.16115764102443542; 0.06142597164634685; -0.011248500131431659; 1.574462890625; -1.951904296875; 0.960693359375;0
275;2245192207; 0.9999928668043843; 0.002718261351714102; -0.0021504316497141383; 0.0015010127556656652; -0.1612558413497072; 0.055899106404285005; -0.01627806433516795; 1.570556640625; -1.94970703125; 0.962646484375;0
276;2245208874; 0.9999884756265751; 0.0031274703663178305; -0.0027648502147352223; 0.0023713174474170873; -0.16256885094633222; 0.043848315178904425; -0.014140252813112117; 1.5673828125; -1.953125; 0.96337890625;0
277;2245225541; 0.9999845633967808; 0.0034160736104927314; -0.0034267976514882267; 0.0027313855628817722; -0.15666659861732998; 0.031075066158226725; -0.012562250703913399; 1.562255859375; -1.953857421875; 0.960693359375;0
278;2245242208; 0.9999855622381804; 0.003307913091457809; -0.0034325830107905316; 0.0024800000088160967; -0.14956977290535795; 0.024802082388044273; -0.011367141762522986; 1.561279296875; -1.960693359375; 0.964599609375;0
279;2245258875; 0.9999852372003804; 0.003695910125079138; -0.0031605708272095874; 0.0024241331837263074; -0.1530201062517836; 0.02617015840415723; -0.007450553620922874; 1.553955078125; -1.958984375; 0.96435546875;0
280;2245275542; 0.9999839301939727; 0.00450641977315; -0.0025531444447816774; 0.0023049919930644425; -0.1576315812023488; 0.035632295608206556; -0.002726234794719083; 1.551513671875; -1.960693359375; 0.966552734375;0
281;2245292209; 0.999978745315873; 0.005440441512478036; -0.003091963807868907; 0.0018303749485622525; -0.16760665550834108; 0.05781617617711739; -0.008908158853639363; 1.54736328125; -1.96484375; 0.970703125;0
282;2245308876; 0.999973733849341; 0.004824783600676369; -0.004990993188446002; 0.002084001345221187; -0.16528862606733147; 0.06046857742878531; -0.007918698140396264; 1.541259765625; -1.96728515625; 0.97265625;0
283;2245325543; 0.9999684207480943; 0.0053024736247315185; -0.0053183436176419555; 0.0025993270640470305; -0.15934229661019675; 0.05150855535662743; -0.005145740835014666; 1.541015625; -1.968017578125; 0.972412109375;0
284;2245342210; 0.9999741540716202; 0.005108317864659012; -0.004513307118428304; 0.0022861181500826167; -0.15357290985887515; 0.046254219298128924; -0.008534036551542888; 1.536865234375; -1.970703125; 0.973876953125;0
285;2245358877; 0.9999837578779275; 0.004249991510362164; -0.0035028228955520935; 0.0014668961322521492; -0.15294832250078655; 0.05478470721352317; -0.013884667372050638; 1.53515625; -1.971923828125; 0.9736328125;0
286;2245375544; 0.9999860593789045; 0.0038676043284509576; -0.0034378334052184508; 0.0010507074219770485; -0.15601849217003871; 0.0606569624824704; -0.013912062330582613; 1.5302734375; -1.973876953125; 0.97607421875;0
287;2245392211; 0.9999869802569493; 0.0032656621014704873; -0.0039050606094726274; 3.5393398120198155E-4; -0.15373065581348128; 0.05841600317283226; -0.009442776497582381; 1.530517578125; -1.973388671875; 0.97705078125;0
288;2245408878; 0.9999853584371791; 0.003118000460141823; -0.004379084782600511; -6.201619658443014E-4; -0.15555684563594774; 0.04515936036157065; -2.8803941888031794E-4; 1.53369140625; -1.9716796875; 0.974609375;0
289;2245425545; 0.9999776945077343; 0.003965165320886713; -0.0052008036364449145; -0.0013563157853193066; -0.15956475095165354; 0.0454399393283675; -1.230298852373194E-4; 1.534912109375; -1.971435546875; 0.974609375;0
290;2245442212; 0.9999724030281995; 0.004279014536625811; -0.00598615885380869; -0.001024264995285351; -0.16146063528190047; 0.058014329680966155; -8.34519156120735E-4; 1.5380859375; -1.969482421875; 0.9755859375;0
291;2245458879; 0.9999723885668161; 0.004043203752202629; -0.006202721693232057; -6.331279420227488E-4; -0.15901349878978965; 0.06519242762131777; -0.003955982244284637; 1.539306640625; -1.969482421875; 0.973388671875;0
292;2245475546; 0.9999784602398051; 0.002767985144593338; -0.005919727508166121; -6.116705789239729E-4; -0.1569782605739927; 0.07235327935033478; -0.008856951718276088; 1.537841796875; -1.968017578125; 0.96875;0
293;2245492213; 0.9999811049292934; 0.0025561112255866464; -0.005587750217333619; -1.8200906790233343E-4; -0.15579479425873882; 0.06963674285484307; -0.0050166200821439525; 1.54248046875; -1.968505859375; 0.967529296875;0
294;2245508880; 0.9999835692120796; 9.692526613458569E-4; -0.005641992454920018; 2.996269130747242E-4; -0.15541043324013196; 0.0691551188322938; -0.00832916906520437; 1.541748046875; -1.96630859375; 0.96337890625;0
295;2245525547; 0.9999866148189177; 3.0261982718174374E-4; -0.005039207030320438; 0.00113357697015154; -0.1525755077571533; 0.0625694387495601; -0.004812580946722182; 1.54638671875; -1.969482421875; 0.955078125;0
296;2245542214; 0.9999898292075247; -0.001220366318090721; -0.004019277264064773; 0.0016424365527560325; -0.14983201783762803; 0.062319386403505636; -0.0073892423668519775; 1.545166015625; -1.968505859375; 0.947021484375;0
297;2245558881; 0.9999906584632408; -0.0023608587807817244; -0.0031034216037733042; 0.001864968209019824; -0.14736814900055578; 0.060003764197086334; -0.007927098224310113; 1.542724609375; -1.971435546875; 0.94384765625;0
298;2245575548; 0.999987710192798; -0.003732980499283972; -0.002677769141542039; 0.0018638327127789012; -0.1481035162904391; 0.05693890207131838; -0.004084580616813717; 1.54541015625; -1.970947265625; 0.93310546875;0
299;2245592215; 0.9999863395914065; -0.003874245576711413; -0.002952118958947939; 0.0018962714583721787; -0.14915756361388505; 0.05181784688555622; -4.683685704304488E-4; 1.545654296875; -1.97509765625; 0.92333984375;0
300;2245608882; 0.9999936680333054; -0.002150150943329765; -0.0022023384227824604; 0.0017861829939802565; -0.14455281804996237; 0.04236396475893427; 0.003218465110378003; 1.543212890625; -1.97705078125; 0.91796875;0
301;2245625549; 0.9999977251699047; -2.0975330811859316E-4; -0.0013723591167407734; 0.0016193483319535409; -0.14717101869025442; 0.03731351751776229; 0.0021281711245652937; 1.541015625; -1.97705078125; 0.914794921875;0
302;2245642216; 0.9999946908287004; 0.0026227799651588057; -7.52599531515838E-4; 0.00178127303113651; -0.15006898870279442; 0.0370762835413346; 0.006783366662460315; 1.539794921875; -1.979736328125; 0.915771484375;0
303;2245658883; 0.999985385678056; 0.004872115960981721; -8.63422769692035E-4; 0.0021783979189209384; -0.1522865180400397; 0.034653595304677404; 0.00899489040733247; 1.53271484375; -1.980224609375; 0.920654296875;0
304;2245675550; 0.9999848984428169; 0.005084596147926286; -7.845990780011304E-4; 0.0019324007370025709; -0.15074731893693613; 0.04483390261300816; 0.004741587008243982; 1.526611328125; -1.98388671875; 0.927001953125;0
305;2245692217; 0.9999881100439247; 0.004548282621208821; -6.946434986075528E-4; 0.0016156628320970203; -0.15366965574069796; 0.056948185123145326; 0.005207461405812261; 1.523193359375; -1.98583984375; 0.932373046875;0
306;2245708884; 0.9999961249065124; 0.0026254986330692745; -5.001145531061542E-4; 7.789828756012418E-4; -0.14772071284965543; 0.06680135065727866; 0.0046854441701370915; 1.519287109375; -1.98779296875; 0.940673828125;0
307;2245725551; 0.9999997434387794; 6.373874987040395E-4; -1.8188240233196765E-4; 2.716216921359594E-4; -0.15191393972344722; 0.06713807138226237; 0.011606066288695704; 1.52001953125; -1.98876953125; 0.938720703125;0
308;2245742218; 0.9999992899599225; -0.0011801856466332541; -8.639114801882454E-5; 1.4063449030798925E-4; -0.1500456185339299; 0.06304258889176857; 0.007684936156885265; 1.51953125; -1.985595703125; 0.936279296875;0
309;2245758885; 0.9999972770446771; -0.0022380778608371357; 1.738331045195024E-4; 6.377246835709284E-4; -0.16187944410573404; 0.05327627608168323; 0.011875970903364032; 1.517822265625; -1.98583984375; 0.935302734375;0
310;2245775552; 0.9999971460634597; -0.0020426433001921387; -5.84448272653776E-4; 0.001092654337105703; -0.16539786503716922; 0.049088351495079854; 0.009617952844771877; 1.51953125; -1.989501953125; 0.930908203125;0
311;2245792219; 0.9999977000462393; -0.0018896809268159204; -7.178400918962242E-4; 7.167383265173078E-4; -0.16568621962796798; 0.049964969276846564; 0.00971142467257827; 1.52294921875; -1.98974609375; 0.927734375;0
312;2245808886; 0.9999968067375821; -0.0020782321620263985; -0.0013722584560938585; 4.293861306381985E-4; -0.16022558651258495; 0.04951159343642393; 0.011449483681174601; 1.52001953125; -1.98974609375; 0.923095703125;0
313;2245825553; 0.9999976145211508; -0.0017917943512043566; -0.0011051749200339661; 5.82248578404554E-4; -0.15442473295341955; 0.049784354646941; 0.01264877089782103; 1.519775390625; -1.98974609375; 0.91845703125;0
314;2245842220; 0.9999984186043129; -0.0012762080957000946; -0.0011328700730439125; 5.006866957930067E-4; -0.14521495953998023; 0.04533675806037256; 0.010737186467238136; 1.519775390625; -1.988037109375; 0.912353515625;0
315;2245858887; 0.9999994284584311; -6.09307673095312E-4; 3.551415750923104E-4; 8.035554941947521E-4; -0.1374894547648247; 0.050659846659647734; 0.0051946930493121934; 1.52099609375; -1.9912109375; 0.9150390625;0
316;2245875554; 0.9999978137040189; 1.4132571515498848E-4; 0.0015664124613082172; 0.0013780298348153863; -0.14129871435085; 0.05079918634570009; 0.008568588114357387; 1.517578125; -1.990478515625; 0.915771484375;0
317;2245892221; 0.9999960027007626; 0.001164704742459978; 0.0020777606861097503; 0.0015234683752597402; -0.14480192575698003; 0.0476398497849888; 0.009040595635623825; 1.513916015625; -1.992431640625; 0.91796875;0
318;2245908888; 0.9999920256787496; 0.002469439638411071; 0.002792056858510514; 0.0014334801295748933; -0.14541845603337947; 0.050570566290939346; 0.012061962060096555; 1.509033203125; -1.994384765625; 0.924072265625;0
319;2245925555; 0.9999896168224689; 0.003149067225792869; 0.0030876417899079888; 0.001147210109918362; -0.1476853076312226; 0.05525743066268411; 0.014346652157685557; 1.50439453125; -1.995849609375; 0.93310546875;0
320;2245942222; 0.9999892441382718; 0.003496280720465414; 0.002976409527852886; 6.546871115681863E-4; -0.1493362721346668; 0.0584564959763901; 0.015861662797780507; 1.49951171875; -1.994873046875; 0.942138671875;0
321;2245958889; 0.9999912506186399; 0.0031542571826460863; 0.0027337619438165123; 2.7548761996676335E-4; -0.1517432843913157; 0.06176567047414486; 0.016303675666642155; 1.4990234375; -1.99609375; 0.947998046875;0
322;2245975556; 0.9999940101977016; 0.002653446684178995; 0.0022196900515303046; 1.0846883626586257E-4; -0.15516037690349094; 0.0625880842904337; 0.012885926071958684; 1.49609375; -1.998291015625; 0.9560546875;0
323;2245992223; 0.999998049916625; 0.001450063830418881; 0.0012316379009176955; -5.296658530155597E-4; -0.1545909895002499; 0.05904702584733596; 0.014171451551789022; 1.49755859375; -1.994873046875; 0.96044921875;0
324;2246008890; 0.9999992814432763; 2.0861489149114065E-5; 6.096731846923638E-4; -0.0010319769072377194; -0.15097798842465737; 0.058692731197477206; 0.011830280301898487; 1.49609375; -1.99462890625; 0.96142578125;0
325;2246025557; 0.9999983291278229; -6.732015111739695E-4; 6.057299197467642E-4; -0.0015879649089164396; -0.14684632551307275; 0.05559960247668059; 0.009577062415815553; 1.499267578125; -1.9951171875; 0.962646484375;0
326;2246042224; 0.99999722914482; -9.9985478198817E-4; 1.729545678367667E-4; -0.002124165674928291; -0.14658216373801325; 0.05468502424228381; 0.008618909287234064; 1.50146484375; -1.991943359375; 0.961181640625;0
327;2246058891; 0.999994439364233; -0.0018371165209036602; -2.668413582228649E-4; -0.0027703861087348684; -0.14710519190836105; 0.054712999342439846; 0.008741112782918422; 1.505126953125; -1.98974609375; 0.958740234375;0
328;2246075558; 0.9999910099753361; -0.0027266331309805866; -2.310655747608387E-4; -0.0032391432473106163; -0.15027795865952207; 0.0548424673677691; 0.006772016126521962; 1.5126953125; -1.988037109375; 0.956298828125;0
329;2246092225; 0.9999898440278673; -0.0031907283624822286; 6.7451328961389E-5; -0.0031822231154753915; -0.15677468085114582; 0.053829154975094815; 0.0038638946060704374; 1.521728515625; -1.98681640625; 0.952392578125;0
330;2246108892; 0.9999886504776543; -0.0036585293453702677; 3.0352367034150455E-5; -0.003051746654388121; -0.16290158534898685; 0.05625282635115594; 0.004264821036881037; 1.5234375; -1.98095703125; 0.946044921875;0
331;2246125559; 0.9999858926314082; -0.004415449175315972; -3.757324093202203E-4; -0.0029286809151201636; -0.16612496002746122; 0.059164805808409764; 0.004231710156367361; 1.532470703125; -1.977294921875; 0.940185546875;0
332;2246142226; 0.9999836385364689; -0.0050226545342141465; -6.089051900955296E-4; -0.0026692387049697675; -0.1654248683766578; 0.06257244439341716; 0.004756011364890551; 1.5400390625; -1.975830078125; 0.935302734375;0
333;2246158893; 0.9999812304343706; -0.005501371576359479; -3.755404268623169E-4; -0.0026707038639102736; -0.15570424415651785; 0.06508863208808928; 0.0035311793590644177; 1.548095703125; -1.97119140625; 0.925048828125;0
334;2246175560; 0.9999757709863014; -0.006266000922101361; 8.142902248296087E-4; -0.0029208909986371823; -0.1510976996238776; 0.060901057709610934; 0.001386155712705949; 1.556884765625; -1.96923828125; 0.91552734375;0
335;2246192227; 0.9999677831814288; -0.0073985016676270665; 0.00103669710688889; -0.0029359889989020176; -0.15406533773886807; 0.058338802807729045; -0.0017386456754715394; 1.56201171875; -1.966796875; 0.906982421875;0
336;2246208894; 0.9999710605993025; -0.007150483908153607; 0.0020179988216511018; -0.0016359170336933126; -0.15428270542104308; 0.05128927954219069; 0.0033392923898424437; 1.567626953125; -1.963134765625; 0.900390625;0
337;2246225561; 0.9999715811189399; -0.00713922651989872; 0.0023594706968098067; -5.489054707203956E-4; -0.1534743686044986; 0.05255685168415284; -1.735933708525662E-4; 1.57421875; -1.9619140625; 0.890625;0
338;2246242228; 0.99997095743309; -0.0072812974054960455; 0.002250367372929302; -5.3339750668734975E-5; -0.15849836247740282; 0.057349613200583835; 0.004385722318773664; 1.574951171875; -1.962158203125; 0.886474609375;0
339;2246258895; 0.999970788061017; -0.007588028542184017; 9.174721727864406E-4; -5.5608307169885414E-5; -0.15760432296016438; 0.06140989581793876; 4.52418424272287E-4; 1.57568359375; -1.95947265625; 0.87841796875;0
340;2246275562; 0.999983191778785; -0.005551552599729184; 0.001540259588739393; -6.51171287409158E-4; -0.14654206820525567; 0.03776002056611033; 0.01657313282003754; 1.580078125; -1.95947265625; 0.8720703125;0
341;2246292229; 0.999990008974398; -0.002776178624402492; 0.0034890707983373515; -3.1807010692352927E-4; -0.14204153476268383; 0.019767785591445913; 0.005878630636580022; 1.583251953125; -1.95703125; 0.866943359375;0
342;2246308896; 0.9999832111887237; -0.002279926250850453; 0.005179022143268625; 0.0012478007127013635; -0.15137135099277568; 0.040922566631331016; -0.005157779554677434; 1.579833984375; -1.95751953125; 0.8720703125;0
343;2246325563; 0.9999795503680204; -0.004535626659098527; 0.0035370882710111244; 0.002795700832351589; -0.1613427199360861; 0.08222318390193925; -0.0018980790567546015; 1.57763671875; -1.959228515625; 0.871337890625;0
344;2246342230; 0.9999829037059169; -0.0048943973860466755; 0.002410705136497771; 0.002103727847252046; -0.14613152904807658; 0.058984131806672; 0.02122300145366445; 1.576904296875; -1.962158203125; 0.86865234375;0
345;2246358897; 0.9999822695926037; -0.004158893713401723; 0.004256871093587383; -2.077305908601557E-4; -0.1406772559041018; 0.026648234203437503; 0.022737198632532773; 1.57763671875; -1.961669921875; 0.864501953125;0
346;2246375564; 0.9999823329843207; -0.0035858558348419445; 0.004657545232147551; -8.846635390854507E-4; -0.17621072426660364; 0.04907442157128049; 0.017245534176651953; 1.57861328125; -1.9619140625; 0.8671875;0
347;2246392231; 0.9999857553945751; -0.004336631626961046; 0.0022784376665437455; 0.00211928192380112; -0.16975054619667596; 0.10352253360000567; -0.019922359177218706; 1.578369140625; -1.962158203125; 0.865966796875;0
348;2246408898; 0.9999210877709124; -0.011782665928013442; 0.00363697999170122; 0.0023998731641750592; -0.14485473619173284; 0.12118746477815176; -0.02792912945597234; 1.579833984375; -1.962158203125; 0.85546875;0
349;2246425565; 0.9999194375439477; -0.011800759962277724; 0.004349558165770803; 0.0017151763379522624; -0.14342493986500787; 0.0503093079657047; 0.007200400778241266; 1.57958984375; -1.96142578125; 0.841064453125;0
350;2246442232; 0.9999534601044248; -0.008656581938440377; 0.004192009213425219; 7.538388993983958E-4; -0.14338814915629827; 0.020277933726320682; 0.0069750726090240835; 1.58154296875; -1.960693359375; 0.83447265625;0
351;2246458899; 0.9999637509015582; -0.006863987105663744; 0.005025965488441892; 3.496209500956083E-4; -0.1472360425014408; 0.03755527346610588; -0.01435238983812372; 1.582763671875; -1.95947265625; 0.829833984375;0
352;2246475566; 0.9999635965353222; -0.007397133940304418; 0.004252554829849293; 6.157135420647997E-5; -0.15111380875034572; 0.0415268478407823; -0.011479627087112755; 1.586181640625; -1.960205078125; 0.82568359375;0
353;2246492233; 0.9999668816169507; -0.0067325919920115385; 0.004572381075761092; 3.472230435036528E-5; -0.15706436652780909; 0.025767896287855738; -0.004543321660342169; 1.587158203125; -1.95556640625; 0.819580078125;0
354;2246508900; 0.999988085022238; -0.002578630251241859; 0.0040994081074383635; 6.126440675026656E-4; -0.16231077728358265; 0.011559693880612353; 0.007999401228886344; 1.587158203125; -1.956298828125; 0.821533203125;0
355;2246525567; 0.9999894229096964; 9.602147670181582E-4; 0.004486537639843067; 3.20992741002002E-4; -0.1512810906529396; 0.022292381911115416; 0.0029852284390542057; 1.586181640625; -1.956787109375; 0.82666015625;0
356;2246542234; 0.9999850331283766; 2.8593108739038975E-4; 0.005425464752826959; -6.450541594631432E-4; -0.15060095681929392; 0.054026671283783176; -0.01038194835692656; 1.5859375; -1.958251953125; 0.833740234375;0
357;2246558901; 0.9999825652466676; -0.0023376436733346107; 0.0053909226512915825; -5.853013910648853E-4; -0.15641250985350827; 0.0556704287073652; -0.007931038860177549; 1.58642578125; -1.95556640625; 0.837646484375;0
358;2246575568; 0.9999858909227828; -0.001314664469471094; 0.005138652810944251; 2.895858935102469E-4; -0.16435402164659102; 0.036687852243507846; 0.007705341413662862; 1.589111328125; -1.954345703125; 0.842529296875;0
359;2246592235; 0.9999903724636934; 5.468017782623014E-4; 0.004353302057591422; -6.891251219742768E-5; -0.165283946830308; 0.04225786373406495; 0.011558266692171294; 1.585205078125; -1.956787109375; 0.849609375;0
360;2246608902; 0.9999855686926638; -9.78066519177312E-4; 0.005051404862045862; -0.0015456717677510556; -0.15468129937575723; 0.06091489839296289; -0.005406562265088462; 1.587158203125; -1.956787109375; 0.854736328125;0
361;2246625569; 0.999979064319897; -0.002608543426992127; 0.0054730498957852175; -0.002261005955563278; -0.15811648398457154; 0.06161414466751389; -0.014668248493950084; 1.589599609375; -1.95361328125; 0.860107421875;0
362;2246642236; 0.9999800113409599; -0.0037516622600222704; 0.004400093340909781; -0.0025575627874533935; -0.16191562520582625; 0.04270720257167667; -0.008726054586077957; 1.594970703125; -1.948486328125; 0.861572265625;0
363;2246658903; 0.9999826698044441; -0.003134698970828159; 0.0038482360517306667; -0.003166201577372463; -0.1600480087214398; 0.019866573189564782; -6.05912256230471E-4; 1.5966796875; -1.94580078125; 0.86181640625;0
364;2246675570; 0.9999879799005185; -0.0011194102525483585; 0.0034533762210067907; -0.0032956285960275555; -0.15231192088777035; 0.011922367021775902; -0.008003727564227493; 1.6044921875; -1.94287109375; 0.864013671875;0
365;2246692237; 0.9999881564880049; 9.592936292030507E-4; 0.0034283033093419346; -0.003318640666534534; -0.15850773127401552; 0.009850040943105834; -8.770150445041071E-4; 1.60791015625; -1.9404296875; 0.870361328125;0
366;2246708904; 0.9999884015593601; 0.0026943311691393634; 0.002057507582400309; -0.00342110930187689; -0.15993355501944773; 0.017841316440789845; -0.0028518614789728065; 1.61328125; -1.93701171875; 0.875732421875;0
367;2246725571; 0.9999874894397082; 0.0035021434160352194; 0.0016830726066176668; -0.003150114627098966; -0.15667819037219186; 0.03477733432711287; -0.009563855312620852; 1.613525390625; -1.93408203125; 0.882568359375;0
368;2246742238; 0.9999914859533885; 0.0030008591419318775; 0.001353489403177491; -0.0024881582706487992; -0.1573633356623018; 0.04274344165223601; -0.012458738084893908; 1.617919921875; -1.929931640625; 0.892822265625;0
369;2246758905; 0.9999924080994701; 0.0035131530931400146; 2.765879713830105E-4; -0.0016628282716232292; -0.16110248361257692; 0.03060748793740273; -0.004127237061588494; 1.614990234375; -1.930419921875; 0.8984375;0
370;2246775572; 0.9999919843666554; 0.0037351688676530437; -7.212481987246834E-4; -0.0012488062318698478; -0.15630519960371547; 0.033575375861679906; -0.00660069958918184; 1.62109375; -1.927978515625; 0.902099609375;0
371;2246792239; 0.9999957296311568; 0.00262976335265086; -0.001065398239564211; -6.999933932412273E-4; -0.1593219771169271; 0.05516888476149425; -0.011523121352984621; 1.618408203125; -1.92626953125; 0.902587890625;0
372;2246808906; 0.9999970442272904; 0.0016797678740969602; -0.0017226774461960445; 3.4971272242356743E-4; -0.16660447565120098; 0.06769686734009428; -0.014781179319417845; 1.624267578125; -1.93017578125; 0.90380859375;0
373;2246825573; 0.9999952035434403; 0.0018261248914756; -0.0017091136031153337; 0.0018267700144711243; -0.1698221378204132; 0.06989763401670676; -0.019186608381662536; 1.618896484375; -1.92919921875; 0.903564453125;0
374;2246842240; 0.999990301029952; 0.0018747066961517511; -0.0021933904241669138; 0.0033275154810246677; -0.16973440761600567; 0.053332060210368584; -0.016108050878638036; 1.612060546875; -1.9326171875; 0.900634765625;0
375;2246858907; 0.9999853955532771; 0.0023790154585424106; -0.0026057909831136293; 0.004093753651135402; -0.1674730984990718; 0.044068199119604815; -0.00821349513531986; 1.60888671875; -1.9375; 0.90185546875;0
376;2246875574; 0.9999795296238181; 0.0036681511793207056; -0.002748995052238815; 0.004464081815553356; -0.15972570482113202; 0.04682202154012055; -0.013986304542043134; 1.59912109375; -1.942626953125; 0.906005859375;0
377;2246892241; 0.9999747095364819; 0.003582053763082904; -0.0025105016625040777; 0.005607723216194017; -0.15727416930821236; 0.04015601202170566; -0.015599345963320094; 1.593017578125; -1.948974609375; 0.9052734375;0
378;2246908908; 0.9999662955786806; 0.003974952348521854; -0.003591217620581622; 0.006221785634316079; -0.15959181290974775; 0.021326458505233008; -0.010770737665360776; 1.58251953125; -1.955322265625; 0.907958984375;0
379;2246925575; 0.9999624152052238; 0.00471146540815115; -0.0042508153532895285; 0.005907693244890711; -0.1486863679712704; 0.004105717022343906; -0.005065192049515915; 1.56982421875; -1.962158203125; 0.90869140625;0
380;2246942242; 0.9999682948067161; 0.005642858831976821; -0.0039022732306950585; 0.004042250509793677; -0.14783836269147974; 0.006709742110405158; -0.007847070809415161; 1.562255859375; -1.966796875; 0.912109375;0
381;2246958909; 0.9999757105884244; 0.004921551492186899; -0.004573202345940455; 0.001855366375840162; -0.15187616720311076; 0.02798147352367978; -0.007746531603232628; 1.558837890625; -1.96630859375; 0.911376953125;0
382;2246975576; 0.9999794269400573; 0.0035527731717963917; -0.00532641169763537; 3.90944819464778E-4; -0.15641123605528476; 0.04544562073908433; -0.005054666560604548; 1.5576171875; -1.968994140625; 0.909912109375;0
383;2246992243; 0.9999736906049413; 0.004764523479025978; -0.0054506860567085655; 4.554508339186803E-4; -0.16107788110218918; 0.046490479587873015; -0.0036903574827496927; 1.55517578125; -1.9697265625; 0.911865234375;0
384;2247008910; 0.9999708279788576; 0.0048972758422623774; -0.00584842976513747; 3.946515995294497E-4; -0.16320755584018046; 0.05850059747560626; -0.014498094658088375; 1.55517578125; -1.971923828125; 0.908447265625;0
385;2247025577; 0.9999757712426047; 0.004056043560239891; -0.005647876172432412; 3.270063243528965E-4; -0.16050130622282757; 0.07487529285017144; -0.014743346244485991; 1.552978515625; -1.971435546875; 0.90576171875;0
386;2247042244; 0.9999813869131975; 0.00429527388166645; -0.004317298895658129; 3.706476562505001E-4; -0.15613792690782968; 0.07619500174819635; -0.009417783682665569; 1.5537109375; -1.970947265625; 0.9091796875;0
387;2247058911; 0.9999842369560852; 0.004523700565418065; -0.003325885191801187; 2.1453241668079052E-5; -0.15809659278980226; 0.06918801320602132; -0.007629792839896548; 1.552001953125; -1.969970703125; 0.911865234375;0
388;2247075578; 0.9999850226933413; 0.004253226080897038; -0.003382737577567477; -6.492637243116772E-4; -0.15868637760139426; 0.06896591507976675; -0.00875690618828362; 1.552978515625; -1.973388671875; 0.91357421875;0
389;2247092245; 0.9999846426737689; 0.003961082638528096; -0.003838160181936223; -5.410798124863004E-4; -0.15709991355059927; 0.07087354289624545; -0.007325082947253994; 1.552978515625; -1.97216796875; 0.9150390625;0
390;2247108912; 0.9999897631091333; 0.002236396823657519; -0.003918851306638411; -3.388371628943454E-4; -0.15203204006544174; 0.0787249956920539; -0.01107042730270769; 1.552490234375; -1.9697265625; 0.914306640625;0
391;2247125579; 0.9999918874669903; 0.0013959345984101146; -0.0037727773840432887; 2.061979963347005E-4; -0.15031975454134963; 0.06739496692289877; -0.0018656536699950127; 1.552734375; -1.97021484375; 0.908203125;0
392;2247142246; 0.9999913138618803; 0.0012400776772841376; -0.0039576692149228135; 4.138387727141146E-4; -0.1530916517061021; 0.05779892438184879; -0.0025242951841610226; 1.55419921875; -1.97119140625; 0.907470703125;0
393;2247158913; 0.9999883229232253; -1.832778948503977E-4; -0.004828782682763669; 5.730803759912418E-5; -0.15279555273204623; 0.056925110854069906; -0.0037848800994697788; 1.55517578125; -1.97119140625; 0.902587890625;0
394;2247175580; 0.9999875112271496; 4.0327601131615043E-4; -0.004980281296616097; 1.075006815990931E-4; -0.15286152551009766; 0.04349286838537872; 0.0071461394693735705; 1.556640625; -1.969970703125; 0.8974609375;0
395;2247192247; 0.9999867746542782; 8.832160178183779E-4; -0.005061833484703669; -2.1974478975089753E-4; -0.15245339622396223; 0.04101519922149874; 8.355940434104578E-4; 1.554931640625; -1.971435546875; 0.89306640625;0
396;2247208914; 0.9999862166780393; 0.002545507965628066; -0.004591701923281442; -5.582639187790006E-5; -0.15551934998226896; 0.03368894358190329; 0.00700224940265127; 1.558837890625; -1.97021484375; 0.888916015625;0
397;2247225581; 0.9999832743338755; 0.00355474678832296; -0.0045572065343796875; 2.1609344046769066E-4; -0.15865228330592213; 0.040403650481976056; 0.0015387263012488425; 1.5595703125; -1.9697265625; 0.887939453125;0
398;2247242248; 0.9999836833634412; 0.003787778640958986; -0.004226756855346043; 6.482795213872405E-4; -0.1523457697385026; 0.04835319903208804; -1.4030227702360037E-4; 1.553466796875; -1.969970703125; 0.8876953125;0
399;2247258915; 0.9999888077841085; 0.003174588116712826; -0.0034084637399963012; 8.298624822972168E-4; -0.15203299379476742; 0.05562057109656457; 0.0016558582383626175; 1.5537109375; -1.972412109375; 0.8876953125;0
400;2247275582; 0.9999890882025547; 0.0025969247090236736; -0.0037925587800060755; 8.342396413018038E-4; -0.15459151319062564; 0.05936473922106427; 0.005422670850766368; 1.552978515625; -1.972900390625; 0.888427734375;0
401;2247292249; 0.9999909009156625; 0.002646392750939641; -0.003200609180227701; 9.750857218444043E-4; -0.15437288885077102; 0.05140764893311984; 0.008805513810891761; 1.55029296875; -1.975341796875; 0.88720703125;0
402;2247308916; 0.999995114413446; 0.0011841209742495112; -0.0028228187601572895; 6.330094823637222E-4; -0.15543500704010746; 0.05767141287071882; -0.0018588175507105852; 1.5498046875; -1.976806640625; 0.886962890625;0
403;2247325583; 0.9999975282992486; -1.4321917373633086E-5; -0.0021984890407521916; -3.314154699979866E-4; -0.15187129626027027; 0.06137998976058995; 0.0010237363782830446; 1.551513671875; -1.975341796875; 0.883544921875;0
404;2247342250; 0.9999991652875003; 1.7012973101004913E-4; -0.0012700948636213823; -1.65345742443479E-4; -0.1552917487040448; 0.05729374547349248; 0.009229189232045909; 1.5498046875; -1.974609375; 0.881103515625;0
405;2247358917; 0.9999993497713731; -5.241705548420239E-4; -0.0010115070904775647; 5.0551620974337304E-5; -0.1518936796657233; 0.057516860974650315; 0.005435952607803213; 1.55029296875; -1.9765625; 0.88134765625;0
406;2247375584; 0.9999988746102086; -0.0010932906595237935; -0.001017389527198251; -1.4287197070050883E-4; -0.15234306917600146; 0.05844922499685699; 0.006659076886281239; 1.552734375; -1.97509765625; 0.879150390625;0
407;2247392251; 0.9999983293172092; -0.0013532706565641678; -0.0012216798430954997; -1.3236193341964467E-4; -0.15391565134988355; 0.05452675672793786; 0.006958372038813592; 1.552978515625; -1.974853515625; 0.87451171875;0
408;2247408918; 0.9999968621583698; -0.0010906902548745573; -0.0022416144672035014; -2.4745254652575044E-4; -0.15859380866173747; 0.04745910061324349; 0.012145563086073582; 1.551513671875; -1.97216796875; 0.871337890625;0
409;2247425585; 0.999995928764689; -3.9264371108665985E-4; -0.00276127967929983; -6.030087031300703E-4; -0.15214207234494312; 0.049174884215028976; 0.006787494656190066; 1.558349609375; -1.973388671875; 0.865234375;0
410;2247442252; 0.9999974441164305; -4.133558772163176E-4; -0.002176439621053822; -4.516725596542259E-4; -0.15175799843303758; 0.05097450062963606; 0.009029251780964302; 1.559814453125; -1.971435546875; 0.862060546875;0
411;2247458919; 0.9999976246786334; -4.200684514847619E-4; -0.0020834785510036595; 4.8300798610684264E-4; -0.15077882643634508; 0.05236634687742415; 0.010614885419965171; 1.5625; -1.97216796875; 0.859375;0
412;2247475586; 0.9999974611697662; -8.272368643229694E-4; -0.0013190807244456845; 0.0016289135136043353; -0.14589462674062348; 0.05320532046954839; 0.010352292898823931; 1.5595703125; -1.97265625; 0.857177734375;0
413;2247492253; 0.9999967637004453; -0.0013294985648443503; -1.1224490921003805E-4; 0.0021662001944259273; -0.14082159233909797; 0.05039805821755888; 0.010580855507728481; 1.559326171875; -1.973388671875; 0.8544921875;0
414;2247508920; 0.9999960714027467; -0.0010738151896107634; 0.0016727339312057334; 0.0019763757757114697; -0.1383908692145258; 0.04571635221793628; 0.010828864445870827; 1.553466796875; -1.97412109375; 0.853515625;0
415;2247525587; 0.999995210999569; -1.9666885807652357E-4; 0.002615964086555331; 0.0016419595566059544; -0.1421175851795912; 0.04191268521322319; 0.01585093874818154; 1.55078125; -1.97705078125; 0.85693359375;0
416;2247542254; 0.9999940326578776; 0.0011015232667995478; 0.0028969754319694845; 0.0015260499581575826; -0.14671549995866476; 0.04049981080400589; 0.016112694433854945; 1.546142578125; -1.978515625; 0.85986328125;0
417;2247558921; 0.9999924442519257; 0.0023586533790458247; 0.002793707375432386; 0.0013203758545000113; -0.15367354616001774; 0.04273251890440075; 0.015535982027381125; 1.54150390625; -1.98193359375; 0.869384765625;0
418;2247575588; 0.9999925022064482; 0.002772913105714883; 0.002516323494438783; 9.872182464281676E-4; -0.15862875736879523; 0.048835576416829146; 0.01654772092338443; 1.54052734375; -1.983642578125; 0.874755859375;0
419;2247592255; 0.9999951307292556; 0.0021282048243083107; 0.002206795985063265; 5.825062103568813E-4; -0.15654654909469912; 0.058687761978098406; 0.01680867714420943; 1.53466796875; -1.9873046875; 0.880615234375;0
420;2247608922; 0.9999989522712451; 3.6314803584946986E-4; 0.001398920912743962; 8.124159032740774E-5; -0.15481913127255595; 0.06172120066974217; 0.019812617940430464; 1.536376953125; -1.985107421875; 0.8828125;0
421;2247625589; 0.9999983527006711; -0.0016334752433064814; 4.683071575441039E-4; -6.379992005816627E-4; -0.15262911714347352; 0.057452989167208646; 0.019300032838779388; 1.534912109375; -1.983642578125; 0.883056640625;0
422;2247642256; 0.9999936777693402; -0.0031926378965561053; -1.0756837570191637E-4; -0.0015620222965666009; -0.15079708173942788; 0.05094702303030353; 0.01597347871070832; 1.5380859375; -1.979736328125; 0.87841796875;0
423;2247658923; 0.9999892358730134; -0.003932534756861464; -2.479416255480455E-4; -0.0024498639642306923; -0.15182428415031735; 0.04585078045720591; 0.01396029633612849; 1.544189453125; -1.979248046875; 0.873779296875;0
424;2247675590; 0.9999870498663536; -0.003995112562998865; -4.3930639916994757E-4; -0.003121888063897793; -0.1537684377691676; 0.045891293607362466; 0.012459506743217462; 1.5517578125; -1.9765625; 0.86572265625;0
425;2247692257; 0.9999893961588959; -0.0034192584230858247; -3.9715560495666435E-4; -0.003059168028808457; -0.1561289778431049; 0.04636296027694748; 0.012751086614134656; 1.557861328125; -1.973388671875; 0.86279296875;0
426;2247708924; 0.9999933473557904; -0.0025189015337947485; -2.3754343034172734E-4; -0.002627537315292139; -0.15482065806286596; 0.04500447067529236; 0.015339527830834067; 1.56201171875; -1.9716796875; 0.859130859375;0
427;2247725591; 0.9999958211444284; -0.00181929446096335; -3.735730932094284E-4; -0.002215469360810352; -0.15400955603634586; 0.04228821744728979; 0.015518853314575452; 1.56787109375; -1.96630859375; 0.855224609375;0
428;2247742258; 0.9999968112276253; -0.0013149790199149247; -2.935086841173024E-4; -0.002135934786146043; -0.1533890329431278; 0.0417350704250866; 0.012655561886751019; 1.5703125; -1.96337890625; 0.85107421875;0
429;2247758925; 0.9999965498427088; -7.968256216015074E-4; -2.0432995656945174E-4; -0.002494718596645407; -0.1536588893653546; 0.04602001641034309; 0.01087125591115251; 1.57666015625; -1.961669921875; 0.85009765625;0
430;2247775592; 0.9999955537000922; -8.569056984937123E-4; 0.0011006906813538083; -0.0026356731007433076; -0.15089825664071513; 0.06297163789412748; 0.0018936559217798167; 1.580810546875; -1.960693359375; 0.85205078125;0
431;2247792259; 0.9999959329908951; -0.0014306642352742288; 0.0016333403472513915; -0.0018491621954989659; -0.1613923672271719; 0.06273942112371936; 0.013761450433876622; 1.585693359375; -1.95751953125; 0.85205078125;0
432;2247808926; 0.9999919496546348; -0.0031995224020226337; -3.578711577233163E-4; -0.002394913475641025; -0.159855013574937; 0.056664515453939024; 0.015605099250972001; 1.590576171875; -1.951416015625; 0.8466796875;0
433;2247825593; 0.9999867109354152; -0.003833011586634155; -8.428969969874606E-4; -0.0033429776247381198; -0.15452751118497537; 0.04363488136268737; 0.008771537933056659; 1.594970703125; -1.949951171875; 0.8408203125;0
434;2247842260; 0.9999823834028378; -0.0041108697197172195; -1.967801999047947E-4; -0.004277255157253579; -0.1468709488601599; 0.04956186064708116; -0.002185385034496225; 1.602294921875; -1.9453125; 0.836181640625;0
435;2247858927; 0.9999805622337619; -0.0047097674900724446; 0.002076511629774722; -0.0035187134425055393; -0.1512983317783157; 0.06442854620666127; 0.0017634046068658541; 1.610107421875; -1.940185546875; 0.83154296875;0
436;2247875594; 0.9999839841660734; -0.0049986498503285515; 0.0012653618563131105; -0.0023331888892084707; -0.16332264088081433; 0.059076245682129526; 0.02032184449415135; 1.616455078125; -1.937744140625; 0.828857421875;0
437;2247892261; 0.9999854099452107; -0.005075271930323949; 2.2552724748217678E-4; -0.0018359327337260647; -0.15677890544878612; 0.04610763060681595; 0.01612164004700669; 1.620361328125; -1.933349609375; 0.82177734375;0
438;2247908928; 0.999988460077371; -0.004626255062043144; 9.303779127095292E-4; -9.010400261206808E-4; -0.15541899352957794; 0.03798965644816061; 0.007299845235752674; 1.626708984375; -1.931396484375; 0.81689453125;0
439;2247925595; 0.9999912507427505; -0.003755074521008525; 0.0018080144896169689; 3.5907784178995655E-4; -0.15562516130714207; 0.043710116438031445; 0.002840733989795799; 1.62841796875; -1.929443359375; 0.81103515625;0
440;2247942262; 0.9999873865828385; -0.004243237901046373; 0.00266422359349329; 3.5145409914671966E-4; -0.1467376325926694; 0.05842521911566889; 0.004192728364344804; 1.626708984375; -1.928955078125; 0.808349609375;0
441;2247958929; 0.9999894879849714; -0.0033496579284346545; 0.0028842936320053053; 0.0012184258539152395; -0.1539215911740166; 0.0537429592991553; 0.022427741174481656; 1.630126953125; -1.931640625; 0.80810546875;0
442;2247975596; 0.9999875030760832; -0.0037197158371791023; 0.002334571501882044; 0.0023889708356878425; -0.15723986513110397; 0.04467125753851085; 0.016827529645442853; 1.62841796875; -1.932373046875; 0.807373046875;0
443;2247992263; 0.9999832216345819; -0.0038041473354995525; 0.0024374854698293873; 0.0036254071436032102; -0.15940927492367762; 0.045702435365239026; 0.008431879396582128; 1.62255859375; -1.9326171875; 0.804443359375;0
444;2248008930; 0.9999694321166765; -0.006116446747279652; 0.0024382304858889124; 0.004216508453321277; -0.15448936000871602; 0.0846922066327528; -0.00531547615375868; 1.618408203125; -1.93603515625; 0.798583984375;0
445;2248025597; 0.9999464847026397; -0.008497696284203937; 0.0037014810944890897; 0.004595206894388527; -0.14562994588854608; 0.08127942993505852; 4.909528292785029E-4; 1.6162109375; -1.939453125; 0.792724609375;0
446;2248042264; 0.9999620641777389; -0.004960015959789954; 0.00503269728799416; 0.005093172398557888; -0.1540573594358105; 0.03353254587145599; 0.023269880765161934; 1.610107421875; -1.94287109375; 0.789306640625;0
447;2248058931; 0.9999704952449547; -0.00236843789529545; 0.005795889247666623; 0.004450484167464131; -0.15684362329554907; 0.025487995159771466; -0.002396712295836094; 1.604736328125; -1.94775390625; 0.79345703125;0
448;2248075598; 0.9999702629016234; -0.0041483839907320574; 0.005061666638901217; 0.004079675668489879; -0.15359847714179523; 0.06339249684299855; -0.024923329307489462; 1.597900390625; -1.950439453125; 0.796142578125;0
449;2248092265; 0.9999374648943242; -0.0088005357603671; 0.005540913945533618; 0.004112802413287876; -0.13904849709460082; 0.07958325612556656; -0.024995097141456268; 1.595458984375; -1.949951171875; 0.790283203125;0
450;2248108932; 0.99989971237835; -0.011599123210881662; 0.0072808990124427495; 0.003607497193692688; -0.13899830506779837; 0.07684949258271805; -0.01854400318096638; 1.5947265625; -1.95556640625; 0.7841796875;0
451;2248125599; 0.9998783232318229; -0.012612602458481337; 0.008430350700107172; 0.003631828384702496; -0.1479869802064659; 0.06191803767754375; -0.008101739383027388; 1.594482421875; -1.95263671875; 0.7724609375;0
452;2248142266; 0.9998931002894949; -0.011184561123784187; 0.008728532898063137; 0.003536424660308346; -0.1580928084990968; 0.03323317481257423; 0.005717575781543218; 1.59228515625; -1.950439453125; 0.76708984375;0
453;2248158933; 0.9999169809387002; -0.009035729852953145; 0.008835146116885254; 0.0025153547568553263; -0.16356603547528065; 0.004849201817564378; 0.0126724941078004; 1.593994140625; -1.9541015625; 0.76611328125;0
454;2248175600; 0.9999487080835683; -0.004589893591029626; 0.00901650276797829; 4.65571327387726E-4; -0.1668156532674385; -0.018990158609473458; 0.015629504111896723; 1.591064453125; -1.952880859375; 0.767333984375;0
455;2248192267; 0.9999470595090251; 0.0011364136510926826; 0.009860731110400036; -0.00271159090504769; -0.1719319932081675; -0.03120767512836349; 0.018414680413843254; 1.59765625; -1.952392578125; 0.779541015625;0
456;2248208934; 0.999923365157584; 0.005272005884014108; 0.008897824328133729; -0.006804299237807121; -0.18566668831588914; -0.018795976420891827; 0.021265240377318646; 1.604248046875; -1.947265625; 0.80126953125;0
457;2248225601; 0.999926335445358; 0.004658493404704062; 0.005496601163957837; -0.00976777854274208; -0.18554912701522608; 0.007831285310360224; 0.0321160845256528; 1.612060546875; -1.942138671875; 0.822021484375;0
458;2248242268; 0.9999406054539928; 6.908382989480044E-4; 0.0022832311693857803; -0.010634620922919835; -0.17489850569940518; 0.05603462159281603; 0.0278946549701285; 1.62939453125; -1.931640625; 0.825439453125;0
459;2248258935; 0.9999556141078659; -0.001559011729818538; 0.0014649033216065784; -0.009175693698321942; -0.1530269647552093; 0.07829554040225108; -0.009767926714111155; 1.641845703125; -1.91845703125; 0.8271484375;0
460;2248275602; 0.999952934387047; -0.0049668083566758725; 0.0016456396144108462; -0.008170171096225531; -0.1483588943744145; 0.05910521469060154; -0.027009431008880862; 1.656494140625; -1.909423828125; 0.819580078125;0
461;2248292269; 0.9999556018733816; -0.005991038057715226; 9.777726909169365E-4; -0.007207336928369557; -0.1634740354692055; 0.0332146344789467; -0.013270448619930375; 1.668701171875; -1.899169921875; 0.81787109375;0
462;2248308936; 0.9999809937822967; -0.0024395442231040787; 2.2227324413699737E-4; -0.005657852309725819; -0.168489867699778; 0.021844511440851075; -0.008520170544789697; 1.67724609375; -1.890625; 0.811279296875;0
463;2248325603; 0.9999906601904175; 0.002443250895241611; 6.777203540751926E-4; -0.0035001074437067685; -0.1609034505627808; 0.0162083215614624; -0.01025014825959827; 1.686279296875; -1.886474609375; 0.814453125;0
464;2248342270; 0.9999772107668093; 0.006467742573917329; 8.974040896580217E-4; -0.0017149107643255057; -0.16112506040528296; 0.01925008320526827; -0.010343748379400886; 1.685546875; -1.884033203125; 0.82275390625;0
465;2248358937; 0.9999687913901079; 0.00785513443974653; 5.60481054854553E-4; -6.316405050365016E-4; -0.16060285920320083; 0.03167009343764677; -0.010371554388086263; 1.68505859375; -1.884033203125; 0.833740234375;0
466;2248375604; 0.999974529602933; 0.007136667727654783; -8.887657301595576E-5; 1.4835520891154363E-5; -0.16229528847888414; 0.04662946581907747; -0.009251527997449462; 1.681884765625; -1.889892578125; 0.8486328125;0
467;2248392271; 0.9999860405454136; 0.00516930049787756; -0.0010670868922662143; 2.4160346312102068E-4; -0.16646666808749844; 0.049563560853782045; -0.007891008017024727; 1.6796875; -1.886962890625; 0.851318359375;0
468;2248408938; 0.9999903113895872; 0.0034500167909758406; -0.0027134164359561984; 3.34488181518211E-4; -0.1710366394380418; 0.03726354943255225; -0.004558875991157781; 1.67919921875; -1.888916015625; 0.85302734375;0
469;2248425605; 0.9999836279035675; 0.0038193759528756255; -0.004208677460240895; 6.658274443369084E-4; -0.16548558102201164; 0.015270670853678926; -0.005847873190781509; 1.679443359375; -1.890869140625; 0.85107421875;0
470;2248442272; 0.9999734113189888; 0.004808876987463295; -0.005396475724061337; 9.640575416149932E-4; -0.16006815886390563; -1.6035820587080932E-4; -0.00424161391836609; 1.672119140625; -1.892333984375; 0.849365234375;0
471;2248458939; 0.9999630571137855; 0.006117600796246819; -0.005954841492650646; 9.996153996880699E-4; -0.15512029132122565; -0.0027634147031563878; -0.0034224125661255073; 1.671630859375; -1.892822265625; 0.8505859375;0
472;2248475606; 0.9999573309214622; 0.007552798296151797; -0.005277115253875268; 6.660547427969621E-4; -0.15643253306328248; 0.005616086628843171; -0.004480060955228463; 1.66796875; -1.894775390625; 0.850830078125;0
473;2248492273; 0.9999532653574271; 0.008474051333537597; -0.004642180838009366; 3.281951901321634E-4; -0.16396654363170055; 0.019622735342502796; -0.007585594998546132; 1.665771484375; -1.8984375; 0.85302734375;0
474;2248508940; 0.9999502874675719; 0.00883002496634272; -0.004628471479910663; 1.7465501414548612E-4; -0.16733907430552195; 0.02825539481979413; -0.007870268678553213; 1.6640625; -1.8984375; 0.8623046875;0
475;2248525607; 0.9999490522927579; 0.008980418878621999; -0.004609196865803079; -1.41362052260563E-5; -0.16568030607756135; 0.03006707460445989; -0.007531866027714877; 1.662841796875; -1.8994140625; 0.86572265625;0
476;2248542274; 0.9999547317547725; 0.00854105393722876; -0.004177597016519694; -3.6403578128257896E-4; -0.16544815518924533; 0.03351926353864057; -0.009363500419256852; 1.66064453125; -1.9033203125; 0.8701171875;0
477;2248558941; 0.999961151826319; 0.008026136294751407; -0.003599010044775919; -5.68419789678365E-4; -0.16603510667479102; 0.03825790586129405; -0.01261161596338857; 1.659423828125; -1.899658203125; 0.875244140625;0
478;2248575608; 0.9999669668822496; 0.007490122407176031; -0.0030351479495728533; -8.666530815567008E-4; -0.16457735780002963; 0.044459382116339055; -0.011955986460235539; 1.65771484375; -1.9033203125; 0.880859375;0
479;2248592275; 0.9999762027137986; 0.006235597777864116; -0.00246459556188855; -0.0016239135324955802; -0.16171146148007573; 0.04824650436752456; -0.009068299067573237; 1.656494140625; -1.903076171875; 0.88916015625;0
480;2248608942; 0.9999831419987004; 0.00464290019130667; -0.001928100704439856; -0.002905447279516915; -0.1583910470661154; 0.04934249953618954; -0.005874417842565215; 1.657958984375; -1.8974609375; 0.88916015625;0
481;2248625609; 0.9999859835686907; 0.002480786548638092; -0.00223381670570702; -0.0041095531610496625; -0.1584101439457646; 0.04938833532519925; -0.005039431945059694; 1.6630859375; -1.894287109375; 0.8896484375;0
482;2248642276; 0.9999850582275748; 0.0012699078548444875; -0.002856912043216545; -0.004484273543325978; -0.1588397643504244; 0.043811554555157374; 0.0016177477312627874; 1.670166015625; -1.8896484375; 0.8876953125;0
483;2248658943; 0.9999854941916723; 0.0015450701327535121; -0.003532088324996172; -0.003761451393577087; -0.16434850700811351; 0.036943868214533604; 0.004959703305932178; 1.67529296875; -1.88525390625; 0.886474609375;0
484;2248675610; 0.9999842039386847; 0.0024604782045652696; -0.004236279661542359; -0.0027553320578970752; -0.16409186996736563; 0.03561108936759001; 0.0017256050842700925; 1.682373046875; -1.881103515625; 0.883056640625;0
485;2248692277; 0.9999858852598289; 0.002166777192233127; -0.004315382523784522; -0.002216265189220579; -0.16119570185779936; 0.0397797710772392; -0.0054994901442782795; 1.68701171875; -1.879150390625; 0.881103515625;0
486;2248708944; 0.9999880271530627; 0.0030033639313775257; -0.00371491324264725; -0.0010605542046187577; -0.16238903924580317; 0.04010132949419452; -0.004033137837040275; 1.690673828125; -1.87451171875; 0.876708984375;0
487;2248725611; 0.9999911719855654; 0.0026254068496926602; -0.003272699338501842; 2.2940978341273735E-4; -0.16006750786091622; 0.0472380258529185; -0.007578120729800485; 1.6884765625; -1.875732421875; 0.8720703125;0
488;2248742278; 0.9999916248344187; 0.002391423460839065; -0.0031760627790421996; 9.715863696346805E-4; -0.15642897479606876; 0.041825484296474584; 7.58322140101339E-5; 1.688720703125; -1.88037109375; 0.87451171875;0
489;2248758945; 0.9999917642544739; 0.002341581617088709; -0.0026396789678063; 0.0020051218671474085; -0.162608834045295; 0.040759307629527994; 0.004199643360673886; 1.683837890625; -1.8798828125; 0.8681640625;0
490;2248775612; 0.9999924804800718; 5.761315236791215E-4; -0.0028822262510363465; 0.0025297880579892573; -0.1605296144278318; 0.053195345656445125; -0.00653225220159826; 1.68359375; -1.885009765625; 0.86767578125;0
491;2248792279; 0.9999932278986128; -3.3734568987642266E-5; -0.0020574768293911143; 0.0030511977956849128; -0.1553804412578113; 0.04942214552621436; 0.005447828615888181; 1.67529296875; -1.886474609375; 0.866943359375;0
492;2248808946; 0.9999905818782875; -3.2308364368514864E-4; -0.001605179134528026; 0.004019349652534976; -0.16054004871134342; 0.04041006378772024; 0.00886448394620201; 1.674072265625; -1.888916015625; 0.85986328125;0
493;2248825613; 0.9999879304225312; -4.066958560250411E-5; -0.0015070650522427953; 0.00467612127472461; -0.15861381152044654; 0.03516923328942864; 0.004627207508287191; 1.666748046875; -1.895263671875; 0.86083984375;0
494;2248842280; 0.9999895008008087; -8.246040460552495E-4; -8.540110966206855E-4; 0.004425944121156211; -0.15584369475003534; 0.03726668475237224; 0.0027896549525229; 1.661865234375; -1.89892578125; 0.859130859375;0
495;2248858947; 0.9999896580786096; -6.883794309615887E-4; -0.0010007263285932713; 0.004382740740638103; -0.16066754229028257; 0.03281749382717062; 0.00990535641399631; 1.658447265625; -1.905029296875; 0.853515625;0
496;2248875614; 0.999988124159136; 2.426559142167939E-4; -0.001544607614648308; 0.0046159339376364295; -0.15962047567686205; 0.029150233340356647; 0.010214788465643325; 1.65087890625; -1.908935546875; 0.854736328125;0
497;2248892281; 0.9999907440036263; 1.6956222696982992E-4; -0.0013344736021754788; 0.0040868491445200114; -0.15354833038223425; 0.0314491535099788; 0.005051127560039533; 1.64697265625; -1.915283203125; 0.854736328125;0
498;2248908948; 0.9999921072574671; -2.2850150479440667E-4; -9.464048319817593E-4; 0.0038519511583881005; -0.1627904610296164; 0.03185442682530163; 0.006063705367240466; 1.638916015625; -1.9189453125; 0.851806640625;0
499;2248925615; 0.9999913702536682; -5.366752508915718E-4; -0.0019638537814610506; 0.0036214190852582044; -0.16598737015430098; 0.027301719814432635; 0.010110617758646842; 1.6328125; -1.92431640625; 0.848388671875;0
500;2248942282; 0.9999929049603773; -0.0010087362149879264; -0.00252840979920016; 0.0026037711192858914; -0.15905857509295657; 0.02908832973627459; 0.007451986355478541; 1.63330078125; -1.925537109375; 0.843017578125;0
501;2248958949; 0.9999928566064666; -0.0018130918865317813; -0.0021341142872983443; 0.002538698496954151; -0.16171888253472855; 0.028191546031212388; 0.008195945548580542; 1.6259765625; -1.93017578125; 0.83642578125;0
502;2248975616; 0.999989553192024; -0.002289696694395729; -0.0024427298082391195; 0.0031118912172269364; -0.1588289968499258; 0.025301263852746676; 0.01430361474442507; 1.62353515625; -1.932373046875; 0.830810546875;0
503;2248992283; 0.9999880932225238; -0.0027562626750290975; -0.0022535263369875412; 0.003337371465085615; -0.14564995872926853; 0.02485289849362792; 0.008793506388986003; 1.623046875; -1.932861328125; 0.82275390625;0
504;2249008950; 0.9999905187283806; -0.0021265479991134234; 1.0922433197113614E-5; 0.0038000167962981557; -0.14089644384814867; 0.01814827151057841; 0.008485258214932852; 1.619873046875; -1.93408203125; 0.817138671875;0
505;2249025617; 0.9999908398615182; -8.318641270638194E-5; 0.0014580405910379346; 0.00402335565307066; -0.14345606018274687; 0.016136138207900143; 0.014881490638511196; 1.615966796875; -1.9404296875; 0.8173828125;0
506;2249042284; 0.9999872903647137; 0.0020025287909439526; 0.0022649518500442866; 0.004034721873454494; -0.14496896412001153; 0.02121606556847212; 0.017386330922374422; 1.6064453125; -1.945556640625; 0.82470703125;0
507;2249058951; 0.9999836102421507; 0.003569186067626323; 0.002648421989544764; 0.0036091576377833006; -0.1515262962179649; 0.03221273501581254; 0.015169804519396687; 1.59716796875; -1.951171875; 0.83203125;0
508;2249075618; 0.9999879074437146; 0.0034422927395067887; 0.0026832792941119403; 0.00226618606168133; -0.15613715710299067; 0.04315997057870779; 0.017782769522329257; 1.590576171875; -1.953369140625; 0.839599609375;0
509;2249092285; 0.9999924950755571; 0.0030142159146900743; 0.002311194273018541; 7.633321778289793E-4; -0.15797556825627496; 0.045026609194375115; 0.020647077541341152; 1.58740234375; -1.955078125; 0.8515625;0
510;2249108952; 0.9999952397788816; 0.002738157965122029; 0.0013079513017116714; -5.587252699210121E-4; -0.16228417018516644; 0.04518015446928757; 0.02271270915095135; 1.584716796875; -1.953857421875; 0.856201171875;0
511;2249125619; 0.9999970183551109; 0.001795834614898184; 3.71372976099918E-4; -0.0016125572971202875; -0.1598743532158833; 0.05200712181064568; 0.021733471541191762; 1.584228515625; -1.95458984375; 0.861328125;0
512;2249142286; 0.9999975451206471; 7.581557154009988E-5; -6.886519182824903E-5; -0.0022134277182322415; -0.15570736480306308; 0.05265382371922993; 0.019036430112303108; 1.5908203125; -1.953125; 0.860107421875;0
513;2249158953; 0.9999950088037161; -0.0010665365306716384; -3.839344038342324E-4; -0.0029491459539923164; -0.15111578003660336; 0.04439259736049356; 0.0184879827919303; 1.593505859375; -1.95068359375; 0.86083984375;0
514;2249175620; 0.9999936662056715; -7.519877593623603E-4; -5.615754304874322E-4; -0.0034331757871744473; -0.15105549767756363; 0.033723496467713054; 0.017125983617062464; 1.60009765625; -1.94677734375; 0.857177734375;0
515;2249192287; 0.9999946813245513; 4.6079761710109135E-4; -6.805167077142406E-4; -0.0031562454238704967; -0.1553247208075484; 0.029398295957625154; 0.011444102081578807; 1.6064453125; -1.942138671875; 0.855712890625;0
516;2249208954; 0.9999953716506389; 0.0020250571151137625; -7.995526464419646E-4; -0.002125214470736103; -0.16256447037112415; 0.028273690120554872; 0.00867380717236706; 1.610107421875; -1.938232421875; 0.857177734375;0
517;2249225621; 0.9999937183773908; 0.0031551658615099343; -0.0010998997830372198; -0.0011825204493483568; -0.16228117825564026; 0.03107367911247547; 0.007208528961285283; 1.60986328125; -1.939453125; 0.861572265625;0
518;2249242288; 0.9999931044386449; 0.003513077236233425; -8.970958434453975E-4; -8.02858979771448E-4; -0.16038623584674064; 0.032903476836338645; 0.006644564295070338; 1.61083984375; -1.9375; 0.86572265625;0
519;2249258955; 0.9999934590865933; 0.003396111446043709; -8.752659926741098E-4; -8.843757786839991E-4; -0.159425003916603; 0.03763510506681225; 0.005619322735165503; 1.606201171875; -1.939208984375; 0.869140625;0
520;2249275622; 0.9999956545038463; 0.0026131482363139225; -7.351481815361661E-4; -0.0011497768784847762; -0.15720353161753095; 0.04509580453691162; 0.0027537903413348084; 1.61181640625; -1.9375; 0.87109375;0
521;2249292289; 0.9999978517242195; 0.0011208530896394259; -3.6525925449726326E-4; -0.0017049401673679967; -0.1571426479837949; 0.054321410005760476; 0.003984630675073812; 1.610595703125; -1.93603515625; 0.8720703125;0
522;2249308956; 0.9999966491422807; -2.9997264093845066E-4; -3.6545277472888055E-4; -0.00254522393797596; -0.15551049323097793; 0.061667904893963524; 0.009939895324441969; 1.615234375; -1.93310546875; 0.87060546875;0
523;2249325623; 0.9999951927386298; -0.0010276030549005305; -3.5968150250507985E-4; -0.002903301708221562; -0.15649181687542602; 0.06273502152364711; 0.015185303403884465; 1.62109375; -1.930908203125; 0.871337890625;0
524;2249342290; 0.9999957697341972; -0.0021817834051772456; -9.941159715516624E-5; -0.0019210549751974004; -0.15633456853590133; 0.05666578855937588; 0.008170430223898304; 1.624267578125; -1.92529296875; 0.867919921875;0
525;2249358957; 0.9999923419931628; -0.003575621382556779; 0.0011976777693207818; -0.001047117337711512; -0.15611662545280408; 0.04796610890446076; 9.288043440015114E-4; 1.62939453125; -1.927490234375; 0.8642578125;0
526;2249375624; 0.9999815071175252; -0.005660585390933684; 0.0018962254067888403; -0.001160829531544283; -0.15973878112908058; 0.04963330958762967; -0.009789476117946701; 1.630859375; -1.924072265625; 0.86083984375;0
527;2249392291; 0.9999737559974056; -0.006915424005983467; 0.0017836388375271908; -0.0012177272912548556; -0.15915333797929054; 0.05606850631287013; -0.008765350656430457; 1.633056640625; -1.921875; 0.853515625;0
528;2249408958; 0.999972382538125; -0.007096966029790014; 0.0020826937619309737; -7.277505696690612E-4; -0.14939003539291199; 0.05848447429142516; 0.0019520075626709484; 1.63671875; -1.92138671875; 0.847412109375;0
529;2249425625; 0.99998425128719; -0.005123842622051053; 0.001965333393358068; 0.0011751080951521444; -0.15813085979032612; 0.03734450489223934; 0.02151091288827527; 1.638671875; -1.919921875; 0.844482421875;0
530;2249442292; 0.999983785036204; -0.005202039948875595; 0.0015733496396376364; 0.0017008868124203103; -0.16119391918652962; 0.02761067571133202; 0.006248006614311675; 1.638916015625; -1.919921875; 0.836669921875;0
531;2249458959; 0.9999821124550479; -0.005075952320447899; 0.002443091615058832; 0.002010169480678226; -0.15994382304528135; 0.04429153922002465; -0.014307095207281004; 1.642578125; -1.921875; 0.836669921875;0
532;2249475626; 0.9999723246243603; -0.006277912595103768; 0.003621893405602997; 0.001679192353436998; -0.14423829043790193; 0.0715291424055714; -0.013048235449092123; 1.6396484375; -1.920166015625; 0.830078125;0
533;2249492293; 0.9999726279078173; -0.003949534947374683; 0.005842551108677985; 0.0022381254155919854; -0.13769309236853947; 0.04105786877312193; 0.023425898466285622; 1.635009765625; -1.922607421875; 0.831787109375;0
534;2249508960; 0.9999773655180308; -0.0010015872674683512; 0.006507907023952987; 0.0013829030087487704; -0.14882610060529164; -0.009030151656740426; 0.024970437404046704; 1.63232421875; -1.925048828125; 0.83642578125;0
535;2249525627; 0.9999796384793739; 0.0010856864714133274; 0.006179130222626187; 0.00116715947428242; -0.17352002967398875; -0.004280282254811901; -0.0037928876909548263; 1.630615234375; -1.926513671875; 0.848388671875;0
536;2249542294; 0.9999923221714192; -4.834772684997324E-5; 0.0025136126771712485; 0.0030058296723213807; -0.17942814122148665; 0.06766088732837551; -0.017555571154312423; 1.625; -1.927978515625; 0.85107421875;0
537;2249558961; 0.9999675653374929; -0.006540376427605965; 0.0031135297121049343; 0.0035210342122708464; -0.14231603569078738; 0.1104034051107014; -0.028638172292188024; 1.619140625; -1.93212890625; 0.850830078125;0
538;2249575628; 0.9999120637941872; -0.01157804391818304; 0.00640271967362037; 9.048528383408527E-4; -0.1387859012298329; 0.08407463015582804; -0.0017098859597962056; 1.623779296875; -1.93310546875; 0.843505859375;0
539;2249592295; 0.9999748627630668; -0.002814146867727768; 0.00634311387838503; 0.0014557904101403232; -0.15983527911991438; -0.018201364429185903; 0.056353430921687764; 1.620361328125; -1.930908203125; 0.844482421875;0
540;2249608962; 0.9999746470377411; -3.720654530768308E-4; 0.007080738696482445; 6.557351263432598E-4; -0.16182775667963056; -0.02301390903576307; 0.0045592863037447785; 1.620849609375; -1.93408203125; 0.853271484375;0
541;2249625629; 0.9999859362462766; -0.0028114594295103323; 0.00449110026213978; 2.3026934066988638E-4; -0.16894289591703562; 0.04786491782262037; -0.025048768026847263; 1.618896484375; -1.9345703125; 0.859375;0
542;2249642296; 0.9999755252035963; -0.005625622242540068; 0.003904691460598742; 0.001433440885887094; -0.15185687267363063; 0.0768693873738641; -0.028545935066261473; 1.615478515625; -1.93603515625; 0.856689453125;0
543;2249658963; 0.9999655957883773; -0.006438423461436332; 0.0049744155250767705; 0.0016152811243835277; -0.15565420773586636; 0.06762738384377176; -0.016537444701167425; 1.6181640625; -1.93408203125; 0.85400390625;0
544;2249675630; 0.9999827971641981; -0.003341824793257675; 0.0042229995602139645; 0.002324619846754361; -0.16226906263378024; 0.037194876669485594; 0.008920475281085895; 1.61669921875; -1.937255859375; 0.853271484375;0
545;2249692297; 0.9999855974261999; -8.357810079906436E-4; 0.004692498172217965; 0.0024671585228069897; -0.16072115757775707; 0.02867679637007674; 0.010724894855388533; 1.611572265625; -1.9384765625; 0.858154296875;0
546;2249708964; 0.9999793722215758; -0.002906465836883615; 0.005664150358527882; 8.514625053383518E-4; -0.15343088264296062; 0.03989186602296496; -0.006124669665595349; 1.609375; -1.94091796875; 0.861572265625;0
547;2249725631; 0.9999656298487192; -0.0040210992783178134; 0.007244544384190408; -2.9403828629398504E-4; -0.16225276858448595; 0.044930532686900254; -0.00844574631033717; 1.609619140625; -1.941650390625; 0.866455078125;0
548;2249742298; 0.9999798766005448; -0.002571768766051391; 0.005795266623783075; 2.1744914915938773E-4; -0.17325711048745457; 0.04347658346442686; 4.5655541853605736E-4; 1.609130859375; -1.94091796875; 0.871826171875;0
549;2249758965; 0.9999920315938241; -0.0011613823054545114; 0.003819129916269079; -4.6761945106998943E-5; -0.16618359959805215; 0.0370965623480029; -0.00478505851435624; 1.609375; -1.940185546875; 0.873046875;0
550;2249775632; 0.999988799960158; -0.0019323313243108098; 0.003647608726999319; -0.002315383439242369; -0.16371703799883403; 0.02585591916942003; -0.00560768175338415; 1.60888671875; -1.93896484375; 0.87646484375;0
