DeviceTag:,Xsens DOT 5,,,,,,,,,,,,,,,,,
FirmwareVersion:,1.3.0,,,,,,,,,,,,,,,,,
AppVersion:,2020.1.1,,,,,,,,,,,,,,,,,
Measurement Mode:,Sensor fusion Mode - Complete (Quaternion),,,,,,,,,,,,,,,,,
StartTime:,2020-08-03 16:00:48.801 +0200,,,,,,,,,,,,,,,,,
© Xsens Technologies B. V. 2005-2020,,,,,,,,,,,,,,,,,,,
PacketCounter,SampleTimeFine,Quat_W,Quat_X,Quat_Y,Quat_Z,FreeAcc_X,FreeAcc_Y,FreeAcc_Z
1, 59566054, 0.69526607, -0.23597793, -0.27808747, 0.6193439, 0.02056878, 0.021344146, 0.18826294
2, 59582721, 0.69522136, -0.23593369, -0.27841824, 0.61926234, -0.027474437, -0.018389193, 0.050515175
3, 59599388, 0.6951728, -0.23606981, -0.27835748, 0.6192924, -0.1301811, -0.06382748, 0.039769173
4, 59616055, 0.69504416, -0.23609619, -0.27770928, 0.61971754, -0.02098496, -0.014203131, 0.13145256
5, 59632722, 0.69501936, -0.23600009, -0.2772217, 0.62000024, 0.012687266, 0.014096627, 0.18415165
6, 59649389, 0.6950101, -0.23610455, -0.27698582, 0.6200763, -0.0055981055, 0.02192405, 0.15058231
7, 59666056, 0.6950966, -0.23609182, -0.27666226, 0.6201287, 0.03277862, -0.07835526, 0.21305752
8, 59682723, 0.694966, -0.23616418, -0.27636635, 0.6203793, 0.04647706, -0.07028555, 0.13685417
9, 59699390, 0.69479066, -0.23629251, -0.27594188, 0.62071586, -0.020858228, 0.08456568, 0.033664703
10, 59716057, 0.6946706, -0.23649858, -0.27576053, 0.62085223, -0.12971474, 0.12847301, 0.01993084
11, 59732724, 0.69454235, -0.23691715, -0.27594674, 0.6207535, -0.1539564, 0.08598141, -0.0035543442
12, 59749391, 0.69443464, -0.23734333, -0.2760542, 0.6206633, -0.0039452272, -0.015361487, 0.11942577
13, 59766058, 0.6942637, -0.23760939, -0.2759432, 0.6208021, 0.06677271, -0.016235646, 0.14174366
14, 59782725, 0.6940616, -0.23788169, -0.27584282, 0.6209683, 0.052807618, 0.072701946, 0.019468307
15, 59799392, 0.6939934, -0.2382297, -0.27583092, 0.6209164, -0.1257932, 0.03642982, -0.040416718
16, 59816059, 0.6937817, -0.23856197, -0.2758605, 0.6210124, -0.010084011, 0.009362399, 0.10017204
17, 59832726, 0.69361097, -0.23885809, -0.2757027, 0.6211594, -0.023579499, 0.042287644, 0.21420574
18, 59849393, 0.6938567, -0.23902538, -0.27537116, 0.6209674, -0.08974638, 0.115292564, 0.12753296
19, 59866060, 0.69372016, -0.23899533, -0.27532953, 0.62115, -0.034705304, 0.038945455, -0.01012516
20, 59882727, 0.69362915, -0.2390868, -0.2754316, 0.6211712, 0.05342921, -0.13346092, 0.023564339
21, 59899394, 0.6933299, -0.23912278, -0.27540186, 0.62150455, 0.08962959, -0.091330186, 0.19162464
22, 59916061, 0.69276917, -0.23909666, -0.27538005, 0.62214917, 0.042409796, 0.08810389, 0.12523365
23, 59932728, 0.69266033, -0.23933583, -0.2753938, 0.6221722, -0.10676186, 0.027960464, 0.010514259
24, 59949395, 0.69245684, -0.23951922, -0.2755366, 0.6222651, -0.09533666, 0.037673444, 0.0038909912
25, 59966062, 0.69230825, -0.23942114, -0.2754024, 0.62252736, 0.0643543, 0.05366054, 0.20141125
26, 59982729, 0.6925166, -0.23937961, -0.27520972, 0.62239695, 0.07002638, 0.024372635, 0.15536499
27, 59999396, 0.69273245, -0.2395825, -0.2751924, 0.62208617, -0.11023145, 0.013108476, -0.023056984
28, 60016063, 0.69262415, -0.23985395, -0.2753496, 0.6220327, -0.022034131, -0.049408767, 0.03483963
29, 60032730, 0.69241405, -0.24011393, -0.27541015, 0.62213933, 0.115608275, -0.07817545, 0.13001347
30, 60049397, 0.6922487, -0.24026103, -0.27534944, 0.62229335, 0.034553315, 0.02519371, 0.08692932
31, 60066064, 0.6921347, -0.24041444, -0.27538228, 0.62234646, -0.11213925, 0.17750885, -0.0010442734
32, 60082731, 0.69221693, -0.24097332, -0.2756761, 0.6219088, -0.12345626, 0.08841178, -0.0038795471
33, 60099398, 0.69198203, -0.24163237, -0.27619895, 0.6216822, 0.04164136, -0.025166776, 0.1430769
34, 60116065, 0.6916904, -0.24209228, -0.27641115, 0.6217336, 0.10520509, -0.006308877, 0.24286366
35, 60132732, 0.6919048, -0.24213372, -0.2761833, 0.62158006, 0.0070674797, 0.117933705, 0.1943407
36, 60149399, 0.6921909, -0.241942, -0.27603424, 0.6214026, -0.011696209, 0.10053423, 0.113978386
37, 60166066, 0.69232893, -0.24154665, -0.27594936, 0.62144023, 0.035007715, 0.021570789, 0.13368797
38, 60182733, 0.6923427, -0.24084952, -0.27565387, 0.6218264, -0.075195685, 0.107669875, 0.11428833
39, 60199400, 0.6926449, -0.23976223, -0.27500695, 0.62219656, -0.043313794, 0.25875235, 0.107320786
40, 60216067, 0.6932634, -0.23891152, -0.27450275, 0.6220575, 0.056256425, 0.026249362, 0.018314362
41, 60232734, 0.6934822, -0.23809731, -0.27427277, 0.6222271, 0.13275306, -0.17117561, -0.049839973
42, 60249401, 0.69302475, -0.23739521, -0.2741268, 0.62306887, 0.09160232, -7.239585E-4, -0.0363245
43, 60266068, 0.6927841, -0.23726648, -0.27416793, 0.62336737, -0.010299253, 0.12053685, -0.046370506
44, 60282735, 0.6925876, -0.23782367, -0.2748407, 0.6230769, -0.10239654, 0.054773636, 0.046733856
45, 60299402, 0.6923465, -0.23863146, -0.27563545, 0.622685, 0.029741304, 0.03352672, 0.22261238
46, 60316069, 0.6920248, -0.23929179, -0.27611545, 0.6225767, 0.1521674, -7.743606E-4, 0.40642548
47, 60332736, 0.69180053, -0.23979421, -0.27639917, 0.6225065, 0.04304703, 0.03818551, 0.31684494
48, 60349403, 0.69158286, -0.2401777, -0.276611, 0.6225065, -0.017050462, 0.053643, 0.15260792
49, 60366070, 0.6915987, -0.24059415, -0.27661568, 0.6223259, 0.05096252, 0.059140746, 0.17121124
50, 60382737, 0.69123876, -0.24054699, -0.2765854, 0.6227575, 0.021963278, 0.012064447, 0.26207352
51, 60399404, 0.69125414, -0.24063167, -0.27631906, 0.6228257, -0.0843881, 0.04832987, 0.13346481
52, 60416071, 0.6901308, -0.24058954, -0.2766779, 0.6239277, -0.15742432, 0.16751045, -0.07316208
53, 60432738, 0.68946946, -0.24118377, -0.27718148, 0.6242056, -0.0767273, 0.16396463, -0.082261086
54, 60449405, 0.6889423, -0.2419122, -0.27774104, 0.62425715, 0.1035426, 0.119477175, 0.1068306
55, 60466072, 0.6886598, -0.24231684, -0.27797902, 0.62430614, 0.18353565, 0.11005152, 0.2763567
56, 60482739, 0.68936574, -0.24260437, -0.2776456, 0.623563, 0.10027037, 0.12727532, 0.27961636
57, 60499406, 0.68946993, -0.24246582, -0.27749315, 0.6235697, 0.0034684741, 0.013110935, 0.09602833
58, 60516073, 0.68889517, -0.24225315, -0.2776482, 0.62421817, -2.1032568E-4, 0.014945306, -0.080916405
59, 60532740, 0.68880177, -0.24225375, -0.27750984, 0.62438256, 0.12766176, 0.11633659, -0.0067443848
60, 60549407, 0.68863976, -0.24232487, -0.27757192, 0.624506, 0.06857221, 0.10185921, 0.017918587
61, 60566074, 0.68842393, -0.24250081, -0.27794176, 0.62451124, -0.042871684, 0.048675198, 0.006559372
62, 60582741, 0.6882855, -0.24304524, -0.27833688, 0.62427616, -0.03623771, 0.07118049, 0.11251545
63, 60599408, 0.688162, -0.24361007, -0.27860895, 0.62407094, 0.022627333, 0.07322229, 0.16993713
64, 60616075, 0.6880312, -0.2439039, -0.27874678, 0.62403864, 0.12131903, 0.04237895, 0.27178097
65, 60632742, 0.68797505, -0.24394195, -0.2788138, 0.6240558, 0.07350067, -0.009396262, 0.19008827
66, 60649409, 0.68818426, -0.2440525, -0.27868807, 0.62383795, -0.016006432, 0.006765849, 0.091189384
67, 60666076, 0.6882069, -0.24401705, -0.27852225, 0.623901, -0.018479604, 0.09167585, 0.045973778
68, 60682743, 0.68819225, -0.24396935, -0.27836317, 0.6240068, -0.024918566, 0.0818576, 0.050661087
69, 60699410, 0.68836105, -0.24389628, -0.27814752, 0.6239452, -0.006496851, 0.16224235, 0.138031
70, 60716077, 0.6887556, -0.24361579, -0.27783495, 0.6237587, -0.016760342, 0.16701928, 0.20625496
71, 60732744, 0.6894235, -0.24327669, -0.27762625, 0.62324595, 0.05577028, -0.02098306, 0.18109608
72, 60749411, 0.68999845, -0.2430778, -0.27726737, 0.62284696, 0.106110096, -0.107654124, 0.14610672
73, 60766078, 0.68989664, -0.24267699, -0.27696145, 0.623252, 0.12692742, -0.0285074, 0.06533623
74, 60782745, 0.6898309, -0.24259502, -0.2768501, 0.6234062, 0.08400086, 0.05454085, 0.02212429
75, 60799412, 0.68953496, -0.24282748, -0.2771503, 0.6235096, -0.027776513, 0.15611196, -0.008779526
76, 60816079, 0.68976766, -0.24352843, -0.2773346, 0.6228965, 0.01979632, 0.16943489, 0.09405041
77, 60832746, 0.68980426, -0.24392089, -0.2775983, 0.62258494, -0.0024172927, 0.026193483, 0.19371414
78, 60849413, 0.6897943, -0.2439616, -0.2777301, 0.62252134, 0.022404492, 0.12335624, 0.16542149
79, 60866080, 0.68995655, -0.244215, -0.2778141, 0.62220454, -0.0020261449, 0.08413933, 0.10704613
80, 60882747, 0.68993807, -0.24443027, -0.27794352, 0.62208253, 0.052828405, -0.017058397, 0.12233353
81, 60899414, 0.68990195, -0.24444996, -0.27786812, 0.62214863, 0.110649645, 0.07872383, 0.18409443
82, 60916081, 0.6898259, -0.24426807, -0.27778247, 0.6223427, -0.03129047, 0.16691512, 0.07509613
83, 60932748, 0.6897567, -0.24424337, -0.27792794, 0.62236404, -0.19361597, 0.22237863, -0.0071144104
84, 60949415, 0.6896817, -0.24443187, -0.27833712, 0.62219024, -0.014162898, 0.06605523, 0.048776627
85, 60966082, 0.6892845, -0.24434794, -0.2786979, 0.6225018, 0.1782261, -0.0071718604, 0.13230228
86, 60982749, 0.6893214, -0.24404763, -0.27840695, 0.62270904, 0.13339432, 0.14222442, 0.12650585
87, 60999416, 0.6895272, -0.24378704, -0.2782581, 0.62264967, 0.031357974, 0.06971179, -0.014638901
88, 61016083, 0.6894837, -0.24392578, -0.27866146, 0.6224633, -0.12152019, -0.012498956, -0.14588928
89, 61032750, 0.6889009, -0.24436359, -0.27936292, 0.62262243, 0.038206857, 0.02672645, 0.03861618
90, 61049417, 0.6883624, -0.24495909, -0.27994108, 0.6227241, 0.13827763, 0.087690614, 0.326025
91, 61066084, 0.6878316, -0.24546662, -0.28064027, 0.62279606, 0.022672707, 0.09556565, 0.29152012
92, 61082751, 0.6875635, -0.2461797, -0.2813431, 0.62249357, 0.0050011026, 0.06214923, 0.18612576
93, 61099418, 0.687157, -0.24674767, -0.2820119, 0.6224149, 0.12637848, -0.019873207, 0.21843338
94, 61116085, 0.6868477, -0.2471201, -0.28230205, 0.6224769, 0.07083349, 0.070203744, 0.2133112
95, 61132752, 0.6867276, -0.24744311, -0.28241163, 0.62243134, -0.11384688, 0.14236635, 0.08856678
96, 61149419, 0.6867036, -0.24792905, -0.2826609, 0.6221513, -0.15901941, 0.03576643, 0.021282196
97, 61166086, 0.6865138, -0.2484226, -0.28299332, 0.62201285, -0.004095204, -9.874803E-4, 0.12096691
98, 61182753, 0.6860657, -0.2486835, -0.283089, 0.6223595, 0.07711264, 0.13457716, 0.19314861
99, 61199420, 0.6860624, -0.24890183, -0.28296137, 0.62233365, -0.05236886, 0.13586536, 0.040732384
100, 61216087, 0.6859717, -0.24920829, -0.28312978, 0.6222344, -0.07871355, 0.15316303, -0.042250633
101, 61232754, 0.6857787, -0.24962355, -0.28340977, 0.6221534, 0.025269257, 0.14273828, 0.043869972
102, 61249421, 0.6856068, -0.2499962, -0.2837457, 0.62204003, 0.05659661, 0.0891316, 0.16173649
103, 61266088, 0.68562627, -0.25009048, -0.28389144, 0.6219141, -0.044403307, 0.09867494, 0.10201836
104, 61282755, 0.6856788, -0.25014535, -0.28401208, 0.621779, -0.012762589, 0.10238827, 0.024000168
105, 61299422, 0.68565595, -0.2502296, -0.2842226, 0.6216741, -0.036107846, 0.0568684, -0.024053574
106, 61316089, 0.6855195, -0.25028548, -0.28454852, 0.62165314, 0.031885687, 0.0382662, -0.036636353
107, 61332756, 0.6853709, -0.25031015, -0.28482303, 0.6216813, 0.106006384, 0.049342275, 0.04009819
108, 61349423, 0.68518376, -0.25035197, -0.28521553, 0.62169063, 0.074870355, 0.072190106, 0.06432533
109, 61366090, 0.6849913, -0.2505154, -0.28572097, 0.62160486, -0.029455654, 0.07736119, 0.0994997
110, 61382757, 0.6847503, -0.2507242, -0.28622347, 0.62155485, 0.048563108, 0.035773247, 0.16140652
111, 61399424, 0.6843959, -0.25091526, -0.28666568, 0.6216645, 0.02323976, 0.07441797, 0.12860107
112, 61416091, 0.6841778, -0.25118276, -0.28714287, 0.62157625, 0.06250361, 0.08916826, 0.113204956
113, 61432758, 0.6839302, -0.25153765, -0.2877698, 0.6214152, 0.06681987, 0.033039015, 0.10535717
114, 61449425, 0.68365854, -0.25186068, -0.28827614, 0.6213489, 0.043814126, 0.067530416, 0.0826807
115, 61466092, 0.68342984, -0.25202107, -0.2885514, 0.6214074, 0.019674951, 0.0911582, 0.1940527
116, 61482759, 0.6832516, -0.25205612, -0.28882143, 0.62146366, 0.002473618, 0.104555674, 0.22649574
117, 61499426, 0.6831133, -0.25223666, -0.2891798, 0.62137586, -0.07030265, 0.09616801, 0.1403904
118, 61516093, 0.6829703, -0.2525044, -0.28943667, 0.6213047, -0.052574493, 0.09325642, 0.105259895
119, 61532760, 0.68288136, -0.2526379, -0.28956246, 0.6212896, -0.021196628, 0.05871864, 0.18149853
120, 61549427, 0.6828298, -0.25264218, -0.28962177, 0.62131685, 0.008789424, 0.13392214, 0.12735176
121, 61566094, 0.68281525, -0.25263116, -0.28968978, 0.62130564, 0.011818471, 0.06560999, 0.083888054
122, 61582761, 0.6827294, -0.25259155, -0.28971738, 0.62140334, -0.03393597, 0.08226495, 0.07350063
123, 61599428, 0.68264914, -0.25247613, -0.289653, 0.62156844, -0.06655367, 0.18379784, 0.08965778
124, 61616095, 0.6826335, -0.25243583, -0.28968444, 0.62158716, -0.07043005, 0.20913023, 0.08286953
125, 61632762, 0.6826823, -0.25245583, -0.2898065, 0.62146866, -0.021955008, 0.14934912, 0.09278488
126, 61649429, 0.68276876, -0.2523694, -0.2897876, 0.62141746, 0.023621297, 0.040032845, 0.13280296
127, 61666096, 0.6828409, -0.25209162, -0.28965175, 0.6215142, 0.13071351, 0.03278052, 0.17551327
128, 61682763, 0.6829189, -0.25182393, -0.28954494, 0.621587, 0.035476424, 0.08517431, 0.055124283
129, 61699430, 0.6829011, -0.25183672, -0.28961864, 0.62156695, -0.030363342, 0.12211284, -0.0039567947
130, 61716097, 0.68276906, -0.25206932, -0.28982916, 0.62151957, 0.04460581, 0.06625527, 0.12875462
131, 61732764, 0.6825459, -0.25230616, -0.29013842, 0.6215245, -0.002950371, 0.08173377, 0.15542793
132, 61749431, 0.68237233, -0.25252745, -0.2903729, 0.6215154, -0.007593182, 0.14763355, 0.17607307
133, 61766098, 0.6822683, -0.25278768, -0.29069456, 0.6213737, -0.018555151, 0.019294197, 0.14838219
134, 61782765, 0.68204224, -0.25300783, -0.29098028, 0.6213983, 0.023408735, 0.026408056, 0.076031685
135, 61799432, 0.6818643, -0.2531572, -0.2910752, 0.6214882, -0.014702459, 0.17313974, 0.09484863
136, 61816099, 0.68178326, -0.25329557, -0.29121637, 0.62145483, -0.017037274, 0.13310967, 0.16121006
137, 61832766, 0.68167573, -0.25350234, -0.29148534, 0.62136227, -0.059409745, 0.03840567, 0.14186668
138, 61849433, 0.68152094, -0.2537742, -0.29161406, 0.6213606, -0.0047644023, 0.06955243, 0.14050198
139, 61866100, 0.6813996, -0.2539357, -0.2915869, 0.62144065, -5.6995803E-5, 0.16970523, 0.13509178
140, 61882767, 0.68133813, -0.25400522, -0.29164702, 0.62145144, -0.050406866, 0.15029179, 0.069470406
141, 61899434, 0.68125594, -0.25422066, -0.29189765, 0.6213357, -0.03098046, 0.08953191, 0.03853798
142, 61916101, 0.68112224, -0.25454003, -0.2920692, 0.6212709, -0.006185721, 0.052282363, 0.099144936
143, 61932768, 0.6809751, -0.25471053, -0.29207936, 0.6213575, 0.06626019, 0.08504735, 0.18682098
144, 61949435, 0.68093985, -0.2547257, -0.29193234, 0.6214591, 0.020035477, 0.12766658, 0.1606617
145, 61966102, 0.68092346, -0.2546954, -0.29187348, 0.62151706, -0.0077491943, 0.10484166, 0.060162544
146, 61982769, 0.6808675, -0.25472215, -0.2918715, 0.62156826, 0.0149051845, 0.108075775, 0.07174873
147, 61999436, 0.6808466, -0.25474817, -0.2917649, 0.6216307, 0.0359268, 0.1913081, 0.158432
148, 62016103, 0.68076676, -0.25478214, -0.29182687, 0.62167495, -0.0023095594, 0.15039249, 0.17370605
149, 62032770, 0.6806416, -0.2550589, -0.29215148, 0.62154603, -0.029316407, 0.09174324, 0.083786964
150, 62049437, 0.68047607, -0.25540447, -0.29236078, 0.62148714, 0.053015932, 0.10391274, 0.07147694
151, 62066104, 0.680366, -0.25540665, -0.2923102, 0.62163055, 0.0065981024, 0.06588301, 0.1525755
152, 62082771, 0.6803244, -0.255342, -0.2922288, 0.6217408, -0.046947554, 0.16162266, 0.08036709
153, 62099438, 0.68029946, -0.25538766, -0.29230046, 0.62171555, -0.13570265, 0.12006814, -0.012087822
154, 62116105, 0.6801603, -0.25553274, -0.29245573, 0.6217353, -0.07686521, 0.10085855, 0.09586811
155, 62132772, 0.6800871, -0.25567454, -0.2923956, 0.62178534, -0.016641881, 0.07434868, 0.20186234
156, 62149439, 0.6799545, -0.2558093, -0.29242513, 0.62186104, 0.004435391, 0.13367628, 0.124507904
157, 62166106, 0.67986095, -0.2560147, -0.29249483, 0.621846, 0.02019462, 0.16051437, 0.09144783
158, 62182773, 0.6798135, -0.25618124, -0.29256672, 0.62179554, 0.015619979, 0.052603662, 0.14268303
159, 62199440, 0.679736, -0.25623357, -0.29251325, 0.6218838, 0.09063182, 0.066232145, 0.16426945
160, 62216107, 0.6796398, -0.25632742, -0.2925063, 0.6219534, -0.03141229, 0.11415935, 0.088581085
161, 62232774, 0.67949474, -0.2565333, -0.2926311, 0.6219684, -0.029675145, 0.16376224, 0.039527893
162, 62249441, 0.6793701, -0.25678885, -0.29265177, 0.6219895, 0.06400427, 0.17744392, 0.12772465
163, 62266108, 0.67936826, -0.25686857, -0.29270467, 0.6219335, -0.0033345898, 0.088812426, 0.1268692
164, 62282775, 0.6793152, -0.25700724, -0.2928753, 0.621854, -0.062993325, 0.13690013, 0.0659132
165, 62299442, 0.67927235, -0.25727674, -0.29301724, 0.6217224, -0.024486292, 0.11588632, 0.05445385
166, 62316109, 0.67918044, -0.25747815, -0.29312426, 0.6216891, 0.10627616, 0.04819051, 0.17866802
167, 62332776, 0.67917895, -0.25739655, -0.292926, 0.6218178, 0.1183747, 0.102455765, 0.1633749
168, 62349443, 0.6792127, -0.2571609, -0.29273432, 0.6219686, -0.020431096, 0.11739135, 0.011246681
169, 62366110, 0.6792959, -0.25710848, -0.29271033, 0.62191075, -0.075501785, 0.16050354, -0.052298546
170, 62382777, 0.6792766, -0.25726944, -0.29286984, 0.62179023, -0.048919834, 0.098667786, 0.030770302
171, 62399444, 0.6791885, -0.25737572, -0.29298136, 0.62179, 0.055743236, 0.07832039, 0.21197796
172, 62416111, 0.67913944, -0.25730506, -0.29294363, 0.6218904, 0.059987526, 0.12815663, 0.19531631
173, 62432778, 0.6792527, -0.2572991, -0.29299664, 0.6217443, -0.033638924, 0.110398635, 0.030097008
174, 62449445, 0.6792532, -0.25733364, -0.29321176, 0.6216279, -0.017997487, 0.07906659, 0.009355545
175, 62466112, 0.67921716, -0.2573338, -0.29338375, 0.62158626, 0.03501889, 0.021110464, 0.124287605
176, 62482779, 0.6792473, -0.25713533, -0.29335296, 0.62164986, 0.053078964, 0.05596742, 0.15594578
177, 62499446, 0.6792551, -0.2568925, -0.29341024, 0.62171465, -0.04911742, 0.0809422, -0.009727478
178, 62516113, 0.6792645, -0.25688392, -0.29373044, 0.6215569, -0.057918243, 0.07040613, -0.15106201
179, 62532780, 0.67921793, -0.2569578, -0.29419544, 0.6213572, 0.010395811, -0.0054408642, -0.1316042
180, 62549447, 0.67914987, -0.25692585, -0.29468307, 0.6212138, 0.10725515, 0.003152315, -0.051312447
181, 62566114, 0.6791502, -0.25675225, -0.2951719, 0.62105316, 0.082094744, 0.093961045, -0.14612293
182, 62582781, 0.67912936, -0.25649518, -0.29589558, 0.6208377, 0.06999308, 0.029181516, -0.28644562
183, 62599448, 0.67915213, -0.2562773, -0.29683265, 0.6204554, 0.055300236, -0.078365095, -0.40469933
184, 62616115, 0.67899585, -0.2559454, -0.2979657, 0.6202203, 0.08568011, -0.0033370485, -0.46992588
185, 62632782, 0.67887497, -0.2554823, -0.29931736, 0.6198925, 0.010459065, 0.100648776, -0.3983698
186, 62649449, 0.67885154, -0.25480548, -0.3008664, 0.6194466, 0.10176321, 0.14607398, -0.15996075
187, 62666116, 0.6790668, -0.2536218, -0.30220523, 0.61904496, 0.27199873, 0.03422833, 0.10531616
188, 62682783, 0.6794991, -0.25168607, -0.3033477, 0.6188017, 0.17088035, -0.1027393, -0.004752159
189, 62699450, 0.6799626, -0.24941227, -0.304327, 0.6187323, 0.0029711577, 0.08083491, -0.27357388
190, 62716117, 0.6805581, -0.24722883, -0.30541354, 0.61841834, -0.0030487168, 0.04876673, -0.4074583
191, 62732784, 0.6810271, -0.2449456, -0.30686307, 0.61809295, 0.024691029, -0.08381255, -0.28661823
192, 62749451, 0.68146515, -0.24262758, -0.30841553, 0.6177517, 0.15663296, -0.051732745, -0.047110558
193, 62766118, 0.681738, -0.23999979, -0.30992657, 0.61772084, 0.120350555, -0.0016525431, -0.04553604
194, 62782785, 0.682468, -0.23734763, -0.3114018, 0.61719733, -0.06182592, 0.031905916, -0.22456932
195, 62799452, 0.6830319, -0.23463094, -0.3131087, 0.6167487, -0.06826376, 0.08558412, -0.2692814
196, 62816119, 0.6834464, -0.23202446, -0.31513295, 0.6162442, 0.041899066, 0.10512015, -0.17686653
197, 62832786, 0.6839041, -0.22936995, -0.3173135, 0.61561096, 0.093562745, 0.1404733, -0.14906883
198, 62849453, 0.6843045, -0.22654961, -0.31972238, 0.61496395, 0.002266645, 0.2139941, -0.28517532
199, 62866120, 0.68477386, -0.22384444, -0.3224032, 0.6140314, -0.12149896, 0.22482856, -0.38910675
200, 62882787, 0.6851595, -0.22143354, -0.3255966, 0.61278915, -0.14603241, 0.07657688, -0.3283291
201, 62899454, 0.68546706, -0.21884243, -0.32874376, 0.611695, 0.14262652, 0.047803387, -0.12133503
202, 62916121, 0.6858204, -0.2156898, -0.33170775, 0.61081797, 0.12032552, 0.10986757, -0.11730194
203, 62932788, 0.6861951, -0.21248907, -0.33504328, 0.60969746, -0.088705584, 0.23416692, -0.2967806
204, 62949455, 0.6865468, -0.20965487, -0.33894232, 0.6081253, -0.09943712, 0.10959421, -0.37889957
205, 62966122, 0.6867581, -0.20673482, -0.3426982, 0.60678, 0.17843464, 0.052048903, 0.008649826
206, 62982789, 0.68704593, -0.20294514, -0.34606627, 0.60582125, 0.24320467, -0.071864106, 0.28106117
207, 62999456, 0.68734103, -0.19860819, -0.34952193, 0.60493934, 0.06433441, 0.21999341, 0.001115799
208, 63016123, 0.6879981, -0.19411321, -0.35307822, 0.6035847, -0.31283075, 0.48228163, -0.34425926
209, 63032790, 0.68907636, -0.18919235, -0.35663095, 0.6018259, -0.5110634, 0.35557234, -0.39821053
210, 63049457, 0.6903052, -0.18392421, -0.36015654, 0.59994835, -0.050949555, 0.20568188, 0.019814491
211, 63066124, 0.6917246, -0.177727, -0.36321634, 0.59833443, 0.10207926, 0.20099224, 0.15636444
212, 63082791, 0.6932641, -0.17077112, -0.36597127, 0.59689796, -0.07884107, 0.37081203, -0.04697132
213, 63099458, 0.6946843, -0.16425951, -0.36911798, 0.5951341, -0.02623908, 0.16890572, -0.34051514
214, 63116125, 0.69558084, -0.15835392, -0.3724718, 0.59359586, 0.3473597, 0.039076436, -0.13515854
215, 63132792, 0.6961456, -0.15199228, -0.3752798, 0.59282786, 0.5412134, -0.019360803, 0.22389603
216, 63149459, 0.69647104, -0.1448794, -0.37784383, 0.5925978, 0.5148867, 0.17667906, 0.25354004
217, 63166126, 0.6968101, -0.13799272, -0.3807872, 0.59195846, 0.21584065, 0.5171535, 0.01675415
218, 63182793, 0.6974225, -0.13199961, -0.3844565, 0.5902297, -0.07624698, 0.38291535, -0.32626438
219, 63199460, 0.69771403, -0.1264895, -0.38893488, 0.58815426, -0.026598042, -0.053349692, -0.30286312
220, 63216127, 0.6974651, -0.12085735, -0.3932056, 0.58679247, 0.1146123, 0.077550836, 0.17078781
221, 63232794, 0.696964, -0.11536836, -0.39740652, 0.58566153, 0.1328704, 0.32894284, 0.25375175
222, 63249461, 0.69625646, -0.11078799, -0.40236294, 0.5840011, -0.021093141, 0.48716745, -0.0154829025
223, 63266128, 0.6957502, -0.10658571, -0.40777043, 0.5816309, -0.16078897, 0.29855096, -0.1406269
224, 63282795, 0.6947546, -0.101672836, -0.41326326, 0.5798209, 0.088494815, 0.11319182, 0.04341221
225, 63299462, 0.69409823, -0.09613353, -0.4179675, 0.5781774, -0.063440576, 0.088740006, 0.31285286
226, 63316129, 0.6934827, -0.0906664, -0.422379, 0.5765913, 0.050326847, 0.5020301, 0.1109581
227, 63332796, 0.6932321, -0.08573499, -0.42676967, 0.57440966, -0.14668484, 0.42362654, -0.23754025
228, 63349463, 0.69298714, -0.08080474, -0.43149853, 0.57188165, -0.28028256, 0.15119198, -0.44415474
229, 63366130, 0.6923139, -0.07598874, -0.43641135, 0.56962484, -0.084915474, 0.22451183, -0.035600662
230, 63382797, 0.6917202, -0.0716116, -0.44107673, 0.5673149, 0.17750862, 0.2622806, 0.36195564
231, 63399464, 0.69128615, -0.06710295, -0.44592923, 0.56459534, 0.19968155, -0.011833223, 0.26188564
232, 63416131, 0.69086075, -0.06234843, -0.45060584, 0.56194186, -0.09148028, 0.14563578, 0.2664299
233, 63432798, 0.6905049, -0.057295855, -0.454746, 0.5595771, -0.14611846, 0.13238715, 0.38067913
234, 63449465, 0.6901613, -0.051898587, -0.4586201, 0.5573611, 0.070903, 0.012030529, 0.41970825
235, 63466132, 0.6898365, -0.04635342, -0.4625409, 0.55500716, -0.0014103667, 0.0469366, 0.31794357
236, 63482799, 0.6894785, -0.040994015, -0.46635643, 0.5526757, -0.14297341, 0.15293713, 0.11901951
237, 63499466, 0.6891258, -0.03528995, -0.46978885, 0.5505987, -0.19369654, 0.21260957, 0.11722469
238, 63516133, 0.6887028, -0.029300936, -0.47314832, 0.5485989, -0.15685715, 0.18838729, 0.317729
239, 63532800, 0.6883536, -0.023038806, -0.47639754, 0.54652, -0.1537834, 0.25147164, 0.26290417
240, 63549467, 0.6881354, -0.01662982, -0.47946417, 0.54434127, -0.2272092, 0.4444208, 0.15380478
241, 63566134, 0.6880553, -0.010200834, -0.48239526, 0.5420064, -0.17584434, 0.49158108, -0.03409481
242, 63582801, 0.688119, -0.0038727934, -0.48529318, 0.5394144, -0.13312455, 0.3947771, -0.014148712
243, 63599468, 0.6880515, 0.0027741208, -0.48809546, 0.53697336, -0.155082, 0.338896, 0.13395977
244, 63616135, 0.68795633, 0.009465636, -0.49093863, 0.5344211, -0.023368727, 0.2545274, 0.19275188
245, 63632802, 0.68770784, 0.016288431, -0.4939649, 0.5317813, -0.09807771, 0.2520979, 0.2534008
246, 63649469, 0.6875174, 0.022973327, -0.4970228, 0.5289238, -0.050934132, 0.37480733, 0.35949993
247, 63666136, 0.6874167, 0.029965283, -0.49987656, 0.5260075, -0.1894907, 0.27927917, 0.29438305
248, 63682803, 0.68726414, 0.037436534, -0.50249344, 0.52322745, -0.023946283, 0.107177496, 0.22990799
249, 63699470, 0.68688965, 0.045438383, -0.50498855, 0.5206771, 0.17397422, -0.010553025, 0.25981808
250, 63716137, 0.68614215, 0.054214057, -0.50723785, 0.5186328, 0.062234722, 0.020801652, 0.28602505
251, 63732804, 0.6849806, 0.06385656, -0.50922084, 0.51712495, -0.05419206, 0.3155046, 0.44045353
252, 63749471, 0.6839123, 0.07419565, -0.51055264, 0.5158441, 0.0025507298, 0.23713425, 0.32139206
253, 63766138, 0.68247, 0.08542539, -0.5119032, 0.514677, -0.08201338, 0.37617058, 0.14333248
254, 63782805, 0.68090856, 0.096610986, -0.51333916, 0.5133352, 0.014732409, 0.6204258, -0.16880608
255, 63799472, 0.6790934, 0.10738975, -0.5151755, 0.51175565, -0.17060274, 0.88664913, -0.20859337
256, 63816139, 0.6773017, 0.11732042, -0.5176398, 0.50945807, -0.08066404, 0.930586, 0.01960659
257, 63832806, 0.6756543, 0.12702277, -0.52001446, 0.506894, 0.04764514, 0.46217918, 0.38621235
258, 63849473, 0.67399144, 0.13753657, -0.52174574, 0.50457966, 0.07935246, -0.08535781, 0.59184647
259, 63866140, 0.6721294, 0.14905216, -0.5230175, 0.50247216, 0.1532206, -0.20131364, 0.5629797
260, 63882807, 0.6703152, 0.16073272, -0.52386963, 0.5004033, 0.09112489, 0.06306351, 0.0456419
261, 63899474, 0.6682809, 0.1726328, -0.5249221, 0.49805176, -0.35435656, 0.42731318, -0.05801487
262, 63916141, 0.66603714, 0.1841576, -0.5264069, 0.4953548, -0.39987496, 0.46996102, 0.3283949
263, 63932808, 0.6637066, 0.19504625, -0.5282735, 0.4923187, 0.065237395, 0.0978875, 0.67934513
264, 63949475, 0.66087174, 0.20696673, -0.52944297, 0.49000373, 0.23857191, -0.48873365, 0.92819786
265, 63966142, 0.6571117, 0.22165675, -0.5291509, 0.48895004, 0.27035233, -0.81012964, 0.77789116
266, 63982809, 0.6521087, 0.2376544, -0.5287075, 0.4886135, 0.28292805, -0.46039668, 0.31939602
267, 63999476, 0.6467667, 0.25251845, -0.5290224, 0.48791665, 0.13681787, 0.03235026, 0.14899921
268, 64016143, 0.6413976, 0.26513886, -0.53039235, 0.4868209, -0.14500068, 0.20806676, 0.13690567
269, 64032810, 0.63714564, 0.27531028, -0.5325185, 0.48443154, -0.031751134, 0.3174331, 0.28590393
270, 64049477, 0.63277626, 0.28510904, -0.5348688, 0.48189476, 0.3151034, -0.0596546, 0.20392513
271, 64066144, 0.6282018, 0.29472768, -0.5371825, 0.47951373, 0.30062985, 0.038409024, 0.5797701
272, 64082811, 0.6241099, 0.3037554, -0.5385402, 0.47769696, -0.12830895, 0.11387896, 0.62437916
273, 64099478, 0.62039715, 0.31294474, -0.5393382, 0.47569686, -0.50586724, -0.2572462, 0.55742455
274, 64116145, 0.6168255, 0.3223201, -0.5392904, 0.47413278, -0.5884723, -0.29592422, 0.40682602
275, 64132812, 0.6135558, 0.33152038, -0.5392323, 0.47209328, -0.41435724, -0.11792812, 0.13829899
276, 64149479, 0.61051095, 0.34052712, -0.53927326, 0.46957678, -0.21291934, 0.16649525, 0.08850956
277, 64166146, 0.60721153, 0.35033196, -0.53886974, 0.46709868, 0.17927259, -0.23249282, 0.12982178
278, 64182813, 0.6033136, 0.36116982, -0.5379397, 0.46496254, 0.8246088, -0.20775339, 0.38160515
279, 64199480, 0.5992963, 0.37107307, -0.5359524, 0.4646547, 0.5881824, -0.5404045, 0.27895546
280, 64216147, 0.59495246, 0.3805603, -0.53371835, 0.4651347, 0.05163149, -0.45604154, 0.5145321
281, 64232814, 0.59084386, 0.39004308, -0.53209597, 0.46437514, -0.089159094, -0.1633978, 0.116874695
282, 64249481, 0.5874708, 0.39736748, -0.5321582, 0.46236873, -0.32181016, 0.5350261, -0.068481445
283, 64266148, 0.5848653, 0.40266728, -0.53300965, 0.46010056, -0.5815452, 0.32541654, 0.15006542
284, 64282815, 0.58313024, 0.4063847, -0.5340155, 0.4578627, -0.38152364, -0.14264105, 0.3525257
285, 64299482, 0.5814529, 0.40974182, -0.53565985, 0.4550746, 0.09479408, -0.43236458, 0.36513805
286, 64316149, 0.57959527, 0.412935, -0.53718823, 0.45275056, 0.4502968, -0.24468097, 0.28304863
287, 64332816, 0.5769304, 0.4166514, -0.5381444, 0.45161217, 0.26857853, -0.44482365, 0.33130264
288, 64349483, 0.5743198, 0.42031673, -0.53795826, 0.45176503, -0.0851486, -0.53354776, 0.4494152
289, 64366150, 0.571833, 0.42375696, -0.5375183, 0.4522291, -0.19661295, -0.6687119, 0.41048622
290, 64382817, 0.56956226, 0.42706564, -0.5370917, 0.45248923, -0.056057945, -0.74591213, 0.48111153
291, 64399484, 0.56731784, 0.4304546, -0.53646034, 0.45284602, 0.0047007008, -0.25277886, 0.40289974
292, 64416151, 0.5654127, 0.4335131, -0.5360566, 0.4527893, -0.234544, 0.24891655, 0.33284187
293, 64432818, 0.56476384, 0.43550614, -0.5356025, 0.45222336, -0.27478236, 0.2823762, 0.3748722
294, 64449485, 0.56403095, 0.4373525, -0.5351307, 0.45191485, 0.10605578, 0.28475595, 0.15962219
295, 64466152, 0.56327575, 0.4388202, -0.5345669, 0.45210138, 0.18219681, 0.17852092, 0.026294708
296, 64482819, 0.5622889, 0.44019684, -0.53409636, 0.4525476, -0.15149932, 0.016605895, 0.010925293
297, 64499486, 0.56143016, 0.4413656, -0.534016, 0.45257, -0.24862821, -0.08870357, 0.12899017
298, 64516153, 0.5616516, 0.44128585, -0.53440845, 0.45190927, -0.28228167, 0.08959316, 0.121691704
299, 64532820, 0.56226355, 0.44111574, -0.53491235, 0.45071694, -0.08684886, -0.070837736, 0.14962196
300, 64549487, 0.56309944, 0.44084442, -0.5349743, 0.44986436, 0.5430529, 0.1997352, -0.059441566
301, 64566154, 0.5629338, 0.44142082, -0.5351509, 0.44929606, 0.8620358, 0.20243122, -0.23337936
302, 64582821, 0.5621738, 0.4427333, -0.5353129, 0.44876292, 0.6753402, 0.23689446, -0.0079574585
303, 64599488, 0.5613737, 0.44406614, -0.53517246, 0.4486149, 0.17683339, 0.23094633, 0.090312004
304, 64616155, 0.56083035, 0.44487476, -0.5355225, 0.44807523, -0.15220338, 0.19839524, 0.05101776
305, 64632822, 0.5606466, 0.4451718, -0.5362785, 0.44710502, -0.054310072, 0.13567549, 0.10691261
306, 64649489, 0.55996984, 0.4448326, -0.5374283, 0.4469103, 0.25141945, -0.03990332, 0.047351837
307, 64666156, 0.559296, 0.44549486, -0.5382731, 0.44607672, 0.17290537, 0.07234779, 0.07529545
308, 64682823, 0.55876285, 0.4461023, -0.53856874, 0.4457812, -0.088907644, -0.118194096, 0.10437584
309, 64699490, 0.55849147, 0.44678605, -0.5391887, 0.4446855, -0.21563189, -0.08475142, 0.23066616
310, 64716157, 0.5588118, 0.44719917, -0.53941065, 0.4435973, -0.028784892, 0.060596596, 0.19904995
311, 64732824, 0.5590817, 0.44749498, -0.53988475, 0.44238052, 0.15230799, 0.12629153, 0.01185894
312, 64749491, 0.5590797, 0.44781455, -0.5400182, 0.44189662, 0.24239488, 0.002459313, 0.04830551
313, 64766158, 0.5589483, 0.44820803, -0.54006886, 0.44160208, 0.031984035, -0.06333597, 0.10617924
314, 64782825, 0.5591254, 0.44847897, -0.5400652, 0.44110683, 0.017020065, -0.0688706, 0.13475132
315, 64799492, 0.55947185, 0.44859657, -0.5401958, 0.44038746, 0.10096639, 0.047481976, 0.058875084
316, 64816159, 0.55970776, 0.44880867, -0.5403219, 0.43971622, 0.2811802, 0.26771912, 0.008257866
317, 64832826, 0.5595207, 0.44918072, -0.54032105, 0.43957523, 0.23125097, 0.16327778, -0.036758423
318, 64849493, 0.55904734, 0.4496827, -0.54019284, 0.4398221, 0.10907768, 0.054999832, 0.13405609
319, 64866160, 0.55872875, 0.44990125, -0.54034704, 0.4398139, 0.096908286, 0.070913285, 0.09602928
320, 64882827, 0.5589377, 0.44951403, -0.5408625, 0.43931046, 0.0079926, 0.050549243, 0.118564606
321, 64899494, 0.5593127, 0.4488513, -0.541264, 0.43901625, -0.0056796875, 0.1183025, 0.018239975
322, 64916161, 0.55970645, 0.44803146, -0.5416356, 0.43889374, 0.040781055, 0.025668899, 0.056274414
323, 64932828, 0.5601148, 0.44720185, -0.5416456, 0.43920624, 0.15407754, -0.023437122, 0.024050713
324, 64949495, 0.56030184, 0.44672468, -0.5414956, 0.43963796, 0.22356123, -0.024003504, 0.028144836
325, 64966162, 0.560484, 0.44652626, -0.5413156, 0.4398292, 0.124616295, 0.058164775, 0.08917141
326, 64982829, 0.5603833, 0.4473731, -0.5408811, 0.43963122, 0.21754897, -0.035309907, 0.08143139
327, 64999496, 0.5601865, 0.4481591, -0.5407661, 0.4392228, 0.33545047, 0.06028189, -0.06229782
328, 65016163, 0.5595326, 0.44890833, -0.54038197, 0.43976358, 0.18030812, 0.08392375, -0.05795479
329, 65032830, 0.5589372, 0.44918433, -0.54047775, 0.4401212, -0.097815976, 0.2913952, 0.022815704
330, 65049497, 0.55865127, 0.4488619, -0.540815, 0.44039872, -0.2435471, 0.27853513, 0.10243893
331, 65066164, 0.5584903, 0.44843692, -0.5410354, 0.4407649, -0.18812571, 0.12440284, 0.15006256
332, 65082831, 0.55848736, 0.44819593, -0.54115176, 0.440871, 0.06871839, -0.2035262, 0.194026
333, 65099498, 0.558142, 0.44852728, -0.54109156, 0.44104525, 0.19026853, 0.09516511, 0.12482166
334, 65116165, 0.55767596, 0.44890407, -0.5410945, 0.44124764, -0.15394992, 0.18387696, 0.085092545
335, 65132832, 0.55765855, 0.4488513, -0.54096895, 0.44147736, -0.2674299, 0.188233, 0.25022602
336, 65149499, 0.5578675, 0.44867852, -0.54100853, 0.44134042, -0.15844543, 0.1451949, 0.1541214
337, 65166166, 0.5582832, 0.44799405, -0.5412392, 0.44122735, 0.085882396, 0.28737217, 0.09238434
338, 65182833, 0.5586372, 0.44723076, -0.5414281, 0.44132188, 0.010450795, 0.25183675, 0.023080826
339, 65199500, 0.5591832, 0.44647807, -0.5415157, 0.441285, 0.0032002586, 0.117187396, 0.13341331
340, 65216167, 0.5594974, 0.44582736, -0.5414361, 0.4416424, 0.056286372, -0.032448493, 0.08066559
341, 65232834, 0.55979466, 0.44520587, -0.5412819, 0.44208112, -0.13475193, -0.023034351, 0.20035744
342, 65249501, 0.5603287, 0.44453946, -0.5410282, 0.4423857, -0.2724985, 0.06290347, 0.2739458
343, 65266168, 0.5615664, 0.4430936, -0.54106975, 0.44221583, -0.187558, 0.3173106, 0.22199059
344, 65282835, 0.5629353, 0.4415835, -0.540982, 0.44209352, -0.099263445, -0.02520958, 0.20695877
345, 65299502, 0.5645262, 0.43954095, -0.5410024, 0.44207516, 0.19856958, 0.12873453, 0.13944817
346, 65316169, 0.565817, 0.43745324, -0.54121566, 0.44223472, 0.42707893, 0.026679847, 0.0099925995
347, 65332836, 0.5666563, 0.43571422, -0.5412873, 0.44278896, 0.3529918, -0.020170033, -0.010298729
348, 65349503, 0.5675063, 0.43390772, -0.5411057, 0.44369525, 0.03661388, -0.14942177, 0.088713646
349, 65366170, 0.56874657, 0.43181643, -0.5406687, 0.44467905, 0.003925558, -0.14986968, 0.08273888
350, 65382837, 0.57020813, 0.42925772, -0.5399924, 0.446104, -0.086722806, -0.31449255, 0.064175606
351, 65399504, 0.5716215, 0.42659026, -0.5391329, 0.4478901, -0.13912922, -0.3163106, 0.099962234
352, 65416171, 0.5732221, 0.42368948, -0.538794, 0.44900438, -0.15476663, -0.29653686, 0.2659216
353, 65432838, 0.5754233, 0.4201947, -0.5380877, 0.45031804, -0.10692524, -0.16664009, 0.48623466
354, 65449505, 0.5777837, 0.4163169, -0.53703356, 0.45215175, -0.04690777, -0.27963907, 0.4379549
355, 65466172, 0.5801194, 0.41231737, -0.53581077, 0.45427158, -0.041985568, -0.43791732, 0.4909544
356, 65482839, 0.5825507, 0.40828273, -0.53480756, 0.45598334, -0.011072162, -0.4402861, 0.54885197
357, 65499506, 0.5853314, 0.40399748, -0.53360873, 0.4576407, 0.11254905, -0.25043488, 0.49702835
358, 65516173, 0.58825344, 0.39923975, -0.5324798, 0.45938116, -0.103902906, -0.081723936, 0.3901043
359, 65532840, 0.59125364, 0.39396414, -0.5310158, 0.4617723, -0.3450546, -0.0849157, 0.6016655
360, 65549507, 0.5947156, 0.3878433, -0.5295356, 0.4642015, -0.42908072, -0.2621181, 0.63862705
361, 65566174, 0.59897804, 0.38041422, -0.5287867, 0.46571985, -0.19535926, 0.048006784, 0.5380001
362, 65582841, 0.60393184, 0.3717948, -0.528381, 0.4667426, -0.44534174, 0.23258646, 0.47202873
363, 65599508, 0.6091806, 0.36244997, -0.5275498, 0.46820968, -0.4831892, -0.23170918, 0.43553257
364, 65616175, 0.61434734, 0.3531679, -0.5265214, 0.46970764, -0.079706505, -0.8606878, 0.54857635
365, 65632842, 0.619709, 0.34342527, -0.5250124, 0.47157407, 0.33820572, -0.64993924, 0.45023918
366, 65649509, 0.6248195, 0.33362857, -0.5231816, 0.47389203, 0.39399055, -0.38609964, 0.3228321
367, 65666176, 0.62959677, 0.3238846, -0.52084297, 0.47689584, 0.13343768, -0.33003432, 0.58054733
368, 65682843, 0.63446325, 0.31392014, -0.5174728, 0.48076254, 0.0023245348, -0.45269755, 0.6741905
369, 65699510, 0.63945353, 0.30351433, -0.51385194, 0.48470038, -0.0065549645, -0.47079316, 0.7231293
370, 65716177, 0.6445253, 0.2926807, -0.51025975, 0.4884262, 0.14084736, -0.32165036, 0.7541046
371, 65732844, 0.64963126, 0.2814213, -0.50677323, 0.49189657, 0.12295716, -0.08757595, 0.6957321
372, 65749511, 0.6547582, 0.27003163, -0.50271577, 0.49563265, -0.19793212, -0.07324207, 0.5758896
373, 65766178, 0.66128117, 0.25836298, -0.49795154, 0.4979964, -0.097141415, -0.14866997, 0.6640558
374, 65782845, 0.6662957, 0.24670832, -0.49380782, 0.5013371, 0.09715684, -0.5012545, 0.48335552
375, 65799512, 0.6705812, 0.23547445, -0.48963082, 0.5051083, 0.64193434, -0.13647087, 0.69556236
376, 65816179, 0.67439985, 0.22458354, -0.48468855, 0.5097296, 0.59068996, -0.051492132, 0.63734245
377, 65832846, 0.677992, 0.21380161, -0.47953007, 0.51445776, 0.04397081, 0.15387392, 0.6489134
378, 65849513, 0.6817425, 0.20240867, -0.47465223, 0.5186167, -0.24530725, 0.28703088, 0.7198448
379, 65866180, 0.68562, 0.1908163, -0.46953723, 0.52254117, -0.09435778, 0.090755425, 0.60496426
380, 65882847, 0.6891804, 0.17912292, -0.46443483, 0.5265415, 0.14004248, 0.0022073023, 0.5425701
381, 65899514, 0.69257015, 0.16725144, -0.45929408, 0.5304927, 0.13171753, 0.2884038, 0.39701653
382, 65916181, 0.6958156, 0.1551999, -0.45411572, 0.53435266, -0.034376964, 0.5088845, 0.23105717
383, 65932848, 0.6989101, 0.14298645, -0.4489291, 0.53809136, -0.105296955, 0.41680428, 0.34574986
384, 65949515, 0.70189816, 0.13063367, -0.44387108, 0.5415279, 0.003208752, 0.13724534, 0.4999113
385, 65966182, 0.70468056, 0.11857044, -0.43850794, 0.54504776, 0.1390711, 0.11272675, 0.4674282
386, 65982849, 0.70707023, 0.10692349, -0.43310174, 0.54867303, 0.12995982, 0.27950832, 0.24478531
387, 65999516, 0.7091633, 0.09550357, -0.42777222, 0.5522477, -0.03505756, 0.44427443, 0.16449165
388, 66016183, 0.7111459, 0.08378787, -0.4225607, 0.5556022, -0.037331805, 0.38534236, 0.20614815
389, 66032850, 0.71294427, 0.07179853, -0.41749138, 0.558799, 0.048240352, 0.31249776, 0.3273945
390, 66049517, 0.7146014, 0.06005008, -0.41217247, 0.5620078, 0.15394656, 0.29117608, 0.3573637
391, 66066184, 0.7159835, 0.048896044, -0.40673253, 0.56528366, 0.3388441, 0.24244395, 0.100930214
392, 66082851, 0.717012, 0.03823054, -0.4014626, 0.56855977, 0.18506023, 0.3799727, -0.016705513
393, 66099518, 0.7178631, 0.027583567, -0.39638567, 0.5716557, -0.042928122, 0.5710516, -0.10375309
394, 66116185, 0.7186576, 0.016771259, -0.39134687, 0.5745412, -0.14778654, 0.5062971, -0.054501534
395, 66132852, 0.7192278, 0.0061653936, -0.3865778, 0.57726187, -0.011399608, 0.33748809, 0.010568619
396, 66149519, 0.7195719, -0.00394959, -0.3819429, 0.5799314, 0.13503021, 0.25569993, -0.031568527
397, 66166186, 0.71959925, -0.013820805, -0.3773763, 0.58272916, 0.071493074, 0.42547187, -0.16464138
398, 66182853, 0.7195942, -0.02391635, -0.37280294, 0.58534634, -0.07588913, 0.48424914, -0.22439957
399, 66199520, 0.71952105, -0.033972576, -0.36845225, 0.58768934, -0.17244963, 0.18937007, -0.16760159
400, 66216187, 0.718962, -0.04356719, -0.36461207, 0.59013015, 0.023475118, 0.18693902, -0.021855354
401, 66232854, 0.7183154, -0.05256162, -0.36016798, 0.59290737, 0.23236854, 0.31956142, 0.016753197
402, 66249521, 0.71773833, -0.061182432, -0.3556188, 0.5955198, 0.09903323, 0.24872203, -0.21521378
403, 66266188, 0.7171047, -0.0699158, -0.35146654, 0.5977828, -0.11622227, 0.27267042, -0.43848705
404, 66282855, 0.7161333, -0.07860513, -0.34776166, 0.60003036, -0.3818015, 0.3478077, -0.28566933
405, 66299522, 0.7151068, -0.08689397, -0.3438222, 0.6023772, -0.0834499, 0.27835333, 0.08512688
406, 66316189, 0.71418095, -0.09467149, -0.3395811, 0.6047046, 0.3634524, 0.01973826, 0.15786266
407, 66332856, 0.7132631, -0.10203247, -0.33549544, 0.6068674, 0.23177376, 0.07691265, -0.20970154
408, 66349523, 0.7121597, -0.10909928, -0.33154434, 0.6091014, -0.21442157, 0.28760228, -0.37650585
409, 66366190, 0.7108787, -0.11608322, -0.32766223, 0.6114033, -0.34211832, 0.29136986, -0.19784832
410, 66382857, 0.70961356, -0.12295246, -0.32350928, 0.61373717, 0.056761786, 0.055036712, 0.059976578
411, 66399524, 0.70824265, -0.12955695, -0.31949782, 0.61605906, 0.24274893, 0.05106198, 0.027394295
412, 66416191, 0.7069274, -0.13544843, -0.31544408, 0.6183871, 0.0048692296, 0.2228864, -0.0716486
413, 66432858, 0.70566726, -0.14128602, -0.3113535, 0.6205893, -0.22845975, 0.34118587, -0.31767273
414, 66449525, 0.7045119, -0.14756083, -0.30748174, 0.6223697, -0.377578, 0.19707495, -0.34545994
415, 66466192, 0.70307946, -0.15391773, -0.3040594, 0.6241286, -0.13386102, 0.095587045, -0.28691196
416, 66482859, 0.7016137, -0.1599269, -0.30052096, 0.6259783, 0.2058666, 0.1802204, -0.27583504
417, 66499526, 0.70018893, -0.16621083, -0.29741475, 0.62741846, 0.08244298, 0.19983019, -0.6672144
418, 66516193, 0.6985532, -0.17403704, -0.29571423, 0.6279233, -0.5160583, 0.23592843, -1.1119347
419, 66532860, 0.69649243, -0.18302251, -0.29504097, 0.6279746, -0.83313537, 0.32162666, -0.88091564
420, 66549527, 0.6942174, -0.19224574, -0.29467842, 0.62790805, -0.09423462, 0.10106306, -0.15369129
421, 66566194, 0.6920726, -0.20046173, -0.2943202, 0.6278745, 0.49435344, -0.23994184, 0.19273472
422, 66582861, 0.6900998, -0.20765227, -0.29358405, 0.62805367, 0.32897106, -0.10979314, 0.080088615
423, 66599528, 0.6883255, -0.21438673, -0.29225284, 0.62835866, -0.31377932, 0.19320482, 0.109360695
424, 66616195, 0.6867354, -0.22028188, -0.29047418, 0.6288844, -0.080593854, -0.12363329, 0.21101284
425, 66632862, 0.6852064, -0.22507954, -0.28843945, 0.629789, 0.19197997, -0.15875253, 0.19865513
426, 66649529, 0.68380344, -0.22905286, -0.2863432, 0.630837, 0.00893873, 0.05519373, -0.16319656
427, 66666196, 0.6823234, -0.23355404, -0.28443095, 0.6316538, -0.3037577, 0.14761175, -0.5243912
428, 66682863, 0.68072796, -0.23858483, -0.28284281, 0.6322078, -0.4042653, 0.030529412, -0.34852695
429, 66699530, 0.6790508, -0.24330798, -0.281238, 0.63292706, -0.05215686, -0.076911256, 0.0019741058
430, 66716197, 0.67755216, -0.24731857, -0.27955374, 0.6337242, 0.13287364, -0.13000977, -0.017762184
431, 66732864, 0.67593235, -0.25151742, -0.27848312, 0.6342726, -0.016165575, 0.062484834, -0.55175686
432, 66749531, 0.6741994, -0.25672156, -0.27817175, 0.63416874, -0.48804167, 0.10898425, -0.8468418
433, 66766198, 0.6721181, -0.26240796, -0.27836415, 0.63396597, -0.54452527, 0.0676548, -0.4930811
434, 66782865, 0.6699359, -0.26772082, -0.27870733, 0.63390356, 0.012287849, -0.10658405, 0.1242466
435, 66799532, 0.66809815, -0.27232662, -0.27897406, 0.63376385, 0.057154387, -0.07677189, 0.16096401
436, 66816199, 0.6665539, -0.27627367, -0.27921307, 0.63357633, -0.3059404, 0.100409955, -0.24083328
437, 66832866, 0.66519976, -0.27991888, -0.27917263, 0.6334173, -0.4187693, 0.003942657, -0.20796871
438, 66849533, 0.6639778, -0.2829645, -0.27874026, 0.63353646, -0.1362251, -0.14001901, 0.18879509
439, 66866200, 0.6628511, -0.28543666, -0.27811825, 0.63388073, -0.02991218, -0.17717917, 0.087257385
440, 66882867, 0.661888, -0.28739342, -0.2772564, 0.63438034, -0.123615295, 9.880391E-4, -0.047670364
441, 66899534, 0.66124123, -0.28887373, -0.27618018, 0.6348516, -0.23758008, -0.051719334, 0.024608612
442, 66916201, 0.660842, -0.28997064, -0.2748467, 0.63534594, -0.2570657, -0.08933925, -0.0030698776
443, 66932868, 0.6605143, -0.29076213, -0.2735898, 0.635867, -0.16351101, -0.16334684, -0.117650986
444, 66949535, 0.6600071, -0.29166138, -0.2726458, 0.6363871, -0.094224796, -0.1105903, -0.29614735
445, 66966202, 0.6594648, -0.29258242, -0.2719488, 0.63682455, -0.2231036, -0.10696626, -0.27632713
446, 66982869, 0.6587378, -0.29370567, -0.27157864, 0.6372181, -0.13797131, -0.10884656, -0.2704811
447, 66999536, 0.65808946, -0.29506147, -0.27130067, 0.63738, -0.14726341, -0.038788103, -0.2568884
448, 67016203, 0.65766317, -0.29606086, -0.2710093, 0.6374803, -0.29787168, -0.039633766, -0.13341522
449, 67032870, 0.65735334, -0.2966776, -0.27074516, 0.6376255, -0.09672568, -0.09931128, -0.033410072
450, 67049537, 0.65704244, -0.2974815, -0.27085447, 0.6375248, -0.119392686, -0.16807358, -0.24845314
451, 67066204, 0.6570534, -0.29801834, -0.2708396, 0.637269, -0.29130444, -0.09260656, -0.21572685
452, 67082871, 0.6568462, -0.298204, -0.27065477, 0.6374744, -0.09612979, -0.050605346, 0.22393227
453, 67099538, 0.65678245, -0.29809627, -0.27017793, 0.63779277, 0.1850485, -0.11686643, 0.30561066
454, 67116205, 0.6568551, -0.29779866, -0.2698413, 0.63799924, -0.12857382, -0.10713177, -0.08843708
455, 67132872, 0.6568135, -0.2975702, -0.2697337, 0.6381943, -0.37430474, -0.110880084, -0.2877617
456, 67149539, 0.65671694, -0.29725954, -0.26954612, 0.63851756, -0.1477433, -0.11717421, -0.089987755
457, 67166206, 0.65665275, -0.2969032, -0.26943412, 0.63879657, 0.017055603, -0.05788829, 0.048462868
458, 67182873, 0.6568557, -0.2966056, -0.26933712, 0.63876694, -0.12370135, -0.028078368, 0.03196907
459, 67199540, 0.6572041, -0.29619163, -0.26908588, 0.6387067, -0.23633154, -0.16692372, -0.04397583
460, 67216207, 0.6575133, -0.29557762, -0.26859096, 0.6388811, -0.19274148, -0.21977337, 0.14994907
461, 67232874, 0.6577361, -0.29472724, -0.26812083, 0.6392421, -0.002855825, -0.12566122, 0.23899269
462, 67249541, 0.65807563, -0.29410315, -0.267885, 0.6392789, -0.12670358, -0.055331077, -0.0049209595
463, 67266208, 0.6583462, -0.2937957, -0.26793393, 0.6391211, -0.3939351, -0.0985358, -0.25324154
464, 67282875, 0.65845495, -0.29345092, -0.26791647, 0.6391748, -0.14838031, -0.13077676, 0.0044612885
465, 67299542, 0.6585255, -0.29299787, -0.26784346, 0.6393407, 0.11589839, -0.015976036, 0.14310265
466, 67316209, 0.65880936, -0.292606, -0.2679215, 0.63919497, -0.0055916235, -0.030822884, -0.031327248
467, 67332876, 0.6589469, -0.29264778, -0.2684951, 0.63879305, -0.30829185, -0.3080934, -0.26810265
468, 67349543, 0.65849644, -0.29316407, -0.2694475, 0.63861996, -0.18396726, -0.2522393, -0.13163471
469, 67366210, 0.6578872, -0.29377168, -0.27031338, 0.6386026, 0.1628949, 0.040441763, 0.10264683
470, 67382877, 0.6575836, -0.29436642, -0.27128816, 0.6382281, 0.10544078, 0.013424858, 0.15127468
471, 67399544, 0.6573769, -0.29479167, -0.27234071, 0.6377964, 0.05835074, -0.18762058, 0.2500372
472, 67416211, 0.6572427, -0.29495585, -0.27299258, 0.6375799, 0.030667206, -0.22756614, 0.44514084
473, 67432878, 0.65698254, -0.29474097, -0.2735789, 0.63769627, -0.046495054, -0.23333254, 0.4314289
474, 67449545, 0.6569144, -0.2941673, -0.2740172, 0.63784325, -0.08042086, -0.16501, 0.16541386
475, 67466212, 0.65675503, -0.29391617, -0.27460065, 0.6378723, -0.11343171, -0.10927146, 0.047207832
476, 67482879, 0.6566486, -0.29376844, -0.27500868, 0.6378738, -0.038838506, -0.13480915, 0.08678818
477, 67499546, 0.6565621, -0.2936061, -0.27522078, 0.63794625, -0.09796283, -0.16624893, 0.19068527
478, 67516213, 0.6564945, -0.29327986, -0.27533334, 0.6381172, -0.14249767, -0.09507749, 0.28780556
479, 67532880, 0.65653723, -0.29263285, -0.2753045, 0.63838255, -0.16258086, 0.025277527, 0.23127747
480, 67549547, 0.65662575, -0.29202765, -0.27541643, 0.6385204, -0.22383302, 0.034721844, -0.011713028
481, 67566214, 0.6568059, -0.29170483, -0.27571574, 0.6383537, -0.3416218, 0.054582532, -0.17482948
482, 67582881, 0.656943, -0.2913748, -0.27600428, 0.6382385, -0.26043618, -0.060888506, -0.16396332
483, 67599548, 0.6570841, -0.29072973, -0.27612394, 0.6383356, -0.095328726, -0.0594017, 0.001914978
484, 67616215, 0.65736026, -0.28994417, -0.27624068, 0.6383581, -0.2155009, 0.0696615, -0.12506104
485, 67632882, 0.6578806, -0.28912562, -0.27643442, 0.6381095, -0.36332288, 0.052818123, -0.18481445
486, 67649549, 0.6582397, -0.28827533, -0.27698988, 0.6378828, -0.113649294, -0.13096753, -0.03616619
487, 67666216, 0.6584134, -0.28751415, -0.2775087, 0.6378215, -0.03613109, -0.20938648, 0.02680397
488, 67682883, 0.65846276, -0.28646094, -0.27793306, 0.63805974, -0.02384995, -0.05180896, 0.0108213425
489, 67699550, 0.6586475, -0.28545168, -0.2784489, 0.63809663, -0.006452707, 0.0385875, -0.05051136
490, 67716217, 0.6589257, -0.28452125, -0.27930152, 0.6378521, -0.17022479, -0.029596692, -0.19186878
491, 67732884, 0.6590687, -0.28359902, -0.2804079, 0.6376296, -0.1745273, -0.09898137, -0.19433594
492, 67749551, 0.659064, -0.2825819, -0.28176913, 0.63748604, 0.014875458, -0.061397556, -0.05186367
493, 67766218, 0.65919656, -0.28135023, -0.2830152, 0.6373417, 0.050944302, -0.007149844, -0.06897068
494, 67782885, 0.65958166, -0.27989155, -0.28417385, 0.6370699, -0.020541511, -0.017315324, -0.10533333
495, 67799552, 0.66018414, -0.27819273, -0.28547457, 0.6366083, -0.28690168, -0.08151652, -0.20042801
496, 67816219, 0.66084075, -0.2761137, -0.28672156, 0.63627183, -0.24974555, -0.06737876, -0.20452118
497, 67832886, 0.6615153, -0.27360734, -0.2878045, 0.6361643, 0.17581931, 0.0072419317, -0.20628452
498, 67849553, 0.66241574, -0.27072802, -0.28894937, 0.6359403, 0.068220735, 0.0751835, -0.29609966
499, 67866220, 0.6633644, -0.2678834, -0.29051176, 0.6354441, -0.2260229, 0.15904142, -0.55846024
500, 67882887, 0.6643065, -0.26533243, -0.29252994, 0.63460374, -0.28162855, 0.050603222, -0.56436634
501, 67899554, 0.66511506, -0.26248688, -0.2948197, 0.63388, 0.04096523, -0.11528709, -0.27062702
502, 67916221, 0.66590047, -0.25919622, -0.2969418, 0.6334189, 0.4203027, -0.029242424, -0.039769173
503, 67932888, 0.66666436, -0.25589225, -0.2995321, 0.632739, 0.14915232, 0.04106559, -0.37455368
504, 67949555, 0.66733694, -0.2528664, -0.30285224, 0.6316648, -0.30986986, 0.21215235, -0.7225847
505, 67966222, 0.66804475, -0.24999774, -0.30673102, 0.63018525, -0.43174836, 0.12875018, -0.7099199
506, 67982889, 0.6687327, -0.24694069, -0.31086978, 0.628631, 0.11509845, 0.027931409, -0.14566231
507, 67999556, 0.66970134, -0.24338616, -0.3146095, 0.62712395, 0.5105096, -0.14599632, 0.11879635
508, 68016223, 0.67071915, -0.23936751, -0.318205, 0.62576735, 0.21898526, 0.03631739, -0.2280531
509, 68032890, 0.6719682, -0.23518007, -0.32187355, 0.62413675, -0.4335465, 0.27255973, -0.51998234
510, 68049557, 0.67324394, -0.2308266, -0.3261167, 0.6221815, -0.16956207, 0.08186386, -0.40367794
511, 68066224, 0.6745044, -0.22605997, -0.33059442, 0.6202, 0.20246877, -0.3640209, -0.1553917
512, 68082891, 0.67562723, -0.21999542, -0.33448333, 0.6190725, 0.16424626, -0.119061664, -0.04973221
513, 68099558, 0.6768964, -0.21348754, -0.33774412, 0.6181937, 0.017956585, 0.29460728, -0.22329521
514, 68116225, 0.67830473, -0.20713474, -0.34136862, 0.6168189, -0.11972516, 0.3214418, -0.3294649
515, 68132892, 0.67962444, -0.20082435, -0.3457405, 0.6150152, 0.030245103, 0.021208586, -0.5167141
516, 68149559, 0.6806046, -0.19416489, -0.3504114, 0.61342436, 0.13093814, -0.03730487, -0.49026775
517, 68166226, 0.6813208, -0.18729295, -0.35523647, 0.611989, -0.09707838, 0.26979846, -0.44930553
518, 68182893, 0.6820943, -0.18054245, -0.36032355, 0.6101793, -0.29121593, 0.57511926, -0.4150095
519, 68199560, 0.6831544, -0.17370075, -0.36556703, 0.60785615, -0.028372735, 0.13314578, -0.24580097
520, 68216227, 0.68400365, -0.16611375, -0.3709105, 0.605781, 0.23993714, -0.2240173, -0.046874046
521, 68232894, 0.68469703, -0.15754783, -0.37573734, 0.60430944, 0.06376422, 0.07707106, -0.19535542
522, 68249561, 0.6852615, -0.14967367, -0.38074017, 0.6025378, -0.016707594, 0.5741489, -0.39491463
523, 68266228, 0.6861764, -0.14227031, -0.38616988, 0.5998283, -0.30547783, 0.37217152, -0.55057144
524, 68282895, 0.68674225, -0.13466176, -0.39253417, 0.5967983, -0.15248837, 0.054889083, -0.37780857
525, 68299562, 0.68701345, -0.12646759, -0.3988785, 0.5940661, -0.049663685, 0.22487442, 0.09338474
526, 68316229, 0.68729895, -0.118005246, -0.4046556, 0.59156466, 0.2332208, 0.37802583, 0.30682468
527, 68332896, 0.68789136, -0.110164985, -0.41055825, 0.5883122, -0.0018502403, 0.17575902, 0.16181278
528, 68349563, 0.6884692, -0.10186001, -0.41653302, 0.584923, -0.2607073, -0.19790977, -0.083067894
529, 68366230, 0.68849933, -0.09296507, -0.42250535, 0.58207864, -0.01320224, -0.19640703, 0.15223217
530, 68382897, 0.6882807, -0.08405881, -0.4279854, 0.579683, 0.20170994, 0.16018508, 0.23767567
531, 68399564, 0.6883083, -0.07560654, -0.43325216, 0.57689524, 0.08689401, 0.29556808, -0.056325912
532, 68416231, 0.688667, -0.066775344, -0.43856966, 0.573529, -0.58287865, -0.023448298, -0.38819695
533, 68432898, 0.6886881, -0.05791046, -0.44430956, 0.57003874, -0.48121646, -0.20490986, -0.31176376
534, 68449565, 0.68809325, -0.049677726, -0.45017087, 0.566927, -0.07966449, 0.13454574, 0.104022026
535, 68466232, 0.6872597, -0.042406045, -0.45581967, 0.56400746, -0.03872943, 0.8110569, 0.5545664
536, 68482899, 0.6870074, -0.0360614, -0.46173817, 0.5599271, -0.40825424, 0.6805308, 0.66570663
537, 68499566, 0.68704194, -0.030002905, -0.4683402, 0.5547348, -0.2957968, -0.13564841, 0.40619278
538, 68516233, 0.6866443, -0.024090948, -0.47520483, 0.54965407, -0.26723722, -0.34573486, 0.39425564
539, 68532900, 0.6857243, -0.018108383, -0.4812825, 0.5457302, -0.13461515, -0.005668093, 0.64768505
540, 68549567, 0.6850309, -0.011039915, -0.48594368, 0.5426506, 0.11778082, 0.023290748, 1.0434008
541, 68566234, 0.68467844, -0.0019888706, -0.48944813, 0.54004824, 0.012180786, -0.075330295, 0.89315414
542, 68582901, 0.68423086, 0.00880602, -0.49202663, 0.5382013, -0.1622427, -0.07138494, 0.6931257
543, 68599568, 0.68363345, 0.020589225, -0.49403143, 0.5368001, -0.31983274, 0.026685527, 0.3630514
544, 68616235, 0.68304425, 0.032408144, -0.4959964, 0.5351525, -0.46779227, 0.36631718, -0.032265663
545, 68632902, 0.6823438, 0.044429895, -0.4976946, 0.5336041, -0.67690945, 0.45994222, 0.11567497
546, 68649569, 0.68164724, 0.05715919, -0.49899855, 0.5320623, -0.12270705, 0.021650331, 0.67359734
547, 68666236, 0.6804936, 0.07123571, -0.4998651, 0.5310265, 0.6532314, -0.15045275, 0.55276966
548, 68682903, 0.67851335, 0.086250454, -0.50105715, 0.53020966, 0.10097622, 0.5542739, -0.049096107
549, 68699570, 0.6758543, 0.10073742, -0.5033899, 0.52883977, -0.57201165, 1.0107014, 0.17511272
550, 68716237, 0.6737589, 0.11324161, -0.506158, 0.52633566, -0.29504514, 0.38984874, 0.31964397
551, 68732904, 0.6713679, 0.12509492, -0.5094042, 0.5235685, 0.32539016, 0.02648757, 0.30772686
552, 68749571, 0.6683972, 0.13718668, -0.5122332, 0.52157676, 0.6372417, 0.08641346, 0.3532219
553, 68766238, 0.6653872, 0.14927965, -0.5143079, 0.52006066, 0.3122275, 0.26427892, 0.3938036
554, 68782905, 0.6625781, 0.1611685, -0.51627696, 0.5181438, -0.28876913, 0.044301387, 0.29327297
555, 68799572, 0.65952086, 0.17386393, -0.51824504, 0.51597077, -0.26041383, -0.30928382, 0.40233135
556, 68816239, 0.6564247, 0.18620051, -0.52002656, 0.5138177, 0.13588314, -0.0018338121, 0.35864925
557, 68832906, 0.65314305, 0.19845796, -0.5215253, 0.5118888, 0.1263492, 0.05528526, 0.08455753
558, 68849573, 0.64925194, 0.211049, -0.52309245, 0.51020044, -0.040399965, 0.19640228, 0.1301384
559, 68866240, 0.64531296, 0.22275701, -0.5250823, 0.5081723, -0.2632576, 0.34617576, 0.20916367
560, 68882907, 0.6418127, 0.23297134, -0.5273945, 0.5056244, -0.37282988, 0.19251294, 0.24961281
561, 68899574, 0.6383771, 0.24212433, -0.53036445, 0.5025576, -0.376582, 0.0755067, 0.24247265
562, 68916241, 0.6353046, 0.2500336, -0.53362083, 0.49911958, -0.18481392, 0.34839925, 0.44756317
563, 68932908, 0.6326363, 0.2573938, -0.5365175, 0.4956497, -0.109946914, -0.029224655, 0.5277786
564, 68949575, 0.62960374, 0.26557934, -0.5386289, 0.49289528, -0.03638344, -0.58850926, 0.6387491
565, 68966242, 0.62610275, 0.2749648, -0.540131, 0.4905592, 0.2522442, -0.83576465, 0.77647495
566, 68982909, 0.62232864, 0.28506944, -0.5406354, 0.48903593, 0.17506294, -0.75740427, 0.6053457
567, 68999576, 0.6186476, 0.29435834, -0.5412906, 0.48747602, -0.021022512, -0.2990202, -0.0018053055
568, 69016243, 0.61492187, 0.3025211, -0.5431509, 0.48511782, -0.5736856, 0.097916335, -0.11580467
569, 69032910, 0.6113492, 0.3096811, -0.5454564, 0.48252165, -0.43642515, -0.2013246, 0.22750854
570, 69049577, 0.607964, 0.3161641, -0.54808867, 0.479603, 0.20904407, -0.6832594, 0.47547436
571, 69066244, 0.6049225, 0.32176933, -0.5509372, 0.47644693, 0.32843798, -0.43588233, 0.49665737
572, 69082911, 0.602129, 0.3265999, -0.55376965, 0.47340518, 0.1323085, -0.31582448, 0.6185236
573, 69099578, 0.5991103, 0.3319045, -0.55575275, 0.47121704, 0.25837538, -0.4398355, 0.7363558
574, 69116245, 0.5954996, 0.3380582, -0.55717844, 0.46973324, 0.605453, -0.37220094, 0.87347317
575, 69132912, 0.59186125, 0.34458295, -0.55783325, 0.46881267, 0.41246343, -0.17679696, 0.7420187
576, 69149579, 0.58743244, 0.3518426, -0.55809563, 0.46867812, -0.24183342, -0.21254316, 0.59053135
577, 69166246, 0.58306146, 0.35811684, -0.5588307, 0.46850833, -0.30125836, 0.28418064, 0.5462837
578, 69182913, 0.5797323, 0.3636184, -0.5596056, 0.46747613, -0.5992023, 0.1598815, 0.3723421
579, 69199580, 0.5766, 0.36872384, -0.5605897, 0.4661699, -0.22074452, -0.02694404, 0.26726055
580, 69216247, 0.57344735, 0.37349933, -0.56178206, 0.46481976, -0.009585801, 0.091978714, 0.222188
581, 69232914, 0.57049847, 0.37790194, -0.5628616, 0.4635823, -0.23339021, 0.04192656, 0.24411964
582, 69249581, 0.567894, 0.3819793, -0.5636144, 0.4625226, -0.27004054, -0.014019403, 0.15537643
583, 69266248, 0.5650005, 0.38614145, -0.564304, 0.46176907, -0.1053164, -0.3498065, 0.10377979
584, 69282915, 0.5622617, 0.3897274, -0.5650778, 0.4611523, -0.0015379926, -0.1857795, 0.15288162
585, 69299582, 0.5594564, 0.3932905, -0.56595767, 0.4604596, 0.013945197, -0.26733, 0.1758318
586, 69316249, 0.55657953, 0.39692962, -0.56639355, 0.4602875, -0.04438006, -0.31419575, 0.17320347
587, 69332916, 0.5536834, 0.40045735, -0.56689394, 0.46010873, -0.1259614, -0.09544584, 0.20981407
588, 69349583, 0.55115736, 0.40342498, -0.5673523, 0.4599842, -0.20313103, -0.07628989, 0.20928669
589, 69366250, 0.54898083, 0.4060638, -0.5680166, 0.45944455, -0.19506803, -0.1109002, 0.29934692
590, 69382917, 0.5474448, 0.40823787, -0.5684076, 0.45886695, -0.06279999, -0.23502164, 0.2934656
591, 69399584, 0.5457588, 0.4106237, -0.56887144, 0.4581711, -0.00758603, -0.020815762, 0.13246632
592, 69416251, 0.54434264, 0.4125289, -0.56918466, 0.45775512, -0.09274938, 0.0018312417, 0.09742832
593, 69432918, 0.5428569, 0.41466835, -0.5690115, 0.45780197, -0.13650182, -0.36949888, 0.13219643
594, 69449585, 0.5416567, 0.41678742, -0.56839514, 0.4580647, 0.04894934, -0.37731043, 0.1414442
595, 69466252, 0.5404542, 0.41889527, -0.5676667, 0.4584655, 0.2989403, -0.25246638, 0.011599541
596, 69482919, 0.5386146, 0.42150036, -0.56668985, 0.4594503, 0.30579993, -0.25279963, 0.06884956
597, 69499586, 0.5366231, 0.42425513, -0.5649413, 0.46139458, 0.1432309, -0.1193548, 0.15294647
598, 69516253, 0.5345964, 0.42701277, -0.5632796, 0.4632311, 0.13568577, -0.0068242974, 0.01941204
599, 69532920, 0.5327337, 0.42923045, -0.5622167, 0.4646169, 0.03952089, 0.2455985, 0.015420914
600, 69549587, 0.53106713, 0.43092284, -0.5615453, 0.46576855, -0.16695568, 0.24353972, 0.07803154
601, 69566254, 0.52977824, 0.43209842, -0.56094867, 0.46686453, -0.16842036, -0.045288865, 0.24199486
602, 69582921, 0.52862185, 0.4332751, -0.56068, 0.4674075, -0.039278157, -0.027642965, 0.20136547
603, 69599588, 0.52759457, 0.4342786, -0.56046844, 0.4678904, -0.26200813, 0.099073015, 0.1497879
604, 69616255, 0.52666414, 0.43520296, -0.5599857, 0.46865714, -0.4496846, 0.10092035, 0.097169876
605, 69632922, 0.5264116, 0.43579185, -0.558813, 0.4697917, -0.35455883, 0.06490213, 0.15615463
606, 69649589, 0.5262552, 0.43659696, -0.5580067, 0.47017774, -0.27380785, -0.1472139, -0.03386593
607, 69666256, 0.5262644, 0.43723404, -0.55756265, 0.4701022, -0.21737999, 0.2098704, 0.055529594
608, 69682923, 0.5264542, 0.4375733, -0.55702215, 0.47021514, -0.28474233, 0.15851495, -0.040154457
609, 69699590, 0.5266731, 0.43789682, -0.5566, 0.47016868, -0.056143325, 0.16680638, 0.06327057
610, 69716257, 0.5269582, 0.43799728, -0.55627495, 0.4701403, 0.054307166, 0.17603455, -0.020924568
611, 69732924, 0.5270646, 0.43836084, -0.55611736, 0.46986842, 0.032940444, 0.14256796, -0.00996685
612, 69749591, 0.5273516, 0.4381897, -0.5561227, 0.46969965, -0.1367506, 0.2254801, -0.021448135
613, 69766258, 0.5275774, 0.4379109, -0.55624086, 0.4695659, -0.041481994, 0.103605404, 0.017643929
614, 69782925, 0.5277737, 0.437705, -0.55658376, 0.4691309, 0.021681651, 0.12565094, 0.07512379
615, 69799592, 0.5277881, 0.43785667, -0.5569371, 0.46855342, 0.094199315, -0.037567835, 0.15404034
616, 69816259, 0.5280378, 0.43782422, -0.55707, 0.46814436, 0.05285031, 0.15393159, 0.20393848
617, 69832926, 0.5283391, 0.4377629, -0.55735713, 0.4675196, -0.053621653, 0.14411266, 0.08146286
618, 69849593, 0.5284126, 0.43781212, -0.55757743, 0.46712747, -0.14383617, 0.04231592, 0.06867409
619, 69866260, 0.52853066, 0.43776956, -0.5578373, 0.4667236, -0.099476896, 0.108551525, 0.07298851
620, 69882927, 0.5286358, 0.43770626, -0.5582113, 0.46621642, -0.080827646, 0.08205652, 0.13070202
621, 69899594, 0.5289912, 0.4376228, -0.55843747, 0.46562037, 0.025722764, 0.11440354, 0.18612194
622, 69916261, 0.52949613, 0.43726173, -0.5588164, 0.46493062, -0.04798756, 0.08967228, 0.009400368
623, 69932928, 0.5296697, 0.43714386, -0.55915594, 0.46443486, -0.039004352, 0.09356252, 0.115231514
624, 69949595, 0.52996224, 0.43686587, -0.5595217, 0.46392226, -0.062786356, 0.16460477, 0.107803345
625, 69966262, 0.5303889, 0.4364544, -0.5600637, 0.46316728, -0.06070925, 0.12860109, 0.08720589
626, 69982929, 0.5307586, 0.4361429, -0.5605795, 0.46241274, -0.07911666, 0.04972426, 0.07069492
627, 69999596, 0.53102374, 0.43612522, -0.56079656, 0.46186122, 0.10577796, -0.049773205, 0.16145897
628, 70016263, 0.53131455, 0.43599108, -0.5610198, 0.461382, 0.12742384, 0.054593038, 0.015281677
629, 70032930, 0.5313236, 0.43600082, -0.5612912, 0.46103227, 0.09672166, 0.09932715, 0.1543436
630, 70049597, 0.5314178, 0.43573588, -0.561248, 0.4612267, -0.109985806, 0.089810185, 0.076434135
631, 70066264, 0.53176314, 0.435513, -0.56096685, 0.4613815, -0.2837649, 0.03507656, 0.11683178
632, 70082931, 0.5326695, 0.4347659, -0.56087935, 0.46114686, -0.2336258, 0.011159108, 0.02062893
633, 70099598, 0.5336073, 0.4337818, -0.5610661, 0.46076196, -0.13845243, 0.05901882, 0.08358383
634, 70116265, 0.53452086, 0.43274266, -0.56139046, 0.46028492, -0.14144413, 0.0015721901, 0.11297226
635, 70132932, 0.53575087, 0.43138373, -0.56176776, 0.45966956, -0.038137347, 0.013900047, 0.3249836
636, 70149599, 0.53729486, 0.42977366, -0.5619642, 0.4591351, 0.13404809, -0.080630735, 0.28794765
637, 70166266, 0.53887427, 0.42773727, -0.5621835, 0.4589174, -0.029689897, 5.679464E-4, 0.2252903
638, 70182933, 0.54053617, 0.42552456, -0.56229347, 0.45888522, -0.15955137, -0.08328652, 0.31664848
639, 70199600, 0.54269755, 0.42283762, -0.5623011, 0.4588085, -0.21188268, -0.09893868, 0.33573914
640, 70216267, 0.54551774, 0.41971073, -0.56161106, 0.45918038, -0.18257476, -0.33578083, 0.41454124
641, 70232934, 0.5484431, 0.4167239, -0.5603845, 0.4599136, -0.023601403, -0.6940082, 0.38680077
642, 70249601, 0.55117625, 0.4136778, -0.5588052, 0.4613157, 0.15777177, -0.69533765, 0.43033695
643, 70266268, 0.5536771, 0.4106458, -0.55731046, 0.46283564, 0.16403817, -0.5623262, 0.5575285
644, 70282935, 0.5566133, 0.40710506, -0.5553753, 0.4647639, -0.14467412, -0.4927095, 0.62970066
645, 70299602, 0.5604195, 0.4026763, -0.55260986, 0.4673375, -0.33561006, -0.6026372, 0.59668255
646, 70316269, 0.564602, 0.3974002, -0.5498789, 0.4700332, -0.2367903, -0.6816369, 0.43115234
647, 70332936, 0.56883013, 0.39132726, -0.5475756, 0.4727119, -0.078180365, -0.49750766, 0.47884178
648, 70349603, 0.5733043, 0.38452733, -0.54523945, 0.47557846, -0.11858569, -0.4359562, 0.60356045
649, 70366270, 0.5781398, 0.37695405, -0.5424218, 0.4789974, -0.28598526, -0.45359698, 0.6230469
650, 70382937, 0.5836046, 0.36823532, -0.539244, 0.48272616, -0.3210578, -0.4956078, 0.7235489
651, 70399604, 0.5894875, 0.3584314, -0.53615165, 0.48638758, -0.26872492, -0.54576457, 0.755682
652, 70416271, 0.5953882, 0.34781426, -0.53322434, 0.49011242, -0.08307976, -0.443806, 0.8508377
653, 70432938, 0.60142606, 0.33665767, -0.5297883, 0.49423942, -0.12732683, -0.41388252, 0.85620785
654, 70449605, 0.6075747, 0.32486606, -0.5261489, 0.4984802, -0.3089843, -0.38293022, 0.8955145
655, 70466272, 0.6142917, 0.31188536, -0.5226621, 0.5021929, -0.3082617, -0.32365614, 0.86987305
656, 70482939, 0.6210295, 0.29856598, -0.51911104, 0.50567245, -0.035993632, -0.27563998, 0.755764
657, 70499606, 0.6274415, 0.28506735, -0.5150663, 0.50966704, 0.3111553, -0.34285557, 0.8142462
658, 70516273, 0.63333756, 0.27167484, -0.5106034, 0.5141604, 0.26173413, -0.3988353, 0.8197613
659, 70532940, 0.6388544, 0.25830987, -0.50637496, 0.5183875, 0.07725882, -0.19038755, 0.8893814
660, 70549607, 0.64410293, 0.24477573, -0.50201946, 0.5226786, 0.28659078, -0.15621041, 0.8894329
661, 70566274, 0.6489314, 0.23133251, -0.49720827, 0.5274064, 0.30800375, -0.18249978, 0.8591213
662, 70582941, 0.65346515, 0.21780507, -0.49207914, 0.5323557, 0.27373832, -0.17113169, 0.74804974
663, 70599608, 0.6577093, 0.20403124, -0.48691347, 0.53731275, 0.22463655, -0.022629792, 0.70813084
664, 70616275, 0.6617948, 0.19017945, -0.48125786, 0.54244864, 0.09556967, 0.022099955, 0.8832035
665, 70632942, 0.6657863, 0.17639336, -0.475023, 0.5476926, 0.25680453, -0.17186704, 0.7903919
666, 70649609, 0.66935927, 0.16311882, -0.46852487, 0.5530235, 0.4197122, -0.17263426, 0.6864815
667, 70666276, 0.67248726, 0.15034689, -0.46176603, 0.5585061, 0.09084997, 0.23444721, 0.5802183
668, 70682943, 0.6755308, 0.13715328, -0.45487103, 0.56386137, -0.009803502, 0.48775142, 0.6122732
669, 70699610, 0.6785841, 0.12373321, -0.4481156, 0.56868815, -0.20015116, 0.3884264, 0.48661518
670, 70716277, 0.681613, 0.11012994, -0.44176027, 0.5728206, -0.03965254, 0.56678283, 0.31854248
671, 70732944, 0.68409747, 0.096587345, -0.43548745, 0.57708967, 0.0036280623, 0.568468, 0.29702377
672, 70749611, 0.68622607, 0.08321915, -0.4291121, 0.58140475, -0.027099606, 0.4312837, 0.44343185
673, 70766278, 0.6880265, 0.06985726, -0.42277202, 0.58566517, 0.31613696, 0.37745872, 0.4293785
674, 70782945, 0.6895545, 0.05706223, -0.41621825, 0.5899332, 0.36973983, 0.4986003, 0.26013184
675, 70799612, 0.6906767, 0.04505526, -0.409498, 0.5943463, 0.10045365, 0.6639174, 0.20518494
676, 70816279, 0.6915803, 0.033478364, -0.40260962, 0.59875005, -0.016749837, 0.6437277, 0.14325237
677, 70832946, 0.6922942, 0.022031883, -0.39593136, 0.60289466, 0.013854451, 0.5740181, 0.053739548
678, 70849613, 0.6928574, 0.010803768, -0.38924173, 0.6068961, 0.06418778, 0.6567013, 0.01561451
679, 70866280, 0.6933646, -1.4947428E-4, -0.382604, 0.6106225, 0.14965622, 0.6065068, -0.2495575
680, 70882947, 0.6936209, -0.011252997, -0.37668398, 0.6138997, -0.080527246, 0.6518078, -0.5746174
681, 70899614, 0.6935774, -0.022634244, -0.3712664, 0.6169276, -0.39004576, 0.7712109, -0.5816183
682, 70916281, 0.6933185, -0.034160264, -0.36622447, 0.61969537, -0.17407279, 0.5975383, -0.33248234
683, 70932948, 0.69303066, -0.04497482, -0.3612615, 0.62223476, 0.18341741, 0.3590796, -0.3001852
684, 70949615, 0.69253325, -0.05514146, -0.35641766, 0.6247592, 0.28532523, 0.33504006, -0.41334248
685, 70966282, 0.69190603, -0.0652283, -0.35176215, 0.6271162, -0.06809121, 0.4562482, -0.5565872
686, 70982949, 0.6911561, -0.0750642, -0.34713352, 0.6294181, -0.34111407, 0.40191075, -0.37287617
687, 70999616, 0.6902759, -0.08474019, -0.34274068, 0.6315594, 0.059626326, 0.16984722, -0.2031269
688, 71016283, 0.6893991, -0.09351933, -0.33829153, 0.63367337, 0.2859562, -0.02922527, -0.13688946
689, 71032950, 0.688367, -0.10143359, -0.33369383, 0.6360116, 0.2685155, 0.23882778, -0.35291767
690, 71049617, 0.6874053, -0.108910315, -0.32884488, 0.6383369, 0.0070071314, 0.41460285, -0.44394684
691, 71066284, 0.6865118, -0.11627432, -0.32435974, 0.64029115, -0.14930665, 0.16268675, -0.48761082
692, 71082951, 0.68546206, -0.12387923, -0.32063377, 0.6418644, 0.055502515, 0.084608816, -0.54413414
693, 71099618, 0.68433315, -0.13128375, -0.31695387, 0.643423, 0.0046499637, 0.15892163, -0.5279989
694, 71116285, 0.6831361, -0.138179, -0.31318253, 0.64509577, -0.1233825, 0.1865713, -0.49117756
695, 71132952, 0.6819425, -0.14487755, -0.3096612, 0.64658725, -0.085779354, 0.086295225, -0.33016396
696, 71149619, 0.68079686, -0.15124097, -0.30629632, 0.6479386, 0.08852633, -0.096381694, -0.18223953
697, 71166286, 0.67960197, -0.15689471, -0.30287775, 0.6494539, 0.14591485, -0.09922299, -0.12887764
698, 71182953, 0.67852455, -0.16188747, -0.29877043, 0.6512551, -0.0032822879, 0.004454725, -0.18150616
699, 71199620, 0.6773086, -0.16686545, -0.29509482, 0.65293807, -0.06924677, 0.088856906, -0.34336948
700, 71216287, 0.67614114, -0.17192563, -0.29170632, 0.6543564, -0.17590871, 0.08885467, -0.29076385
701, 71232954, 0.674983, -0.17660576, -0.2884219, 0.65576017, -0.09993935, 0.0071869474, -0.018450737
702, 71249621, 0.67380035, -0.18071283, -0.28500178, 0.6573508, 0.1619396, -0.06787451, 0.013469696
703, 71266288, 0.6726246, -0.18466769, -0.28157818, 0.65892947, -9.923975E-4, 0.06160386, -0.25258923
704, 71282955, 0.6715632, -0.18879473, -0.2783548, 0.6602107, -0.40418184, 0.120242596, -0.40578175
705, 71299622, 0.67034805, -0.19299231, -0.2755117, 0.66142344, -0.29042402, 0.06431988, -0.26220703
706, 71316289, 0.66909623, -0.19688407, -0.2726749, 0.66271824, 0.14145061, -0.03714182, -0.1568737
707, 71332956, 0.6679389, -0.20047121, -0.26986063, 0.66396105, -0.090386294, 0.009321161, -0.24126339
708, 71349623, 0.6668115, -0.2040347, -0.26733842, 0.6650284, -0.40296736, 0.09403257, -0.3540907
709, 71366290, 0.6657028, -0.20773646, -0.2651283, 0.6658774, -0.3402541, 0.051356126, -0.29875088
710, 71382957, 0.664571, -0.21119513, -0.26292256, 0.6667939, -0.10972866, -0.019054703, -0.027230263
711, 71399624, 0.6635704, -0.2140557, -0.2604889, 0.6678325, -0.08023679, -0.035380647, 0.08648777
712, 71416291, 0.6627547, -0.21657322, -0.2578996, 0.668835, -0.19132218, -0.05984984, -0.09511948
713, 71432958, 0.66208667, -0.21891212, -0.2554049, 0.6696919, -0.29166922, -0.08811786, -0.31325912
714, 71449625, 0.6614544, -0.22106247, -0.2529923, 0.67052555, -0.37375423, -0.04837301, -0.35487556
715, 71466292, 0.6608216, -0.22312471, -0.25051078, 0.6713976, -0.15268941, -0.0423566, -0.28350163
716, 71482959, 0.6603557, -0.22492194, -0.24809986, 0.6721512, -0.20256533, -0.060402587, -0.20836353
717, 71499626, 0.6598609, -0.22648546, -0.24629778, 0.67277443, -0.24899712, -0.0107839415, -0.4379797
718, 71516293, 0.65948886, -0.22818656, -0.2448181, 0.6731044, -0.294905, -0.099626094, -0.669096
719, 71532960, 0.6589614, -0.22996177, -0.24378517, 0.6733916, -0.30352166, -0.32635194, -0.54195404
720, 71549627, 0.6581353, -0.23176566, -0.24315913, 0.6738073, -9.171854E-4, -0.1797442, -0.35443497
721, 71566294, 0.6573101, -0.23346846, -0.24279605, 0.67415595, -0.03504482, -0.05827363, -0.28344822
722, 71582961, 0.656654, -0.23481905, -0.24272351, 0.6743524, -0.24493387, -0.13582782, -0.28829193
723, 71599628, 0.65593165, -0.23617586, -0.2429978, 0.67448276, -0.067388035, -0.1801425, -0.43499088
724, 71616295, 0.6552273, -0.23761852, -0.24324995, 0.6745697, -0.09963526, -0.08297304, -0.39309502
725, 71632962, 0.6545829, -0.23886146, -0.2436062, 0.67462796, -0.09887297, -0.07252113, -0.2123766
726, 71649629, 0.65418047, -0.2397121, -0.24401355, 0.6745692, -0.048802823, -0.16739802, -0.14375591
727, 71666296, 0.65383214, -0.24050261, -0.24455664, 0.6744288, 0.013562431, -0.2825255, -0.24479294
728, 71682963, 0.6535493, -0.24102852, -0.24488354, 0.6743966, -0.30081904, -0.2303501, -0.21836472
729, 71699630, 0.6531777, -0.24140047, -0.24539578, 0.67443746, -0.18997282, -0.19263107, -0.21230793
730, 71716297, 0.65278256, -0.24209568, -0.24626389, 0.67425424, -0.08935076, -0.15577099, -0.18034554
731, 71732964, 0.65236086, -0.24282293, -0.2473837, 0.673991, -0.2280629, -0.17519929, -0.098633766
732, 71749631, 0.65199816, -0.24353056, -0.24841855, 0.6737059, -0.20484638, -0.18763757, -0.026945114
733, 71766298, 0.6516592, -0.24414241, -0.24935381, 0.67346686, -0.14984097, -0.14739841, 0.13526249
734, 71782965, 0.6513271, -0.2449149, -0.2503036, 0.6731554, -0.046175208, -0.09880468, 0.08088875
735, 71799632, 0.6512638, -0.24550341, -0.25096735, 0.6727548, -0.16726302, -0.16413026, 0.14375305
736, 71816299, 0.651133, -0.24578527, -0.25161627, 0.6725361, -0.039386336, -0.17663525, 0.19218922
737, 71832966, 0.65095526, -0.24634433, -0.2522864, 0.6722525, -0.06568979, -0.062314406, 0.08403015
738, 71849633, 0.6508576, -0.24686389, -0.25286317, 0.6719397, -0.2048541, 0.038261283, 0.058050156
739, 71866300, 0.6508443, -0.24716671, -0.25332123, 0.6716687, -0.08706735, -0.0111839175, 0.26478958
740, 71882967, 0.6508922, -0.24734123, -0.25374988, 0.6713962, -0.012657651, -0.05313607, 0.29546833
741, 71899634, 0.6510673, -0.24748075, -0.25397196, 0.6710909, -0.073840745, -0.024662644, 0.16244984
742, 71916301, 0.65124327, -0.24766843, -0.25432876, 0.6707158, -0.059285246, -0.11873489, 0.0482378
743, 71932968, 0.6513951, -0.24768868, -0.25438842, 0.6705381, 0.031394072, -0.06123372, 0.1451397
744, 71949635, 0.651489, -0.24768074, -0.25436485, 0.6704587, 0.08917899, -0.08366649, 0.23358822
745, 71966302, 0.6515484, -0.2476124, -0.2544111, 0.6704088, 0.076923214, -0.11318439, 0.1999445
746, 71982969, 0.6514948, -0.24767545, -0.2547029, 0.67032677, -0.014095845, 0.023864254, 0.1404934
747, 71999636, 0.65159184, -0.24787802, -0.25508875, 0.6700109, -0.06730601, -0.067334846, 0.105158806
748, 72016303, 0.6516558, -0.24793537, -0.2553003, 0.6698468, -0.2090596, -0.18316239, 0.109698296
749, 72032970, 0.65160924, -0.24784666, -0.255479, 0.66985685, 0.012953917, -0.11532207, 0.11873722
750, 72049637, 0.65151554, -0.24809876, -0.2558289, 0.66972107, -0.05733409, 0.053464297, 0.13295078
751, 72066304, 0.6516549, -0.24801639, -0.25601915, 0.6695432, -0.15642163, -0.07491595, 0.09117794
752, 72082971, 0.65187496, -0.24769829, -0.25600404, 0.6694526, -0.17333251, -0.09790505, 0.12278271
753, 72099638, 0.65208143, -0.24742018, -0.25581965, 0.6694247, -0.011222473, -0.10729996, 0.17373562
754, 72116305, 0.6521156, -0.24741386, -0.25594518, 0.6693459, 0.049028125, -0.16811706, 0.1267891
755, 72132972, 0.6520318, -0.24756682, -0.25614834, 0.6692933, -0.030119823, -0.055267267, 0.0726347
756, 72149639, 0.6520188, -0.24779703, -0.25634772, 0.66914433, -0.109261736, -0.0326558, 0.08011627
757, 72166306, 0.652135, -0.24774708, -0.25662464, 0.6689434, -0.14286725, -0.126374, 0.16259956
758, 72182973, 0.6523492, -0.24750683, -0.25661424, 0.6688275, 0.024648227, -0.18510304, 0.13788986
759, 72199640, 0.65244883, -0.24720007, -0.25669363, 0.6688132, 0.087470345, -0.14343798, 5.054474E-5
760, 72216307, 0.6526318, -0.24671486, -0.2566341, 0.6688367, -0.0467417, -0.055964738, -0.08508873
761, 72232974, 0.65286416, -0.24596614, -0.25673202, 0.66884816, -0.09990124, -0.03711768, -0.18811703
762, 72249641, 0.65327895, -0.24485193, -0.25688997, 0.66879123, -0.07698591, -0.08064739, -0.16145515
763, 72266308, 0.65388596, -0.24340609, -0.25683308, 0.6687477, -0.052287728, -0.06972878, -0.24982548
764, 72282975, 0.65445054, -0.24186479, -0.2571441, 0.6686351, -0.03861242, -0.084273435, -0.41184425
765, 72299642, 0.6550202, -0.24045335, -0.25789624, 0.66829664, -0.16096811, -0.061952874, -0.55829525
766, 72316309, 0.655565, -0.23876308, -0.25908637, 0.667908, -0.14817992, -0.14163022, -0.5751715
767, 72332976, 0.6562796, -0.23648226, -0.26026338, 0.66756016, 0.08189582, -0.13227408, -0.46266174
768, 72349643, 0.6572504, -0.23337689, -0.26131612, 0.6672865, 0.23523341, -0.10243163, -0.4716406
769, 72366310, 0.65829164, -0.22984105, -0.26270875, 0.6669404, 0.11715443, -0.03838019, -0.6335821
770, 72382977, 0.6593867, -0.22607598, -0.26452196, 0.6664285, -0.03671893, -0.062029205, -0.7238674
771, 72399644, 0.6602393, -0.22199477, -0.26712894, 0.66591644, 0.023277981, -0.10628197, -0.7221956
772, 72416311, 0.66129583, -0.21761273, -0.269617, 0.66531163, 0.11177347, 0.081499755, -0.5588484
773, 72432978, 0.66260445, -0.21270786, -0.27212024, 0.66457605, 0.27647436, -0.04505418, -0.4434843
774, 72449645, 0.66399884, -0.20741501, -0.274847, 0.66373473, 0.3259123, -0.23994519, -0.51795864
775, 72466312, 0.6655434, -0.20139708, -0.2774562, 0.6629551, 0.07745305, -0.21556528, -0.6689596
776, 72482979, 0.6669703, -0.19470286, -0.2802926, 0.6623274, 0.05439724, -0.14720608, -0.6464472
777, 72499646, 0.6682236, -0.18781534, -0.28381297, 0.6615536, 0.10123785, -0.08160346, -0.7200775
778, 72516313, 0.66931427, -0.18130578, -0.2880189, 0.6604484, 0.071534425, 0.044685718, -1.0247974
779, 72532980, 0.6702173, -0.17487577, -0.29273227, 0.65919304, -0.2180095, 0.119100444, -0.85484314
780, 72549647, 0.6711185, -0.16807266, -0.2976186, 0.6578563, -0.13918577, 0.17091243, -0.22471619
781, 72566314, 0.6721721, -0.16064586, -0.30273408, 0.6563001, 0.21429439, -0.06064767, 0.05591774
782, 72582981, 0.6732698, -0.15236923, -0.30808356, 0.6546572, 0.24614699, -0.11499764, -0.073607445
783, 72599648, 0.67448467, -0.14367844, -0.3131104, 0.6529847, 0.015843716, 0.069433294, -0.481843
784, 72616315, 0.6755443, -0.13503996, -0.31807414, 0.6513317, -0.047653858, -0.071564265, -0.44209576
785, 72632982, 0.6762169, -0.12623139, -0.32320535, 0.64987284, 0.28302172, -0.20014206, -0.1656332
786, 72649649, 0.67669266, -0.11676522, -0.32819086, 0.6486476, 0.17199278, -0.0072754584, -0.16048431
787, 72666316, 0.6768119, -0.10735201, -0.33360976, 0.64738417, -0.10789596, 0.33302447, -0.3441019
788, 72682983, 0.67706573, -0.09897057, -0.33942324, 0.6454292, -0.18181996, 0.42319432, -0.4323845
789, 72699650, 0.67745984, -0.090690404, -0.34567383, 0.64290994, -0.44232276, -0.067147315, -0.4761238
790, 72716317, 0.6771974, -0.081735015, -0.35203272, 0.6409339, -0.2595873, 0.21498527, -0.1489954
791, 72732984, 0.6768011, -0.07289527, -0.35804123, 0.63908786, -0.06818285, 0.58891493, 0.061858177
792, 72749651, 0.67676055, -0.064636976, -0.3643834, 0.6364291, -0.21306172, 0.6311507, -0.16433907
793, 72766318, 0.67732155, -0.056254957, -0.3707843, 0.63292193, -0.7960361, 0.20838937, -0.45669556
794, 72782985, 0.6774208, -0.047265857, -0.37719297, 0.62975603, -0.46560878, -0.117523395, -0.2080288
795, 72799652, 0.67674536, -0.038365364, -0.38343954, 0.6273102, 0.41730538, 0.26489383, 0.4086895
796, 72816319, 0.6761561, -0.029791696, -0.3890681, 0.62494123, 0.2925436, 0.55818135, 0.60540867
797, 72832986, 0.6759848, -0.021194117, -0.39487952, 0.6218245, -0.32625896, 0.23742501, 0.14592648
798, 72849653, 0.67561585, -0.0125841675, -0.4014256, 0.61825776, -0.510095, 0.04832477, -0.032999992
799, 72866320, 0.6749236, -0.0039301696, -0.40776682, 0.6149708, -0.07868863, -0.030277846, 0.2643938
800, 72882987, 0.6739054, 0.0050301063, -0.4132326, 0.6124257, 0.46947244, 0.32083455, 0.68262005
801, 72899654, 0.6733388, 0.0149892885, -0.41715926, 0.61022013, 0.20493768, 0.32228407, 0.70726013
802, 72916321, 0.6728913, 0.025564058, -0.42116383, 0.60760605, -0.20804161, 0.122654244, 0.3223114
803, 72932988, 0.67222846, 0.035792407, -0.42597416, 0.6044618, -0.4310718, 0.25839663, 0.070640564
804, 72949655, 0.67140007, 0.04545384, -0.43095472, 0.60119385, -0.46023083, 0.28319612, 0.10021114
805, 72966322, 0.670467, 0.054707687, -0.43578726, 0.59797215, 0.12590685, 0.16746451, 0.4099121
806, 72982989, 0.669414, 0.06384226, -0.44025084, 0.5949693, 0.27248263, 0.1602223, 0.5802164
807, 72999656, 0.6680675, 0.07331225, -0.44436672, 0.5923255, -0.13259973, 0.33853748, 0.5821743
808, 73016323, 0.6665892, 0.08283031, -0.44869837, 0.58946407, -0.3970654, 0.45725, 0.5251732
809, 73032990, 0.66527563, 0.09211449, -0.45362338, 0.5857895, -0.5259711, 0.527823, 0.30449486
810, 73049657, 0.664183, 0.10074552, -0.458867, 0.58150893, -0.5363837, 0.8698632, 0.2589054
811, 73066324, 0.66339874, 0.108687736, -0.4637549, 0.57707936, -0.50189453, 0.5781892, 0.3046465
812, 73082991, 0.6625176, 0.11672075, -0.46849924, 0.5726738, -0.54705423, 0.27636096, 0.35087585
813, 73099658, 0.6615784, 0.124701105, -0.47343108, 0.56800246, -0.4355637, 0.22284755, 0.44681263
814, 73116325, 0.6607705, 0.13282788, -0.47834408, 0.56296194, -0.2880921, 0.18921405, 0.38512802
815, 73132992, 0.65979904, 0.14233172, -0.4833403, 0.5574847, -0.14395486, 0.024749087, 0.33813
816, 73149659, 0.6583607, 0.15205073, -0.48833385, 0.5522426, 0.11534185, 0.27449447, 0.3395195
817, 73166326, 0.6566317, 0.16129316, -0.4931486, 0.5473791, 0.2828047, 0.13221249, 0.32099152
818, 73182993, 0.6544527, 0.17067605, -0.49791372, 0.5428106, 0.10566553, 0.13304172, 0.32059383
819, 73199660, 0.652119, 0.1801212, -0.5025411, 0.5382841, 0.036410037, 0.23081166, 0.32878876
820, 73216327, 0.6497304, 0.1897071, -0.5069919, 0.5336863, 0.029880777, 0.09222737, 0.41654396
821, 73232994, 0.64731663, 0.19946566, -0.511292, 0.528938, 0.0917923, 0.0364762, 0.4702406
822, 73249661, 0.6450281, 0.20932227, -0.51518863, 0.524122, 0.08240431, -0.0063355863, 0.358428
823, 73266328, 0.64243, 0.21982014, -0.518639, 0.5195928, -0.07589092, -0.09456319, 0.46600437
824, 73282995, 0.63969886, 0.23074263, -0.52147466, 0.5153713, -0.012450566, -0.12055216, 0.62816143
825, 73299662, 0.6366522, 0.24242772, -0.5238459, 0.5113596, -0.06419046, -0.28242907, 0.8245659
826, 73316329, 0.63345176, 0.25475433, -0.52536887, 0.5077663, -0.16781487, -0.20256041, 0.99065113
827, 73332996, 0.6297925, 0.26810852, -0.5259887, 0.50479245, -0.17086448, -0.40361723, 0.79044056
828, 73349663, 0.6256461, 0.28188682, -0.52649873, 0.5019023, -0.094663545, -0.08514547, 0.3038473
829, 73366330, 0.6215165, 0.29486135, -0.5279724, 0.4980153, -0.39643085, 0.37269378, 0.08448601
830, 73382997, 0.6174053, 0.3067745, -0.5301239, 0.49362844, -0.7230937, 0.3979771, 0.24589157
831, 73399664, 0.61276567, 0.31791154, -0.53269094, 0.48958248, -0.54152966, -0.18636018, 0.40455532
832, 73416331, 0.6090498, 0.3280942, -0.535428, 0.48448908, -0.14381494, -0.44974896, 0.61855316
833, 73432998, 0.60559523, 0.33696508, -0.53869957, 0.47907415, 0.24805468, -0.50666755, 0.36328602
834, 73449665, 0.602024, 0.34480688, -0.5424924, 0.47368512, 0.20424233, -0.43435094, 0.24111938
835, 73466332, 0.598031, 0.3523823, -0.5467694, 0.4682191, -0.17635933, -0.36220878, 0.26128674
836, 73482999, 0.5941712, 0.3591978, -0.55126774, 0.46264616, -0.1260622, -0.48800993, 0.33948326
837, 73499666, 0.59051055, 0.3649659, -0.5560187, 0.4571003, 0.36480936, -0.6535013, 0.34704113
838, 73516333, 0.5867605, 0.36998177, -0.56077087, 0.45206383, 0.79091895, -0.7018929, 0.41699123
839, 73533000, 0.58260167, 0.37497744, -0.5648877, 0.44818434, 0.7939017, -0.8375353, 0.5667381
840, 73549667, 0.57798415, 0.38040695, -0.56777555, 0.445933, 0.534548, -0.9608611, 0.699893
841, 73566334, 0.5733035, 0.38611555, -0.5691134, 0.4453627, 0.2658501, -0.8705298, 0.7220087
842, 73583001, 0.5687301, 0.39191175, -0.5692553, 0.44598195, 0.10067336, -0.7744031, 0.5834503
843, 73599668, 0.56457865, 0.39776513, -0.56854624, 0.44697803, -0.029967723, -0.51810104, 0.41991806
844, 73616335, 0.56094855, 0.40368885, -0.5675568, 0.44749486, -0.26556402, -0.38768634, 0.3997965
845, 73633002, 0.55739677, 0.41009107, -0.56551325, 0.44869718, -0.408828, -0.36005032, 0.5436001
846, 73649669, 0.5547643, 0.4155958, -0.56337994, 0.44957745, -0.06729953, -0.26896945, 0.5236521
847, 73666336, 0.55223256, 0.42130017, -0.5615245, 0.44970635, 0.18886308, -0.23048902, 0.4503584
848, 73683003, 0.5502277, 0.42663482, -0.55915314, 0.4500892, 0.45205227, -0.16702922, 0.510046
849, 73699670, 0.5472272, 0.43269697, -0.5567124, 0.45098484, 0.33449763, -0.18414606, 0.45451736
850, 73716337, 0.5444144, 0.43766063, -0.5536573, 0.45335445, 0.31862018, 0.05366233, 0.5654106
851, 73733004, 0.5409726, 0.4426382, -0.5509261, 0.45596138, 0.36795172, -0.107747324, 0.40688515
852, 73749671, 0.53713286, 0.4477481, -0.5482461, 0.45873368, -0.006630065, 0.15328608, 0.501976
853, 73766338, 0.5336744, 0.4512644, -0.54573715, 0.46230203, -0.6891179, 0.41168517, 0.121432304
854, 73783005, 0.5316665, 0.45272332, -0.54481757, 0.46426967, -1.2989836, 0.3835004, -0.0052871704
855, 73799672, 0.5311018, 0.4531327, -0.5447077, 0.46464556, -0.8773205, 3.2744647E-4, 0.0894537
856, 73816339, 0.5314232, 0.45294985, -0.54434645, 0.46487966, 0.16113518, 0.12011385, 0.013413429
857, 73833006, 0.53078306, 0.4535455, -0.5438977, 0.46555504, 1.0639733, -0.01925676, -0.32791615
858, 73849673, 0.52819407, 0.456078, -0.5425811, 0.46755737, 0.7901838, -0.040621467, -0.23093224
859, 73866340, 0.52513874, 0.45906112, -0.5405037, 0.47047657, -0.17822006, 0.20777966, -0.21570396
860, 73883007, 0.52264255, 0.46155992, -0.5393435, 0.47213995, -0.46803164, 0.3912963, -0.18091965
861, 73899674, 0.5218525, 0.46278167, -0.53947246, 0.47167018, -0.3520575, 0.48031974, -0.15650749
862, 73916341, 0.5222588, 0.4622452, -0.5402861, 0.47081456, -0.38462555, 0.30819017, -0.18314266
863, 73933008, 0.5227254, 0.46125254, -0.54178065, 0.46955103, 0.0078334585, -0.010153299, 0.0022945404
864, 73949675, 0.5231415, 0.4600085, -0.5430201, 0.46887586, 0.1723562, -0.08687658, 0.101364136
865, 73966342, 0.5228132, 0.4596503, -0.5436635, 0.46884784, 0.2078228, -0.17102943, 0.22876549
866, 73983009, 0.5225247, 0.4596474, -0.54393834, 0.4688533, 0.10222432, -0.18387115, 0.2892189
867, 73999676, 0.5221198, 0.46054637, -0.54367685, 0.46872535, -0.054725584, -0.31990492, 0.25234604
868, 74016343, 0.52195996, 0.46132982, -0.5430179, 0.46889684, -0.01717183, -0.06390638, 0.161582
869, 74033010, 0.52192473, 0.46184558, -0.54256207, 0.46895608, 0.018006427, -0.03456941, 0.14456749
870, 74049677, 0.5224268, 0.4620191, -0.5418836, 0.46901065, 0.10301086, 0.091078624, 0.22779083
871, 74066344, 0.5228199, 0.46201578, -0.54142034, 0.4691108, -0.008841278, 0.15311912, 0.014620781
872, 74083011, 0.5227855, 0.46208316, -0.54115534, 0.46938857, -0.10145186, 0.15470897, 0.066319466
873, 74099678, 0.5226153, 0.46254593, -0.54084396, 0.46948114, -0.22234443, -0.048902176, 0.19787502
874, 74116345, 0.5231044, 0.46310857, -0.5399418, 0.46942016, -0.028464822, -0.15146534, 0.31493282
875, 74133012, 0.52392554, 0.46324745, -0.53929347, 0.46911278, 0.22743315, 0.08802387, 0.020791054
876, 74149679, 0.52391857, 0.46378094, -0.5386805, 0.46929747, 0.18394938, 0.046943977, 0.063694
877, 74166346, 0.5236154, 0.46452639, -0.5379734, 0.4697095, 0.018091585, -0.027049538, 0.16031265
878, 74183013, 0.52348256, 0.46502554, -0.53733885, 0.4700898, -0.09654597, 0.14977111, 0.03929138
879, 74199680, 0.5238159, 0.46483442, -0.53722423, 0.4700386, -0.10157479, 0.24521159, -0.018235207
880, 74216347, 0.5241997, 0.46436715, -0.53710103, 0.4702133, -0.1323456, 0.043084357, -0.06779194
881, 74233014, 0.5245516, 0.46423987, -0.53708225, 0.4699678, 0.07284377, -0.017436245, -0.032595634
882, 74249681, 0.5248905, 0.46391344, -0.53707767, 0.4699169, 0.19679488, 0.033838075, -0.073244095
883, 74266348, 0.5248538, 0.4640353, -0.53706336, 0.4698541, 0.21859612, 0.113612086, 0.035093307
884, 74283015, 0.5247755, 0.4640198, -0.53668493, 0.4703891, -0.020224346, 0.11213556, 0.070653915
885, 74299682, 0.52471143, 0.4639953, -0.5365211, 0.4706712, -0.075607054, 0.09155918, 0.11226463
886, 74316349, 0.52524096, 0.4636772, -0.5368994, 0.46996254, 0.09880502, 0.049142007, 0.16975498
887, 74333016, 0.52591914, 0.46354756, -0.53709877, 0.4691033, 0.3292983, 0.11318361, 0.1043005
888, 74349683, 0.5263072, 0.46314985, -0.5369611, 0.46921846, 0.28431943, 0.20882055, -0.021552086
889, 74366350, 0.52596986, 0.46328393, -0.53672916, 0.4697295, 0.058794413, 0.05170324, 0.06668949
890, 74383017, 0.52590823, 0.4632075, -0.5365673, 0.47005877, -0.06441777, 0.07416182, 0.13852596
891, 74399684, 0.5257837, 0.4632692, -0.5367558, 0.46992195, 0.029049532, -0.011157096, 0.13830376
892, 74416351, 0.52610976, 0.4628328, -0.53698516, 0.469725, -0.05071263, 0.22694768, 0.24095726
893, 74433018, 0.52681965, 0.46206918, -0.53729415, 0.46932748, -0.19361922, 0.26676115, 0.03578663
894, 74449685, 0.52771735, 0.46109566, -0.5373883, 0.46916872, -0.21805455, 0.06563279, 0.16407585
895, 74466352, 0.5287293, 0.460086, -0.5374159, 0.46898875, -0.007176107, -0.15122372, 0.18981647
896, 74483019, 0.52992594, 0.45866054, -0.5377327, 0.46867123, -0.047990467, -0.09242506, 0.26509666
897, 74499686, 0.53089494, 0.45722267, -0.537893, 0.46879566, -0.089832984, -0.19095963, 0.33162022
898, 74516353, 0.53217053, 0.4556646, -0.5380281, 0.46871138, -0.1782366, -0.2327427, 0.49841118
899, 74533020, 0.53404146, 0.45334274, -0.5379651, 0.4689072, -0.17169751, -0.2859781, 0.43789864
900, 74549687, 0.5356103, 0.4512687, -0.5380049, 0.4690725, -0.0027910064, -0.21051523, 0.39721203
901, 74566354, 0.5372473, 0.4488788, -0.53766286, 0.4698851, -0.09240942, -0.11863643, 0.45628357
902, 74583021, 0.5392512, 0.4463567, -0.53672093, 0.4710675, -0.10951912, -0.14941417, 0.37929344
903, 74599688, 0.54158366, 0.44362566, -0.5359425, 0.47185722, -0.042098887, -0.0972782, 0.22242069
904, 74616355, 0.5437856, 0.44093215, -0.53468835, 0.47327045, -0.052022193, -0.24093847, 0.1425724
905, 74633022, 0.5460718, 0.43816143, -0.533241, 0.47484136, -0.07827021, -0.08232563, 0.10189724
906, 74649689, 0.5488241, 0.43477544, -0.5314104, 0.47682872, -0.06264129, -0.20513706, 0.016337395
907, 74666356, 0.55164516, 0.4312642, -0.5294876, 0.47889647, 0.008225948, -0.36150852, 0.05617428
908, 74683023, 0.5547688, 0.42708573, -0.5277405, 0.48095676, 0.06438648, -0.14630733, 0.2754097
909, 74699690, 0.5582247, 0.42227238, -0.5262991, 0.48278412, 0.26536933, 0.0043790657, 0.30741692
910, 74716357, 0.5616187, 0.41735265, -0.52444744, 0.48513535, 0.13634558, 0.0819242, 0.40143013
911, 74733024, 0.5652717, 0.4121584, -0.5222943, 0.48764974, -0.23886025, -0.103306346, 0.45136642
912, 74749691, 0.5696851, 0.4059724, -0.5200474, 0.49009812, -0.4500355, -0.29494813, 0.5246067
913, 74766358, 0.57480645, 0.39862496, -0.5180031, 0.49230954, -0.3616348, -0.4177323, 0.50821114
914, 74783025, 0.5802819, 0.39052853, -0.51633847, 0.49412063, -0.09076928, -0.44401163, 0.45832348
915, 74799692, 0.585834, 0.38203812, -0.51446533, 0.4961562, 0.020950986, -0.47473904, 0.45554066
916, 74816359, 0.5916194, 0.3729929, -0.5122865, 0.49842304, -0.07238825, -0.5123241, 0.4898348
917, 74833026, 0.59737015, 0.36390102, -0.50999117, 0.50063396, -0.007483437, -0.6111066, 0.6757984
918, 74849693, 0.6030564, 0.35462856, -0.50723875, 0.5032601, 0.34367284, -0.5854765, 0.71302795
919, 74866360, 0.6081463, 0.34559458, -0.5044142, 0.50625, 0.2756212, -0.46246126, 0.5701113
920, 74883027, 0.6130867, 0.33651435, -0.50136167, 0.5094305, -0.08666514, -0.11654547, 0.5723419
921, 74899694, 0.61852455, 0.32657322, -0.49826947, 0.5123526, -0.4007652, 0.0065484825, 0.5470991
922, 74916361, 0.62440753, 0.315723, -0.49516565, 0.5150198, -0.39273527, -0.0698706, 0.56452274
923, 74933028, 0.630457, 0.30414027, -0.49208146, 0.5175703, -0.017501064, -0.18172833, 0.5410919
924, 74949695, 0.6363882, 0.2920996, -0.4891849, 0.51998675, 0.060854755, -0.22779591, 0.53312874
925, 74966362, 0.64202726, 0.28015804, -0.4862974, 0.5223291, 0.017960161, -0.0686862, 0.6197252
926, 74983029, 0.64778924, 0.26806995, -0.4829148, 0.5246915, -0.049559526, -0.056020617, 0.5553942
927, 74999696, 0.65306914, 0.25601417, -0.47934693, 0.5274317, 0.040262282, -0.016390204, 0.5175743
928, 75016363, 0.6582468, 0.24372765, -0.4757069, 0.53010494, 0.11143819, -0.0239759, 0.49107456
929, 75033030, 0.6629756, 0.23193502, -0.4717381, 0.53304136, 0.16943422, -0.05504297, 0.54463863
930, 75049697, 0.66706264, 0.22085567, -0.46736547, 0.53648865, 0.40003946, -0.04862379, 0.5352135
931, 75066364, 0.67082137, 0.2097873, -0.46298817, 0.54002815, 0.18967019, 0.16851391, 0.4240589
932, 75083031, 0.6747442, 0.19816348, -0.45848992, 0.5433589, -0.114059776, 0.19876169, 0.4440565
933, 75099698, 0.6786406, 0.1860619, -0.45438614, 0.5462247, -0.08140677, 0.16586795, 0.40646648
934, 75116365, 0.68235004, 0.17362294, -0.45046148, 0.5489431, 0.08081893, 0.28782657, 0.31120872
935, 75133032, 0.6859098, 0.16103294, -0.44664082, 0.5514606, -0.02951578, 0.30434173, 0.22555542
936, 75149699, 0.6892215, 0.14862294, -0.44260713, 0.55406165, -0.035255145, 0.090406634, 0.3591423
937, 75166366, 0.69215626, 0.1365166, -0.43819258, 0.55701953, 0.3107409, -0.11917314, 0.58800507
938, 75183033, 0.6947592, 0.12480116, -0.43326285, 0.56037295, 0.56429106, -0.015936418, 0.4863968
939, 75199700, 0.69701636, 0.113782994, -0.4282172, 0.56378376, 0.34534988, 0.16565557, 0.21979618
940, 75216367, 0.69919175, 0.10340048, -0.42269918, 0.56724334, -0.15941502, 0.26296058, 0.1694889
941, 75233034, 0.7010628, 0.09296779, -0.41725096, 0.5707628, -0.07617523, 0.15698309, 0.22849655
942, 75249701, 0.70273554, 0.082548946, -0.41188875, 0.57419205, 0.19708836, 0.22793812, 0.19522572
943, 75266368, 0.70415795, 0.07236444, -0.40656957, 0.5776044, 0.48873657, 0.33618858, -0.037269592
944, 75283035, 0.7052842, 0.06237148, -0.40164575, 0.5808314, 0.17143086, 0.5294154, -0.12180519
945, 75299702, 0.7064238, 0.051894117, -0.39689988, 0.5837321, -0.22921857, 0.5473955, -0.020150185
946, 75316369, 0.7074892, 0.04114286, -0.39264548, 0.58617085, -0.17213783, 0.3202945, 0.010863304
947, 75333036, 0.70835024, 0.03072305, -0.38833758, 0.58863425, 0.23386094, 0.117858715, 0.060609818
948, 75349703, 0.7089889, 0.020694112, -0.38382608, 0.59125674, 0.44473156, 0.15863615, -0.0046806335
949, 75366370, 0.7094787, 0.011024146, -0.37915254, 0.59393793, 0.010219236, 0.27333868, 0.007727623
950, 75383037, 0.7097177, 0.0020702644, -0.3746018, 0.59663254, -0.22202638, 0.13048276, 0.18209553
951, 75399704, 0.70983833, -0.006350385, -0.36965284, 0.5995386, 0.16647379, 0.031392023, 0.41821766
952, 75416371, 0.70988667, -0.01378442, -0.3641236, 0.6027314, 0.5384286, -0.077892244, 0.29919147
953, 75433038, 0.70965683, -0.020592328, -0.35886788, 0.60595167, 0.3551887, 0.19737725, -0.16942215
954, 75449705, 0.7095111, -0.027512725, -0.3534141, 0.60904497, -0.3429366, 0.55260247, -0.40218353
955, 75466372, 0.7093394, -0.034850363, -0.34802178, 0.61196756, -0.38053328, 0.42976344, -0.24101639
956, 75483039, 0.70897853, -0.042503137, -0.34316796, 0.61463743, 0.18000236, 0.23410693, -0.2073431
957, 75499706, 0.7084837, -0.049524035, -0.33865732, 0.61717886, 0.28615558, 0.2136716, -0.26701927
958, 75516373, 0.70791703, -0.056542132, -0.33448505, 0.6194972, -0.10634523, 0.40860832, -0.38982964
959, 75533040, 0.70742077, -0.063760474, -0.3304091, 0.62154704, -0.5225755, 0.32710046, -0.22933865
960, 75549707, 0.7068373, -0.07121937, -0.3264591, 0.6234851, -0.06486748, 0.048938274, -0.036719322
961, 75566374, 0.7062174, -0.0779829, -0.32219929, 0.6255908, 0.3420021, -0.080083966, -0.018276215
962, 75583041, 0.7053291, -0.08375405, -0.31819537, 0.62789184, 0.28267774, 0.051966652, -0.17444515
963, 75599708, 0.7044771, -0.08946221, -0.31403992, 0.6301492, -0.030357083, 0.35630828, -0.41936588
964, 75616375, 0.7037128, -0.095113374, -0.30996096, 0.6321917, -0.20719896, 0.26830953, -0.37835026
965, 75633042, 0.702994, -0.10043492, -0.30598524, 0.6341022, -0.14697832, 0.098827034, -0.21674156
966, 75649709, 0.7020615, -0.1052437, -0.30247658, 0.6360359, 0.07151051, 0.093246475, -0.3089075
967, 75666376, 0.7010874, -0.11050748, -0.29934815, 0.6376955, -0.012732639, 0.18159449, -0.57698345
968, 75683043, 0.70005095, -0.116174944, -0.2967042, 0.63906103, -0.46374848, 0.11678893, -0.4924507
969, 75699710, 0.6989114, -0.12207542, -0.29438642, 0.64027923, -0.23842686, 0.029256169, -0.21731186
970, 75716377, 0.6977325, -0.12800066, -0.2920555, 0.6414741, 0.30271724, -0.04442566, -0.21877956
971, 75733044, 0.6967692, -0.13316621, -0.2893945, 0.6426747, 0.17062554, -0.16870451, -0.066150665
972, 75749711, 0.6955855, -0.13782685, -0.2873043, 0.6439109, -0.07166965, -0.08016488, -0.12191105
973, 75766378, 0.69445837, -0.14247963, -0.28503472, 0.64512223, -0.2009053, 0.0371307, -0.06624699
974, 75783045, 0.6933392, -0.14704338, -0.28271055, 0.6463235, 0.09007103, -0.0847341, -0.07099819
975, 75799712, 0.6923242, -0.1515445, -0.28048915, 0.6473391, 0.14852615, -0.035284203, -0.26947117
976, 75816379, 0.6913661, -0.15610382, -0.27847588, 0.6481482, -0.30946374, 0.06851901, -0.28086758
977, 75833046, 0.6903159, -0.16031295, -0.27683535, 0.6489424, -0.32799163, -0.023474, -0.10038185
978, 75849713, 0.6891945, -0.16455516, -0.27525225, 0.6497452, 0.11960134, -0.09429307, -0.18132782
979, 75866380, 0.6881847, -0.16869944, -0.2735285, 0.6504805, 0.08130105, -0.054989774, -0.3005886
980, 75883047, 0.6870805, -0.17295268, -0.2720741, 0.6511404, -0.24751166, 0.11621199, -0.42612457
981, 75899714, 0.6859401, -0.1773021, -0.2709916, 0.6516243, -0.52197486, 0.1366851, -0.2857027
982, 75916381, 0.68480533, -0.18123578, -0.27007058, 0.6521178, -0.19375421, 0.022855988, 0.012625694
983, 75933048, 0.6838697, -0.18475035, -0.2687537, 0.6526571, 0.12906566, -0.07907486, 0.10662842
984, 75949715, 0.6830857, -0.18806538, -0.26724604, 0.65315056, -0.1315984, -0.042614087, -0.124118805
985, 75966382, 0.68227965, -0.1912659, -0.26560342, 0.6537332, -0.3029833, 0.091836, -0.24702263
986, 75983049, 0.6815781, -0.19445111, -0.26387247, 0.6542262, -0.2479494, 0.1489525, -0.12920189
987, 75999716, 0.68082464, -0.1968087, -0.26273006, 0.65476525, -0.21744235, 0.03536947, 0.07238293
988, 76016383, 0.68032074, -0.1989345, -0.26140842, 0.65517527, -0.15594086, 0.12755236, -0.1898117
989, 76033050, 0.67994285, -0.2012998, -0.26013407, 0.65535223, -0.28418174, 0.0058804024, -0.3754778
990, 76049717, 0.67935854, -0.20370783, -0.25905168, 0.65564287, -0.22657038, -0.044704378, -0.26278114
991, 76066384, 0.67854196, -0.2056726, -0.25823075, 0.6561988, 0.09369674, 0.033415746, 0.0054130554
992, 76083051, 0.67793065, -0.20725565, -0.25740913, 0.6566554, 0.077670865, 0.09242719, -0.020737648
993, 76099718, 0.6773873, -0.20890164, -0.25692192, 0.65688527, -0.14462495, 0.05868679, -0.20044231
994, 76116385, 0.6769688, -0.21083018, -0.25642356, 0.6568952, -0.24488269, 0.0068449727, -0.35264206
995, 76133052, 0.6763958, -0.21276437, -0.25579035, 0.6571086, -0.11027638, -0.098750256, -0.22269344
996, 76149719, 0.6759266, -0.21403304, -0.2549477, 0.65750664, -0.14258617, -0.06399165, -0.014005661
997, 76166386, 0.675412, -0.21471599, -0.2547454, 0.6578914, 0.033779625, 0.08168203, 0.06798744
998, 76183053, 0.67521477, -0.21541865, -0.25443733, 0.6579832, 0.1147663, -0.021119852, -0.14125633
999, 76199720, 0.6751774, -0.21577032, -0.25381657, 0.658146, -0.1544697, -0.12246007, -0.12351799
1000, 76216387, 0.67500246, -0.2153598, -0.25317433, 0.6587071, -0.20248497, -0.068605624, -0.009025574
1001, 76233054, 0.67486334, -0.21526024, -0.2527112, 0.6590598, 0.03699989, -0.0871591, -0.22136211
1002, 76249721, 0.67462105, -0.21589273, -0.2528128, 0.659062, -0.1525021, -0.08877823, -0.40593147
1003, 76266388, 0.67425567, -0.21699253, -0.25304934, 0.6589841, -0.18040614, -0.097891636, -0.33111
1004, 76283055, 0.673987, -0.21758582, -0.25310013, 0.6590437, -0.16834716, -0.18176877, -0.0026350021
1005, 76299722, 0.67373556, -0.21783248, -0.25329542, 0.6591444, -0.0018363824, -0.084233984, 0.025316238
1006, 76316389, 0.67377776, -0.21805593, -0.25351426, 0.65894306, -0.1086397, 0.043663256, -0.048667908
1007, 76333056, 0.6738534, -0.21813992, -0.25393906, 0.6586744, -0.19170785, -0.15644498, 0.0116119385
1008, 76349723, 0.6737923, -0.21771792, -0.2542738, 0.65874743, 0.059682876, -0.11239584, 0.19534683
1009, 76366390, 0.67401946, -0.21696535, -0.253843, 0.6589292, 0.14602605, -0.13724981, 0.2832718
1010, 76383057, 0.67424595, -0.21631071, -0.25365606, 0.65898484, 0.014635405, -0.20683765, 0.06728935
1011, 76399724, 0.6743153, -0.2160422, -0.2538456, 0.6589288, -0.19637144, -0.07826798, -0.22169971
1012, 76416391, 0.67432404, -0.2159542, -0.25409406, 0.6588532, -0.17954874, 0.03414317, -0.13035583
1013, 76433058, 0.6742932, -0.21594667, -0.25459707, 0.65869296, 0.029676598, -0.19913238, 0.1276226
1014, 76449725, 0.67420685, -0.21581686, -0.25549138, 0.65847766, -0.03918484, -0.16369106, 0.1279459
1015, 76466392, 0.6740161, -0.21617971, -0.2563456, 0.6582217, -0.14548403, -0.040307432, 0.05396366
1016, 76483059, 0.67393064, -0.21639283, -0.25684378, 0.658045, -0.20278962, -0.06292303, 0.18188286
1017, 76499726, 0.67398113, -0.21639267, -0.25718257, 0.6578609, -0.035551187, -0.17239286, 0.2880745
1018, 76516393, 0.67408305, -0.2163517, -0.2574805, 0.65765333, -0.026354413, -0.22104011, 0.123072624
1019, 76533060, 0.6741211, -0.21622506, -0.25761214, 0.6576045, -0.20664532, -0.06051524, 0.013203621
1020, 76549727, 0.67416555, -0.21572547, -0.25760606, 0.65772545, -0.15729155, -0.029839873, 0.21916962
1021, 76566394, 0.6742941, -0.2152817, -0.25778356, 0.65766966, 0.02960675, 0.0071840417, 0.11928463
1022, 76583061, 0.6744985, -0.21518409, -0.25796586, 0.6574203, -0.26479435, -0.07880542, -0.031391144
1023, 76599728, 0.67453325, -0.21518913, -0.2581883, 0.65729564, -0.22602335, -0.042372692, -0.004392624
1024, 76616395, 0.67452836, -0.21517229, -0.25841302, 0.657218, 0.0013830982, 0.03647307, 0.13577652
1025, 76633062, 0.67463416, -0.21515234, -0.25866824, 0.65701544, 0.020881586, 0.017627237, 0.20048809
1026, 76649729, 0.6748024, -0.21511476, -0.25903562, 0.6567103, -0.08467017, -0.093414, 0.113098145
1027, 76666396, 0.6749565, -0.21489224, -0.25925913, 0.6565365, -0.111043915, -0.03645977, 0.0058059692
1028, 76683063, 0.67510885, -0.21457137, -0.25939548, 0.6564309, -0.15853775, -0.017135844, -0.07710266
1029, 76699730, 0.6753358, -0.21416515, -0.25950173, 0.65628815, -0.14167793, 0.008199237, -0.0530653
1030, 76716397, 0.6756224, -0.21361451, -0.25977302, 0.65606517, -0.07321402, -0.11126017, 0.038532257
1031, 76733064, 0.6759245, -0.21282445, -0.26000243, 0.6559198, -0.022605319, -0.06742771, 0.0841198
1032, 76749731, 0.6762513, -0.21180876, -0.2599758, 0.65592253, 0.06863848, -0.12804364, 0.13973904
1033, 76766398, 0.67658794, -0.21064337, -0.26005414, 0.6559195, -0.061135486, -0.09168367, 0.00846386
1034, 76783065, 0.6769023, -0.20953822, -0.26042733, 0.65580106, -0.10243219, -0.040398628, -0.14313412
1035, 76799732, 0.6772472, -0.20848945, -0.26101965, 0.6555437, -0.07524686, -0.11221624, -0.13887501
1036, 76816399, 0.6776092, -0.20722197, -0.2616071, 0.6553372, 0.004230318, -0.18834834, -0.06967354
1037, 76833066, 0.67793024, -0.20571025, -0.26222962, 0.65523285, 0.12112647, -0.1178605, -0.13259697
1038, 76849733, 0.6783268, -0.20409334, -0.26310837, 0.65497565, -0.005353135, -0.076900415, -0.3562336
1039, 76866400, 0.6788601, -0.20234121, -0.2640174, 0.6546007, -0.14274666, 4.198691E-4, -0.42932892
1040, 76883067, 0.67938894, -0.20019299, -0.26507166, 0.6542866, 0.025658505, -0.13275418, -0.23776531
1041, 76899734, 0.67986226, -0.19756812, -0.26654318, 0.6539949, 0.12172896, -0.106459446, -0.26427746
1042, 76916401, 0.68049467, -0.19460219, -0.26802737, 0.6536197, 0.12607516, -0.007662471, -0.41403866
1043, 76933068, 0.6811912, -0.19162028, -0.2697776, 0.6530548, -3.120241E-4, 0.02150407, -0.7401571
1044, 76949735, 0.6818372, -0.18888849, -0.2720466, 0.65223485, -0.28914878, -0.021125998, -0.8276224
1045, 76966402, 0.68236774, -0.18578412, -0.2747879, 0.6514218, -0.16502509, -0.01924793, -0.5939245
1046, 76983069, 0.6829978, -0.18234223, -0.27747688, 0.65059376, 0.2688635, -0.094099514, -0.355896
1047, 76999736, 0.68369347, -0.17852426, -0.28038824, 0.64967304, 0.26367992, -0.06315124, -0.487463
1048, 77016403, 0.68448186, -0.17473206, -0.28375003, 0.64841306, -0.16391188, 0.019736193, -0.6580696
1049, 77033070, 0.6853023, -0.17067674, -0.28713775, 0.6471339, -0.13812408, -0.062311277, -0.53173923
1050, 77049737, 0.68601274, -0.16622725, -0.29041728, 0.6460751, 0.37541953, -0.06568062, -0.20244503
1051, 77066404, 0.686949, -0.16094548, -0.29348415, 0.6450313, 0.23988082, -0.08215342, -0.2623024
1052, 77083071, 0.6878223, -0.15512674, -0.29692015, 0.6439525, -0.1292344, 0.055571467, -0.5294676
1053, 77099738, 0.68868524, -0.14964485, -0.30107158, 0.64239824, -0.22990051, -0.051128253, -0.7014303
1054, 77116405, 0.68931633, -0.14409459, -0.30575338, 0.6407769, -0.072533086, -0.15719163, -0.6189146
1055, 77133072, 0.6897916, -0.13779263, -0.31023166, 0.63949805, 0.19848487, 0.060244005, -0.24270248
1056, 77149739, 0.6903827, -0.13095436, -0.31444317, 0.6382385, 0.3129595, 0.28962994, -0.24702454
1057, 77166406, 0.6913389, -0.12388776, -0.31863898, 0.6365312, -0.037503015, 0.28056443, -0.5759487
1058, 77183073, 0.6922989, -0.11680815, -0.32327232, 0.63448703, -0.4752346, 0.085989624, -0.71729755
1059, 77199740, 0.6926471, -0.11001907, -0.32892063, 0.63241386, -0.15321165, 0.06579998, -0.5721092
1060, 77216407, 0.69270444, -0.102978945, -0.3350436, 0.63031906, 0.13869403, 0.21513385, -0.35724354
1061, 77233074, 0.692928, -0.09548765, -0.34088513, 0.6281168, 0.28083172, 0.41577238, -0.18471909
1062, 77249741, 0.69362074, -0.08724937, -0.34613708, 0.6256735, -0.09187277, 0.18044373, -0.13952732
1063, 77266408, 0.6942872, -0.0780742, -0.3510279, 0.62341774, -0.02529429, -0.1684392, -0.042006493
1064, 77283075, 0.6943644, -0.06861894, -0.35613987, 0.62154204, 0.42769516, -0.12974648, -0.07488632
1065, 77299742, 0.6941972, -0.059086934, -0.36135992, 0.61969227, 0.20495534, 0.21250676, -0.39992237
1066, 77316409, 0.69373393, -0.050045386, -0.36717722, 0.61758393, -0.23896486, 0.62276876, -0.5932493
1067, 77333076, 0.6932108, -0.041650236, -0.37361494, 0.6149281, -0.34737244, 0.6263844, -0.4372282
1068, 77349743, 0.69257414, -0.03289589, -0.3804765, 0.61196166, -0.05948909, 0.29456338, -0.07317829
1069, 77366410, 0.69173115, -0.02388362, -0.38732964, 0.60902673, 0.44048995, 0.13167028, 0.3430748
1070, 77383077, 0.69090027, -0.014281338, -0.39371732, 0.60616815, 0.35185453, 0.07101342, 0.34750366
1071, 77399744, 0.69011664, -0.0039009464, -0.39982712, 0.6032101, -0.07533035, 0.40207234, 0.1298523
1072, 77416411, 0.689594, 0.0070598945, -0.4055366, 0.59995896, -0.048631947, 0.5438742, 0.030830383
1073, 77433078, 0.6890488, 0.01849409, -0.4109229, 0.5966679, -0.03361322, 0.28444844, 0.0995903
1074, 77449745, 0.6881473, 0.030604018, -0.41584572, 0.5937924, 0.06342225, 0.2943438, 0.38541698
1075, 77466412, 0.68688756, 0.042782612, -0.42087308, 0.59094954, 0.087462634, 0.26836935, 0.21748543
1076, 77483079, 0.68538916, 0.054354284, -0.42652577, 0.5876765, -0.3667215, 0.5910511, 0.02550602
1077, 77499746, 0.6843321, 0.06510503, -0.43230602, 0.58357763, -0.6011296, 0.4495802, -0.102083206
1078, 77516413, 0.6829921, 0.075839676, -0.4380508, 0.57955337, -0.34048465, 0.16110118, 0.05982113
1079, 77533080, 0.681174, 0.08703269, -0.44333407, 0.57609284, 0.18261634, -0.015656412, 0.5223274
1080, 77549747, 0.67902243, 0.09869045, -0.44810596, 0.5730533, 0.3139769, 0.03218665, 0.5004692
1081, 77566414, 0.6767344, 0.1098753, -0.45341977, 0.5695338, -0.10190179, 0.25708807, 0.36143303
1082, 77583081, 0.6746929, 0.12022818, -0.45871833, 0.5656079, -0.7575002, 0.42252192, 0.26225758
1083, 77599748, 0.67257005, 0.12992316, -0.46429148, 0.56142974, -0.6110397, 0.11225195, 0.3321724
1084, 77616415, 0.66992605, 0.13925664, -0.47020355, 0.55741906, 0.00984664, -0.054014757, 0.7260084
1085, 77633082, 0.667157, 0.14847767, -0.47572583, 0.55366147, 0.230658, 0.13872734, 0.9335613
1086, 77649749, 0.6642838, 0.15774672, -0.48082006, 0.5501411, -0.0489138, 0.22382677, 0.75911427
1087, 77666416, 0.66103697, 0.16675466, -0.48600692, 0.5468277, -0.34008726, 0.33882296, 0.7431698
1088, 77683083, 0.65759254, 0.17513677, -0.49169123, 0.5432673, -0.27667394, 0.19184686, 0.89198875
1089, 77699750, 0.6540647, 0.18382765, -0.49760535, 0.5392549, 0.12611942, 0.048645247, 1.1093092
1090, 77716417, 0.6507422, 0.1927828, -0.50273323, 0.5353775, 0.30841637, 0.027100164, 0.9688387
1091, 77733084, 0.6473366, 0.20235059, -0.5070523, 0.531891, -0.09879071, -0.15666594, 0.85278416
1092, 77749751, 0.6437736, 0.21229702, -0.5104863, 0.529046, -0.40879312, -0.2691079, 0.8063154
1093, 77766418, 0.64006144, 0.2223022, -0.51383096, 0.526195, -0.480252, -0.3022227, 0.94193935
1094, 77783085, 0.63679844, 0.23238537, -0.51626456, 0.523408, -0.17398807, -0.2080197, 0.8157244
1095, 77799752, 0.63342863, 0.24306802, -0.51778007, 0.52114344, -0.051750626, -0.4531866, 0.46774292
1096, 77816419, 0.62963736, 0.25424108, -0.5187936, 0.51939553, -0.18171895, -0.44931066, 0.4203596
1097, 77833086, 0.62564564, 0.26520872, -0.51985824, 0.51766753, -0.22076888, -0.41943738, 0.34080887
1098, 77849753, 0.62178844, 0.2754793, -0.52136666, 0.51542956, 0.055930093, -0.0904415, 0.15384007
1099, 77866420, 0.617826, 0.28513288, -0.523235, 0.51304567, 0.028190795, 0.0471961, 0.09009647
1100, 77883087, 0.613747, 0.294136, -0.5254239, 0.5106162, -0.02568164, 0.091887295, 0.34977818
1101, 77899754, 0.60979986, 0.3027575, -0.527934, 0.5077086, 0.16722591, -0.031813942, 0.5350542
1102, 77916421, 0.60564727, 0.31111524, -0.53034425, 0.5051081, 0.1895334, 0.20991252, 0.3428564
1103, 77933088, 0.6023251, 0.31917074, -0.531925, 0.50238496, -0.08645414, 0.21933483, 0.3211317
1104, 77949755, 0.5989368, 0.3274493, -0.53345925, 0.499473, -0.03279963, -0.19282754, 0.33837795
1105, 77966422, 0.59565383, 0.33547786, -0.5348691, 0.49655473, 0.016075276, -0.22429569, 0.24451065
1106, 77983089, 0.5923057, 0.34314555, -0.53654927, 0.49349815, -0.18906984, -0.18951015, 0.11940575
1107, 77999756, 0.5888381, 0.3503395, -0.5383533, 0.49062032, -0.32203636, -0.015912334, 0.3395071
1108, 78016423, 0.58576787, 0.3566738, -0.5406991, 0.48713955, -0.1976239, 0.18946008, 0.22037888
1109, 78033090, 0.58314824, 0.36223164, -0.54368806, 0.48283598, -0.40437183, 0.3624106, 0.326622
1110, 78049757, 0.58097154, 0.36705714, -0.54607993, 0.47910187, -0.5216515, 0.058219984, 0.47312927
1111, 78066424, 0.5789928, 0.37104928, -0.5487845, 0.4753169, -0.4685205, -0.124935694, 0.5374203
1112, 78083091, 0.577168, 0.37446734, -0.551756, 0.47139958, -0.4436245, -0.25269234, 0.55459213
1113, 78099758, 0.57549435, 0.37816572, -0.5548104, 0.46688667, -0.10435462, -0.6937053, 0.7221098
1114, 78116425, 0.5736626, 0.38213027, -0.5569074, 0.46340328, 0.2074721, -0.7098278, 0.52840614
1115, 78133092, 0.57140434, 0.3863129, -0.5588204, 0.46041304, 0.17193265, -0.5603003, 0.3981657
1116, 78149759, 0.56872916, 0.39108372, -0.55991435, 0.45836407, 0.18399586, -0.60714006, 0.39955044
1117, 78166426, 0.5659332, 0.3961636, -0.560587, 0.45663643, 0.35385206, -0.35506418, 0.3294468
1118, 78183093, 0.5630442, 0.4015383, -0.56055397, 0.4555528, 0.44378072, -0.39043823, 0.32412815
1119, 78199760, 0.5601178, 0.40650952, -0.5600817, 0.45533204, 0.32212174, -0.050906193, 0.2147007
1120, 78216427, 0.55711377, 0.4111372, -0.5594579, 0.45562947, 0.2560037, -0.11225312, 0.1393137
1121, 78233094, 0.55418044, 0.41553023, -0.5590565, 0.45571402, 0.06559904, 0.0016872993, 0.15025234
1122, 78249761, 0.55171543, 0.41915584, -0.5590491, 0.45539364, 0.064701416, 0.068410166, -0.06625271
1123, 78266428, 0.5498694, 0.42168376, -0.5601887, 0.45388976, -0.06529573, 0.33630207, 0.02454567
1124, 78283095, 0.5488129, 0.42289492, -0.56154734, 0.4523602, 0.03146481, 0.057971437, 0.07039833
1125, 78299762, 0.5477044, 0.42366147, -0.5629929, 0.45118806, 0.08537122, -0.26399317, 0.11571789
1126, 78316429, 0.5464638, 0.4244026, -0.56416833, 0.45052722, 0.09668299, -0.3906242, 0.24534035
1127, 78333096, 0.54510546, 0.42510852, -0.5651334, 0.4502977, 0.14425504, -0.46254084, 0.33105946
1128, 78349763, 0.5438548, 0.4261014, -0.5654376, 0.45048916, 0.14191777, -0.6022501, 0.43357563
1129, 78366430, 0.5428245, 0.42695314, -0.5650693, 0.4513869, -0.021978028, -0.27311987, 0.29253674
1130, 78383097, 0.54172343, 0.42789578, -0.56454957, 0.45246595, -0.17004038, -0.0980292, 0.10943413
1131, 78399764, 0.54098845, 0.4285359, -0.5640673, 0.4533404, -0.15908289, 0.085293435, 0.11564255
1132, 78416431, 0.54061615, 0.42879778, -0.5636998, 0.4539935, -0.11810425, 0.042956956, 0.101415634
1133, 78433098, 0.5406587, 0.42874077, -0.5634526, 0.45430332, 0.075732894, -0.033803206, 0.18454075
1134, 78449765, 0.54062575, 0.42865252, -0.56279635, 0.45523834, 0.21801007, -0.025489194, 0.04883194
1135, 78466432, 0.54020184, 0.42862585, -0.5623408, 0.45632866, 0.13639565, 0.007571054, 0.0744133
1136, 78483099, 0.5396509, 0.42869055, -0.5616038, 0.4578246, 0.022238646, -0.020593366, 0.20546818
1137, 78499766, 0.5393486, 0.4286849, -0.5606858, 0.459309, -0.17359893, -0.07072017, 0.18833828
1138, 78516433, 0.5395934, 0.42838192, -0.5600858, 0.46003544, -0.08955069, -0.009535063, 0.17755318
1139, 78533100, 0.53979254, 0.4284958, -0.55948734, 0.46042374, 0.26761585, -0.12776984, 0.104390144
1140, 78549767, 0.539612, 0.42896074, -0.5584452, 0.4614666, 0.40567288, 0.06590324, -0.015716553
1141, 78566434, 0.5388907, 0.4298548, -0.5572407, 0.46293104, 0.22638734, 0.14533035, -0.054427147
1142, 78583101, 0.53821933, 0.430743, -0.55590975, 0.46448407, 0.017495252, 0.21138917, 0.015130043
1143, 78599768, 0.5378007, 0.43143728, -0.5551242, 0.46526334, -0.07093988, 0.25946322, 0.0055475235
1144, 78616435, 0.5375883, 0.4318713, -0.5547296, 0.4655768, 0.02119864, 0.23585333, -4.2915344E-5
1145, 78633102, 0.5375013, 0.43193394, -0.5545834, 0.46579337, 0.024998583, 0.31915304, -0.054634094
1146, 78649769, 0.5372784, 0.43211144, -0.5545117, 0.46597117, -0.0398765, 0.20929106, -0.042125702
1147, 78666436, 0.5372729, 0.43234324, -0.55433744, 0.46596977, 0.013654406, 0.07615958, 0.09824848
1148, 78683103, 0.53724515, 0.43257472, -0.5539115, 0.46629357, 0.045592174, 0.13593544, 0.04643917
1149, 78699770, 0.5370688, 0.4328562, -0.55365765, 0.46653694, 0.0055209934, 0.10632802, 0.010467529
1150, 78716437, 0.5367055, 0.43341172, -0.55353737, 0.46658212, -0.068526834, 0.07880061, 0.0077228546
1151, 78733104, 0.53656983, 0.43395793, -0.5536232, 0.4661283, -0.09242149, 0.12967081, 0.07537556
1152, 78749771, 0.53660667, 0.43446356, -0.55364865, 0.46558416, 0.05475978, 0.09237902, 0.06976318
1153, 78766438, 0.53650135, 0.43488696, -0.5535062, 0.46547976, 0.0633657, 0.18315949, 0.02239132
1154, 78783105, 0.5362743, 0.43550608, -0.55324537, 0.46547264, 0.024160186, 0.027490975, 0.06788254
1155, 78799772, 0.53602326, 0.43612295, -0.5530883, 0.46537083, 0.015434911, 0.02233565, 0.062286377
1156, 78816439, 0.5357959, 0.43669948, -0.552907, 0.46530747, -0.019627567, 0.021991663, 0.01513195
1157, 78833106, 0.53563476, 0.4374057, -0.55286443, 0.46488008, 0.006101233, -0.018406292, 0.040833473
1158, 78849773, 0.53555286, 0.43799424, -0.5526059, 0.4647274, 0.114041, 0.103677824, 6.866455E-5
1159, 78866440, 0.5352241, 0.43858024, -0.55240875, 0.46478802, 0.018539505, 0.04527836, -0.017501831
1160, 78883107, 0.5348813, 0.43949243, -0.55212826, 0.46465418, 0.035691667, -0.017996816, 0.15725231
1161, 78899774, 0.53483355, 0.43994308, -0.5518641, 0.46459678, 0.061530657, 0.19365521, 0.050131798
1162, 78916441, 0.5346503, 0.44035092, -0.5516723, 0.46464887, -0.08964501, 0.11788967, 0.05463314
1163, 78933108, 0.5345692, 0.44064832, -0.551332, 0.46486405, -0.123404406, 0.024385264, 0.101861954
1164, 78949775, 0.5344078, 0.44100595, -0.55111647, 0.46496627, -0.044361062, -0.0030826908, 0.05618286
1165, 78966442, 0.5342696, 0.44139963, -0.5509474, 0.46495175, 0.021060955, 0.010421739, 0.106637955
1166, 78983109, 0.5340596, 0.44200307, -0.55066204, 0.46495777, 0.10568028, 0.0088757, 0.07455158
1167, 78999776, 0.5339858, 0.4423377, -0.5506975, 0.46468213, 0.02556407, 0.13286795, 0.029484749
1168, 79016443, 0.5338907, 0.44251916, -0.55057883, 0.46475935, -0.051248167, 0.07651832, 0.05377388
1169, 79033110, 0.5338656, 0.4425858, -0.5505126, 0.46480334, -0.056731835, 0.071343325, 0.034557343
1170, 79049777, 0.5338982, 0.4426314, -0.5505753, 0.46464798, 0.058181092, 0.050163012, 0.08109665
1171, 79066444, 0.5337364, 0.4430024, -0.5507508, 0.46427208, 0.16884549, 0.018085774, 0.08682537
1172, 79083111, 0.5335249, 0.44323537, -0.55077434, 0.46426493, 0.12095851, 0.14827313, 0.08366394
1173, 79099778, 0.53322685, 0.4434489, -0.55070436, 0.46448666, -0.08634507, 0.042724725, 0.0822649
1174, 79116445, 0.5331267, 0.44347623, -0.55066216, 0.46462524, -0.113192104, 0.03534947, 0.07842159
1175, 79133112, 0.53318673, 0.44326133, -0.55078596, 0.4646149, -0.028076356, 0.039955176, 0.06560516
1176, 79149779, 0.53327835, 0.44316527, -0.55075, 0.4646441, 0.11864872, -0.043042783, 0.11184025
1177, 79166446, 0.5331857, 0.44322, -0.55061215, 0.46486142, 0.18727145, 0.031392843, 0.05102825
1178, 79183113, 0.532786, 0.4436036, -0.5506583, 0.46489915, 0.13336973, -0.060924716, 0.049928665
1179, 79199780, 0.5324032, 0.4440462, -0.55052817, 0.46506926, 0.039197467, 0.12569341, 0.11128235
1180, 79216447, 0.5322939, 0.44395962, -0.5506064, 0.46518424, -0.073060125, 0.12917417, 0.023078918
1181, 79233114, 0.5323052, 0.44381058, -0.5507817, 0.46510613, 0.0071986816, 0.06064376, 0.10056019
1182, 79249781, 0.5323328, 0.44366214, -0.55088943, 0.46508852, 0.14294837, -0.017179653, 0.061733246
1183, 79266448, 0.5321386, 0.44376537, -0.5508956, 0.46520516, 0.17192975, -0.034542587, 0.09705067
1184, 79283115, 0.53191, 0.44385764, -0.5508662, 0.46541318, 0.10845094, 0.022790276, 0.098181725
1185, 79299782, 0.53159827, 0.44427583, -0.55086905, 0.46536696, 0.053868856, 0.02120758, 0.090260506
1186, 79316449, 0.5314926, 0.4443937, -0.55089754, 0.4653414, 0.05511025, 0.07781335, 0.022704124
1187, 79333116, 0.53122777, 0.44463128, -0.5508751, 0.4654432, 0.061662756, 0.031831596, 1.6212463E-5
1188, 79349783, 0.53101, 0.44487724, -0.5507638, 0.46558842, 0.094600074, 0.024448965, 0.08649731
1189, 79366450, 0.5307533, 0.4451145, -0.5505965, 0.4658521, 0.11127101, 0.02912195, 0.0820055
1190, 79383117, 0.5304337, 0.4454133, -0.55063444, 0.46588567, 0.06145891, 0.11371199, 0.05202198
1191, 79399784, 0.5302389, 0.4455557, -0.5506579, 0.4659437, -0.04342499, 0.14030713, 0.049466133
1192, 79416451, 0.5300988, 0.4457134, -0.5507141, 0.46588612, -0.021178523, 0.08354132, 0.095677376
1193, 79433118, 0.5300875, 0.44565746, -0.5506983, 0.46597093, 0.07323134, 0.037015088, 0.11933899
1194, 79449785, 0.5298648, 0.44581375, -0.5507458, 0.46601832, 0.07853486, 0.010641675, 0.12874603
1195, 79466452, 0.5296529, 0.44607097, -0.5506562, 0.46611914, 0.07374027, -0.013497277, 0.15265751
1196, 79483119, 0.5294301, 0.44638526, -0.5504948, 0.46626225, 0.02900997, 0.04194757, 0.07880592
1197, 79499786, 0.5292964, 0.44660425, -0.55039006, 0.46632776, -0.026692364, 0.121894576, 0.054403305
1198, 79516453, 0.52914065, 0.44689342, -0.55021125, 0.46643835, 0.047501195, 0.056536037, 0.013090134
1199, 79533120, 0.528931, 0.44710052, -0.5501755, 0.46651998, 0.06906282, 0.08281803, 0.042942047
1200, 79549787, 0.5286951, 0.44721937, -0.5502225, 0.46661812, -0.023063855, 0.07385136, 0.06859779
1201, 79566454, 0.5286009, 0.4471781, -0.55032426, 0.46664435, -0.087851994, 0.1093669, 0.08934498
1202, 79583121, 0.5285895, 0.4470594, -0.5504208, 0.46665695, -0.023660857, 0.07464819, 0.07780266
1203, 79599788, 0.5286553, 0.44694823, -0.5504179, 0.46669233, 0.06707221, 0.052128363, 0.087444305
