DeviceTag:,Xsens DOT 4,,,,,,,,,,,,,,,,,
FirmwareVersion:,1.3.0,,,,,,,,,,,,,,,,,
AppVersion:,2020.1.1,,,,,,,,,,,,,,,,,
Measurement Mode:,Sensor fusion Mode - Complete (Quaternion),,,,,,,,,,,,,,,,,
StartTime:,2020-08-03 16:00:48.802 +0200,,,,,,,,,,,,,,,,,
© Xsens Technologies B. V. 2005-2020,,,,,,,,,,,,,,,,,,,
PacketCounter,SampleTimeFine,Quat_W,Quat_X,Quat_Y,Quat_Z,FreeAcc_X,FreeAcc_Y,FreeAcc_Z
1, 91118492, 0.8037853, -0.07765214, -0.09595548, 0.5819723, -0.04025781, -0.11322127, 0.052866936
2, 91135159, 0.80367184, -0.07814959, -0.09487325, 0.5822401, 0.09326218, -0.08803628, 0.087135315
3, 91151826, 0.8035099, -0.07902887, -0.09436635, 0.5824272, -0.03317016, 0.053839575, 0.009301186
4, 91168493, 0.8034465, -0.07915557, -0.09409491, 0.5825414, -0.10649068, 0.013048295, -0.045324326
5, 91185160, 0.8034176, -0.07902112, -0.093708664, 0.5826616, 3.1878534E-4, -0.089445695, 0.035456657
6, 91201827, 0.8034179, -0.07891953, -0.093285404, 0.5827431, 0.11633782, -0.06918223, 0.14546585
7, 91218494, 0.8034203, -0.07889795, -0.09302225, 0.5827845, 0.06380731, 0.02622701, 0.03170204
8, 91235161, 0.8034009, -0.07880482, -0.09279921, 0.58285934, -0.08394018, 0.08022506, -0.12824154
9, 91251828, 0.8033503, -0.07874677, -0.092599735, 0.58296883, -0.007963487, 0.030928047, -0.093440056
10, 91268495, 0.80328524, -0.07848024, -0.09235923, 0.58313257, 0.091232516, -0.09386488, 0.08392334
11, 91285162, 0.8031845, -0.078338645, -0.09215966, 0.5833219, 0.013808966, 0.023075366, -0.025405884
12, 91301829, 0.8030594, -0.07843441, -0.09205758, 0.5834973, 0.019222785, 0.052813485, -0.15629292
13, 91318496, 0.80292195, -0.078452796, -0.091911584, 0.58370703, 0.02508402, -0.0065958113, -0.145648
14, 91335163, 0.80284625, -0.07833405, -0.0917045, 0.5838597, 0.09819108, -0.10013638, 0.033363342
15, 91351830, 0.80285263, -0.078100786, -0.091394916, 0.58393043, -0.011014719, 0.02724405, 0.047330856
16, 91368497, 0.80265784, -0.0780986, -0.091183715, 0.58423156, -0.0699096, 0.061783396, -0.105911255
17, 91385164, 0.8024621, -0.0781244, -0.09103563, 0.58452016, -0.012877084, 0.047623962, -0.18802261
18, 91401831, 0.80230546, -0.078103006, -0.09087025, 0.58476365, 0.0100182975, -0.0949825, -0.066747665
19, 91418498, 0.8017988, -0.07791395, -0.090758815, 0.5855005, 0.08898789, -0.06766212, 0.02972889
20, 91435165, 0.80178523, -0.07783919, -0.09060195, 0.58555335, 0.003911197, 0.0269717, -0.010041237
21, 91451832, 0.8015819, -0.07776785, -0.09048821, 0.585859, -0.0738807, 0.036967758, -0.13885498
22, 91468499, 0.8013713, -0.07781529, -0.0904419, 0.5861477, -0.13100787, -0.023163319, -0.08669853
23, 91485166, 0.8015219, -0.07796657, -0.09036706, 0.58593315, 0.057994515, -0.0043255906, -0.0506258
24, 91501833, 0.8011608, -0.07788655, -0.090406984, 0.5864312, 0.04569711, 0.025925882, -0.040433884
25, 91518500, 0.800933, -0.07784935, -0.090426505, 0.58674437, -0.081568144, 0.03463255, -0.1385603
26, 91535167, 0.8008455, -0.077905126, -0.09050602, 0.5868441, -0.103660166, -0.09224497, -0.060829163
27, 91551834, 0.80082804, -0.07790838, -0.09057883, 0.58685625, 0.024188573, -0.07538712, 0.046438217
28, 91568501, 0.80028015, -0.07777676, -0.09063065, 0.5876126, 0.08166068, -0.01033239, 0.028931618
29, 91585168, 0.8004328, -0.077702105, -0.090533264, 0.5874296, 0.032208942, 0.04126932, -0.14204884
30, 91601835, 0.80054283, -0.077689044, -0.09050214, 0.58728623, -0.09079957, 0.013540639, -0.12758064
31, 91618502, 0.8004311, -0.07779929, -0.0906238, 0.58740526, 0.017502014, -0.10952889, 0.0771513
32, 91635169, 0.8005585, -0.07790556, -0.09072666, 0.5872015, 0.15730841, -0.019258156, 0.06431103
33, 91651836, 0.8005113, -0.07792388, -0.090824604, 0.5872482, 0.08370029, 0.036260005, -0.12399578
34, 91668503, 0.8004577, -0.07785625, -0.090848714, 0.5873265, 0.07500905, -0.047026847, -0.14639568
35, 91685170, 0.80037737, -0.07724395, -0.09070082, 0.5875399, 0.30912992, -0.18880436, 0.02388668
36, 91701837, 0.8003437, -0.07625289, -0.09042616, 0.5877576, 0.14998361, 0.0072574657, -0.038108826
37, 91718504, 0.8001786, -0.07516277, -0.09012995, 0.58816785, 0.075401425, 0.058877222, -0.24611664
38, 91735171, 0.8001716, -0.07398249, -0.08978362, 0.58838004, 0.045740083, 0.0049322606, -0.27108192
39, 91751838, 0.800156, -0.072731584, -0.08944043, 0.5886093, 0.021538882, -0.19583115, 0.008410454
40, 91768505, 0.8001557, -0.071910486, -0.089408316, 0.5887156, -0.022312628, 0.058083083, -0.07928467
41, 91785172, 0.79945046, -0.07164284, -0.08962889, 0.58967185, -0.20923495, 0.11067213, -0.15481186
42, 91801839, 0.79872596, -0.07182939, -0.09001843, 0.59057134, -0.10652778, -0.044627827, 0.048742294
43, 91818506, 0.79816926, -0.07190272, -0.09033927, 0.5912655, 0.072754696, -0.13120188, 0.28860092
44, 91835173, 0.797348, -0.07176983, -0.09062722, 0.59234446, 0.011059086, -0.036521513, 0.3533907
45, 91851840, 0.79742, -0.071939275, -0.090780735, 0.59220356, -0.099501655, 0.047782544, 0.15530205
46, 91868507, 0.797725, -0.07241178, -0.09093468, 0.5917115, -0.069047175, -0.0019378574, 0.025863647
47, 91885174, 0.7979264, -0.07279873, -0.091080196, 0.5913698, 0.08967608, -0.093134664, 0.1198349
48, 91901841, 0.7980408, -0.07310552, -0.09112818, 0.5911703, 0.10015225, -0.05655744, 0.19544315
49, 91918508, 0.79767627, -0.07324896, -0.09115732, 0.59163976, 0.06169382, -0.057040393, 0.15872002
50, 91935175, 0.7980978, -0.07350294, -0.09102587, 0.59105986, 0.017998604, 0.0050630155, -0.02001381
51, 91951842, 0.7980086, -0.07386992, -0.091001645, 0.591138, 0.059594814, -0.011907374, -0.14089108
52, 91968509, 0.7979854, -0.07438701, -0.09107795, 0.59109277, 0.20169172, -0.08097489, -0.05068779
53, 91985176, 0.7979948, -0.07462039, -0.0910614, 0.5910533, 0.31691566, -0.055311635, -0.07929993
54, 92001843, 0.7979271, -0.074589215, -0.09093971, 0.59116733, 0.13415521, -0.020098342, -0.07354927
55, 92018510, 0.79790044, -0.074568376, -0.09090514, 0.5912113, 0.10394364, -0.1578553, -0.12212181
56, 92035177, 0.79734397, -0.07445085, -0.0909904, 0.5919633, 0.058314417, -0.04701595, -0.096899986
57, 92051844, 0.79715616, -0.074395716, -0.09104903, 0.5922141, 0.21978503, -0.1329749, -0.07654858
58, 92068511, 0.7976033, -0.07435535, -0.090997666, 0.5916247, 0.10866311, 0.036285486, -0.14801216
59, 92085178, 0.79743826, -0.07446302, -0.09107063, 0.59182245, -0.006406775, -0.12115788, -0.12657642
60, 92101845, 0.79743886, -0.07456708, -0.0911516, 0.591796, 0.053645067, -0.068401895, 0.02264309
61, 92118512, 0.79745847, -0.07465128, -0.09122898, 0.591747, 0.040153433, -0.058398012, 0.1004467
62, 92135179, 0.7974492, -0.07464247, -0.09128405, 0.5917522, 0.074327834, -0.04714553, 0.049402237
63, 92151846, 0.7973903, -0.074484445, -0.09124484, 0.5918575, 0.03143833, -0.08245549, -0.0018663406
64, 92168513, 0.7975628, -0.07442641, -0.09110117, 0.5916544, 0.008888216, -0.061502326, -0.027669907
65, 92185180, 0.79770964, -0.07424584, -0.09097797, 0.5914982, 0.048102558, -0.09970187, 0.052080154
66, 92201847, 0.7976941, -0.074055135, -0.09086601, 0.59156036, 0.013003089, -0.016600084, 0.03042221
67, 92218514, 0.79786736, -0.073763825, -0.09060383, 0.59140307, -0.007404817, -0.014164574, -0.0648365
68, 92235181, 0.798017, -0.073417604, -0.090283565, 0.5912931, 0.065572776, 3.530946E-4, -0.11691666
69, 92251848, 0.79820687, -0.072961435, -0.089936174, 0.5911463, 0.0010291655, -0.13709491, -0.08014488
70, 92268515, 0.7986199, -0.07254392, -0.08970534, 0.5906749, 0.0052840137, -0.11863582, 0.03232193
71, 92285182, 0.7992182, -0.07224454, -0.08954691, 0.589926, 0.09482135, -0.13316695, -0.00242424
72, 92301849, 0.79927486, -0.07204266, -0.08956693, 0.58987075, 0.0037154, -0.050096408, -0.066295624
73, 92318516, 0.79948956, -0.0721912, -0.08977769, 0.5895294, 0.023532059, -0.11409906, -0.06032753
74, 92335183, 0.7996164, -0.072405145, -0.09006571, 0.58928716, 0.16809052, -0.0900199, 0.050097466
75, 92351850, 0.79977304, -0.07234682, -0.090208255, 0.58905995, 0.1834016, -0.110010564, 0.08670235
76, 92368517, 0.8002478, -0.072276816, -0.09023911, 0.5884186, 0.06548041, -0.037508044, -0.035923958
77, 92385184, 0.80035734, -0.07229146, -0.090370886, 0.58824766, 0.036054205, -0.059039775, -0.07450771
78, 92401851, 0.80043644, -0.072422445, -0.09053179, 0.5880991, 0.20774591, -0.18401664, 0.038277626
79, 92418518, 0.80030465, -0.07237142, -0.0907185, 0.58825594, 0.22200693, -0.1461568, 0.03196621
80, 92435185, 0.8003362, -0.072390676, -0.09081337, 0.58819604, 0.12827682, -0.015935691, -0.10517502
81, 92451852, 0.80048954, -0.07243008, -0.090915486, 0.5879667, 0.14491619, -0.07166099, -0.1718378
82, 92468519, 0.80042225, -0.0722241, -0.09093176, 0.5880811, 0.15926158, -0.19439057, -0.036367416
83, 92485186, 0.8002936, -0.071412325, -0.09083617, 0.58837, 0.33013758, -0.32672873, 0.07380009
84, 92501853, 0.8008195, -0.07037746, -0.090385444, 0.58784854, 0.16481191, 0.0541972, -0.03236389
85, 92518520, 0.8008648, -0.06945436, -0.08998747, 0.5879577, -0.005843243, -0.07500654, -0.18420124
86, 92535187, 0.80075765, -0.06912844, -0.08992422, 0.5881515, -0.15392935, -0.09320669, -0.21213627
87, 92551854, 0.8010122, -0.069238596, -0.09000404, 0.5877796, 0.086121105, -0.2231441, 0.089904785
88, 92568521, 0.80084944, -0.06913924, -0.09005613, 0.588005, 0.15615638, -0.06242292, 0.20111942
89, 92585188, 0.80146146, -0.06920346, -0.08993744, 0.58718115, -0.027065631, -0.06667268, 0.06719303
90, 92601855, 0.8016495, -0.06925563, -0.0899209, 0.5869207, -0.010396649, -0.13091226, 0.12050152
91, 92618522, 0.8018012, -0.06917449, -0.08996036, 0.58671695, 0.16467597, -0.25342625, 0.1958313
92, 92635189, 0.8016516, -0.06896906, -0.08996075, 0.5869457, 0.07625469, -0.004966458, 0.11620426
93, 92651856, 0.8020093, -0.0691038, -0.08994271, 0.58644366, -0.040532287, -0.03774659, -0.0017719269
94, 92668523, 0.8021103, -0.069329984, -0.08993014, 0.58628076, -0.081124365, -0.116613865, 0.014322281
95, 92685190, 0.80209905, -0.06937966, -0.08980387, 0.58630955, 0.1855318, -0.2958214, 0.14189911
96, 92701857, 0.8023206, -0.06901508, -0.08948242, 0.58609873, 0.19452529, -0.09231504, 0.11475849
97, 92718524, 0.8025131, -0.06884044, -0.08909702, 0.5859143, -0.035672612, 0.023799883, -0.1487608
98, 92735191, 0.80312884, -0.06915576, -0.08885556, 0.58506966, -0.043487128, -0.059725624, -0.21288872
99, 92751858, 0.80291253, -0.06958764, -0.088878885, 0.58531135, 0.122722976, -0.06452003, -0.1400652
100, 92768525, 0.8028163, -0.069912225, -0.088898286, 0.585402, 0.22262293, -0.12240363, -0.082962036
101, 92785192, 0.8025975, -0.06991742, -0.08879684, 0.5857166, 0.11775305, -0.10427399, -0.10575771
102, 92801859, 0.80278265, -0.069893986, -0.08870627, 0.5854793, 0.03896356, -0.08264766, -0.18462849
103, 92818526, 0.8029144, -0.06980648, -0.088648446, 0.58531797, 0.09453687, -0.13977472, -0.176198
104, 92835193, 0.80292636, -0.069648884, -0.08866862, 0.5853172, 0.06982561, -0.16705598, -0.14223671
105, 92851860, 0.80279726, -0.06956235, -0.088797785, 0.585485, 0.115079276, -0.14257294, -0.20780087
106, 92868527, 0.8032018, -0.06961491, -0.08894464, 0.5849013, 0.075391814, -0.11343557, -0.20230007
107, 92885194, 0.8031869, -0.06975922, -0.089226216, 0.5848617, 0.018256761, -0.13310431, -0.08213043
108, 92901861, 0.8032041, -0.0698494, -0.08960974, 0.5847686, 0.035088293, -0.22512354, 0.04685688
109, 92918528, 0.803293, -0.070008405, -0.09004593, 0.5845604, 0.037395395, -0.07284147, -0.002289772
110, 92935195, 0.8032255, -0.070279196, -0.09052821, 0.5845461, 0.04584055, -0.1397489, -0.07226753
111, 92951862, 0.80314934, -0.07041393, -0.09101918, 0.5845584, 0.08872939, -0.18067256, 0.034695625
112, 92968529, 0.80329305, -0.07073039, -0.09152258, 0.5842441, 0.113634884, -0.13547215, 0.07066631
113, 92985196, 0.8033193, -0.07104633, -0.09191755, 0.58410776, 0.09984564, -0.11319892, 0.0897913
114, 93001863, 0.8033317, -0.07119139, -0.09223277, 0.58402336, 0.06584597, -0.10987763, 0.083073616
115, 93018530, 0.8036003, -0.071222894, -0.09239937, 0.5836235, 0.095475346, -0.20539287, 0.121315956
116, 93035197, 0.8035869, -0.071150266, -0.092597894, 0.5836193, 0.088744365, -0.1594637, 0.088853836
117, 93051864, 0.80361474, -0.07113068, -0.09273281, 0.5835618, 0.06133922, -0.093017936, 0.024763107
118, 93068531, 0.8035004, -0.071103096, -0.092786275, 0.5837142, 0.07936151, -0.0998191, 0.0034952164
119, 93085198, 0.8035592, -0.07108087, -0.09278596, 0.5836361, 0.10512591, -0.18404526, 0.05944538
120, 93101865, 0.8031997, -0.07101523, -0.09289032, 0.58412206, 0.12704656, -0.17633903, 0.04066086
121, 93118532, 0.8029492, -0.070992604, -0.092898645, 0.5844678, 0.11336292, -0.064792216, -0.052649498
122, 93135199, 0.80310655, -0.07090359, -0.09277477, 0.5842822, 0.0553774, -0.06545734, -0.11011791
123, 93151866, 0.8029634, -0.07078701, -0.092682265, 0.58450747, 0.06503724, -0.1524716, -0.023673058
124, 93168533, 0.80277383, -0.07062517, -0.092598684, 0.58480054, 0.09124526, -0.123531975, -0.01670742
125, 93185200, 0.80251735, -0.07016668, -0.09245312, 0.5852307, 0.1392778, -0.1734027, 0.0065555573
126, 93201867, 0.8024631, -0.069720924, -0.092275314, 0.5853866, 0.030342387, -0.07319339, -0.070301056
127, 93218534, 0.8024075, -0.06973866, -0.09227707, 0.5854603, -0.018782856, -0.11230336, -0.08624649
128, 93235201, 0.8021623, -0.06989653, -0.09249047, 0.5857438, 0.04595963, -0.1543657, 0.05027294
129, 93251868, 0.8023444, -0.07012411, -0.092640236, 0.58544326, 0.10592307, -0.112457976, 0.097893715
130, 93268535, 0.80228406, -0.070205234, -0.092786655, 0.58549297, 0.07192988, -0.10911925, 0.097800255
131, 93285202, 0.8022641, -0.07033588, -0.09290692, 0.58548576, -0.024821002, -0.12609684, 0.018871307
132, 93301869, 0.8023028, -0.07054894, -0.09312822, 0.58537203, 0.08516347, -0.19438754, 0.024126053
133, 93318536, 0.8023907, -0.07079154, -0.093303174, 0.5851944, 0.06884501, -0.0576127, -0.04299164
134, 93335203, 0.8024462, -0.07110069, -0.09341859, 0.5850622, 0.05114038, -0.1195373, -0.006501198
135, 93351870, 0.80245805, -0.07139414, -0.09352952, 0.58499247, 0.029956268, -0.17972179, 0.054966927
136, 93368537, 0.8024376, -0.0716143, -0.09367764, 0.5849699, 0.10661199, -0.19136363, 0.14217567
137, 93385204, 0.8025655, -0.0717511, -0.09374275, 0.5847673, 0.13117048, -0.0781622, 0.040676117
138, 93401871, 0.8027978, -0.07198938, -0.09372818, 0.58442134, 0.054431494, -0.083090104, -0.09333038
139, 93418538, 0.8027469, -0.072170846, -0.09373632, 0.58446765, 0.02894923, -0.15022406, -0.053361893
140, 93435205, 0.80274683, -0.07245091, -0.093786985, 0.58442485, 0.118930854, -0.16241568, 0.07309437
141, 93451872, 0.80260086, -0.07258467, -0.09378475, 0.5846091, 0.086862385, -0.14048225, 0.09392929
142, 93468539, 0.8026498, -0.07264648, -0.09375533, 0.58453906, 0.14905526, -0.14573503, -0.0070695877
143, 93485206, 0.80266386, -0.07258799, -0.0936197, 0.58454853, 0.043140516, -0.09294769, -0.055588722
144, 93501873, 0.80268407, -0.072567984, -0.093547344, 0.5845349, 0.149635, -0.18343523, -0.0435009
145, 93518540, 0.8029572, -0.07252674, -0.09341618, 0.58418596, 0.081554286, -0.048096802, -0.041508675
146, 93535207, 0.80289114, -0.07271114, -0.09345297, 0.584248, 0.04368868, -0.065323226, -0.07491398
147, 93551874, 0.802947, -0.072980516, -0.09351479, 0.58412755, 0.013448887, -0.15158409, 0.006459236
148, 93568541, 0.80290204, -0.07317803, -0.09370005, 0.58413494, 0.14805576, -0.19118449, 0.119607925
149, 93585208, 0.8029185, -0.07337712, -0.09375188, 0.5840791, 0.12199952, -0.06785775, -0.0018835068
150, 93601875, 0.80293286, -0.073539555, -0.09375501, 0.5840384, 0.09237209, -0.110581525, -0.11276436
151, 93618542, 0.8027127, -0.07358641, -0.09373169, 0.58433884, 0.029427325, -0.12067688, -0.035794258
152, 93635209, 0.802684, -0.0736522, -0.09370304, 0.58437467, 0.07328878, -0.19444, 0.102347374
153, 93651876, 0.8026882, -0.0736427, -0.09357274, 0.58439094, 0.043312956, -0.06534809, 0.04858589
154, 93668543, 0.80260247, -0.07376046, -0.0935038, 0.58450484, 0.038040508, -0.1044604, -0.096655846
155, 93685210, 0.80253506, -0.073908456, -0.093497336, 0.58457965, 0.016635958, -0.111516535, 0.012239456
156, 93701877, 0.80251473, -0.074196495, -0.09353885, 0.58456445, 0.10394643, -0.15416639, 0.029344559
157, 93718544, 0.80245584, -0.0742585, -0.093515486, 0.5846412, 0.09067904, -0.11274602, 0.043269157
158, 93735211, 0.8022771, -0.07430775, -0.09347599, 0.5848864, 0.07689617, -0.14055729, -0.0055971146
159, 93751878, 0.80233556, -0.074404076, -0.09341423, 0.5848037, -0.0012777118, -0.11890051, 0.00431633
160, 93768545, 0.80235744, -0.074562475, -0.09343136, 0.58475083, 0.1527292, -0.09862727, -0.009885788
161, 93785212, 0.80236477, -0.0747395, -0.09338854, 0.58472514, 0.06153781, -0.061911356, -0.08055687
162, 93801879, 0.80245364, -0.07502324, -0.09343859, 0.5845589, 0.100708626, -0.15609373, -0.11733341
163, 93818546, 0.80244714, -0.07527206, -0.093513064, 0.5845238, 0.06579277, -0.12904721, -0.08384895
164, 93835213, 0.80247104, -0.0753998, -0.093560025, 0.58446705, 0.12581891, -0.20577648, 0.089468
165, 93851880, 0.80260366, -0.07529867, -0.09352608, 0.58430344, 0.22395657, -0.1665655, 0.07195568
166, 93868547, 0.8026007, -0.0751726, -0.09344139, 0.5843374, 0.095021166, -0.070683405, -0.14043903
167, 93885214, 0.8025882, -0.075117186, -0.093429156, 0.5843635, 0.06478618, -0.09276279, -0.1967535
168, 93901881, 0.802677, -0.07518916, -0.093410455, 0.5842353, 0.0625872, -0.1524331, -0.07530403
169, 93918548, 0.8024368, -0.07513591, -0.09344871, 0.58456576, 0.1869321, -0.20156571, 0.10678291
170, 93935215, 0.80245686, -0.074964054, -0.09337461, 0.58457226, 0.11084616, -0.09222362, 0.020970345
171, 93951882, 0.8023567, -0.074922636, -0.09340594, 0.5847099, 0.060644485, -0.11084164, -0.18098164
172, 93968549, 0.80228806, -0.0749977, -0.09356136, 0.5847698, 0.031147312, -0.14075488, -0.1532526
173, 93985216, 0.8023474, -0.07524421, -0.09378167, 0.58462125, 0.1128513, -0.15874784, -0.023129463
174, 94001883, 0.8023535, -0.075265706, -0.09391187, 0.5845892, 0.17265773, -0.19849901, 0.019364357
175, 94018550, 0.8022463, -0.075208426, -0.0940049, 0.5847288, 0.047629047, -0.12277774, -0.14354134
176, 94035217, 0.80222327, -0.07528371, -0.0941945, 0.5847202, 0.04277675, -0.18960744, -0.28396893
177, 94051884, 0.8021883, -0.075349115, -0.09448881, 0.5847123, 0.096180975, -0.22714286, -0.3004589
178, 94068551, 0.8021349, -0.07554983, -0.09493544, 0.58468735, 0.1253558, -0.20753977, -0.4086399
179, 94085218, 0.80205214, -0.07580449, -0.09547262, 0.58468044, 0.11107527, -0.16826887, -0.50830555
180, 94101885, 0.8019584, -0.07612342, -0.096121855, 0.5846612, 0.125583, -0.25290602, -0.5162935
181, 94118552, 0.8015928, -0.07645841, -0.09702226, 0.58496994, 0.14658779, -0.29701352, -0.69313335
182, 94135219, 0.80128247, -0.07688203, -0.098156855, 0.5851503, 0.18031047, -0.233766, -0.9131737
183, 94151886, 0.8011072, -0.07749015, -0.09953176, 0.58507776, 0.1279876, -0.22066747, -1.0922356
184, 94168553, 0.8008614, -0.07796848, -0.101124376, 0.5850777, 0.23448952, -0.3061263, -0.8751488
185, 94185220, 0.8003461, -0.07749628, -0.10280407, 0.58555275, 0.53397965, -0.4337812, -0.5731096
186, 94201887, 0.8003363, -0.07624657, -0.10434165, 0.585458, 0.32811376, -0.3067142, -0.71754074
187, 94218554, 0.80011004, -0.07454176, -0.10601491, 0.58568615, 0.13865124, -0.19858216, -0.86237717
188, 94235221, 0.7999233, -0.07282066, -0.10791782, 0.58581024, 0.067060985, -0.17959853, -0.80869865
189, 94251888, 0.79968375, -0.07115757, -0.11002279, 0.58595014, 0.06700533, -0.27421716, -0.6977329
190, 94268555, 0.79952604, -0.06942045, -0.1123343, 0.58593524, 0.14422068, -0.35249534, -0.4754057
191, 94285222, 0.79927367, -0.0672265, -0.114602864, 0.58609605, 0.26170516, -0.24590102, -0.41341496
192, 94301889, 0.7992619, -0.06470654, -0.1167397, 0.58597404, 0.086286955, -0.20346402, -0.49214935
193, 94318556, 0.7988918, -0.06235559, -0.11911642, 0.5862552, -0.050209727, -0.14355734, -0.6125002
194, 94335223, 0.798864, -0.060462307, -0.1217899, 0.5859419, -0.0023234172, -0.1426869, -0.63926125
195, 94351890, 0.79830605, -0.05880795, -0.124847814, 0.58622736, 0.24635464, -0.06952362, -0.580163
196, 94368557, 0.7978704, -0.05729033, -0.12809584, 0.5862697, 0.20356442, 0.004492303, -0.756402
197, 94385224, 0.79732376, -0.056048427, -0.13164869, 0.5863463, -0.02272512, 0.12364091, -0.84530544
198, 94401891, 0.79671603, -0.055064358, -0.13548708, 0.5863914, -0.020174503, -0.18535575, -0.60092545
199, 94418558, 0.79606575, -0.053575806, -0.1394712, 0.58647853, 0.42268625, -0.26110035, -0.4755268
200, 94435225, 0.7954482, -0.051656757, -0.14341119, 0.5865382, 0.23902017, 0.08742226, -0.7917805
201, 94451892, 0.79475427, -0.05008164, -0.14771512, 0.58654743, -0.03208115, 0.21997596, -1.0691109
202, 94468559, 0.79401815, -0.048928384, -0.1523566, 0.58645445, -0.09694025, -0.041712433, -0.6715994
203, 94485226, 0.7932864, -0.047444895, -0.15727778, 0.5862673, 0.3749593, -0.30826938, -0.23127937
204, 94501893, 0.79266983, -0.045311492, -0.16196214, 0.5859946, 0.3537381, 0.13713, -0.3227167
205, 94518560, 0.7920885, -0.042905036, -0.16673046, 0.58562446, 0.17624287, 0.07240937, -0.6593418
206, 94535227, 0.7913716, -0.040538963, -0.17167422, 0.5853338, -0.013042651, 0.4659832, -0.8076544
207, 94551894, 0.7904656, -0.03860538, -0.1768039, 0.585162, 0.031168211, 0.18976842, -0.7558756
208, 94568561, 0.78929377, -0.03599291, -0.18185127, 0.58536315, 0.29931703, 0.04636022, -0.384717
209, 94585228, 0.788044, -0.03197732, -0.18640456, 0.5858478, 0.7517199, 0.048201546, -0.502594
210, 94601895, 0.7866655, -0.026968462, -0.19060476, 0.58660054, 0.5304995, 0.49725586, -0.854928
211, 94618562, 0.7851396, -0.022172393, -0.19490443, 0.587432, 0.04587324, 0.23357585, -0.7444029
212, 94635229, 0.78352875, -0.017424654, -0.19991884, 0.5880575, 0.34023064, -0.40429947, -0.20619583
213, 94651896, 0.78199637, -0.012104733, -0.2048986, 0.58851665, 0.7536442, -0.05887612, 0.1726675
214, 94668563, 0.7805973, -0.0064424425, -0.20979871, 0.5887369, 0.6140299, 0.20297907, -0.24535751
215, 94685230, 0.7792135, -0.0012167216, -0.21502143, 0.58871967, 0.17466219, 0.50424635, -0.63901234
216, 94701897, 0.7777924, 0.003291098, -0.22060758, 0.58852416, 8.9986314E-4, 0.33481696, -0.31028748
217, 94718564, 0.7763836, 0.0075246817, -0.22651674, 0.5881007, 0.22136119, -0.30519766, 0.09072399
218, 94735231, 0.77497905, 0.01201403, -0.2324853, 0.58754885, 0.41608813, 0.020060934, 0.1152668
219, 94751898, 0.7736198, 0.01630156, -0.23843642, 0.58685166, 0.23437412, 0.5062484, -0.19040489
220, 94768565, 0.7722278, 0.019845307, -0.2448051, 0.585953, -0.1214565, 0.50522155, -0.22129917
221, 94785232, 0.77081376, 0.022397405, -0.2516853, 0.584807, -0.0301272, 0.2862906, 0.025938988
222, 94801899, 0.7693657, 0.024910456, -0.25866917, 0.5835634, 0.41077614, 0.033635013, 0.11876583
223, 94818566, 0.767801, 0.027848214, -0.2655618, 0.5823944, 0.39839575, 0.38684064, -0.14219093
224, 94835233, 0.76615727, 0.03077309, -0.272419, 0.58124346, 0.119726054, 0.5811373, -0.32242203
225, 94851900, 0.76442283, 0.03346855, -0.27922115, 0.5801492, 3.328108E-4, 0.5362262, 0.0013160706
226, 94868567, 0.76272845, 0.03530196, -0.28632656, 0.57880574, 0.002433162, 0.15385503, -0.029745102
227, 94885234, 0.7609299, 0.03744214, -0.29342622, 0.5774818, 0.27147192, 0.116160855, -0.14150238
228, 94901901, 0.7591604, 0.039862566, -0.30032444, 0.5761006, 0.16819976, 0.39859307, -0.09101868
229, 94918568, 0.7573941, 0.042568225, -0.30705607, 0.5746815, 0.045937054, 0.22026445, 0.09874058
230, 94935235, 0.75570273, 0.045093216, -0.313915, 0.5730073, 0.030652342, -0.031375546, 0.36548424
231, 94951902, 0.75394785, 0.048092764, -0.32041046, 0.57147783, 0.13186303, 0.067992896, 0.52765465
232, 94968569, 0.75223505, 0.051636927, -0.3264498, 0.57000583, 0.19954567, 0.09006265, 0.4481802
233, 94985236, 0.7504986, 0.055261627, -0.33247554, 0.5684701, -0.032904908, 0.20604168, 0.13091469
234, 95001903, 0.7487103, 0.05874668, -0.3384115, 0.56697404, -0.1368315, 0.081098296, 0.35289955
235, 95018570, 0.7469582, 0.0618608, -0.34436452, 0.565367, 0.047311433, 0.19664623, 0.2715912
236, 95035237, 0.74512225, 0.064982355, -0.3502015, 0.5638521, -0.03230187, 0.2307222, 0.28959846
237, 95051904, 0.74315506, 0.068053365, -0.35608786, 0.56239724, 0.24808866, 0.27722323, 0.11618996
238, 95068571, 0.74104893, 0.07139937, -0.36180562, 0.561111, 0.16900955, 0.48273793, 0.0047016144
239, 95085238, 0.73885036, 0.07475328, -0.36734626, 0.55997235, 0.12350946, 0.48287398, 0.021188736
240, 95101905, 0.7365675, 0.078239836, -0.37268558, 0.55897456, 0.0104785105, 0.4174267, 0.06825733
241, 95118572, 0.7342257, 0.081949994, -0.3778655, 0.5580455, 0.16435333, 0.33157808, 0.060515404
242, 95135239, 0.7317258, 0.08631633, -0.3828311, 0.5572856, 0.3722776, 0.26987725, 0.14002132
243, 95151906, 0.7292153, 0.09108106, -0.38761768, 0.5565087, 0.2500654, 0.4569808, 0.020223618
244, 95168573, 0.72660834, 0.095773384, -0.39264712, 0.5556043, 0.05713729, 0.53716165, -0.06960297
245, 95185240, 0.72387385, 0.100622214, -0.3976348, 0.5547689, -0.027098712, 0.60347515, 0.07293129
246, 95201907, 0.7210835, 0.10532974, -0.40268728, 0.55388397, 0.13375932, 0.47355455, 0.1595316
247, 95218574, 0.7181003, 0.11067766, -0.40774733, 0.55301416, 0.3819966, 0.054185186, 0.13843918
248, 95235241, 0.714842, 0.117180735, -0.41267985, 0.55223656, 0.54265237, 0.12050092, 0.08943272
249, 95251908, 0.7112519, 0.124760725, -0.41739994, 0.5516637, 0.67525077, 0.40836868, -0.02454853
250, 95268575, 0.70732874, 0.13330957, -0.42171714, 0.55142474, 0.5350364, 0.504745, 0.07277012
251, 95285242, 0.70284724, 0.1425452, -0.42620242, 0.5513967, 0.6533494, 0.615411, -0.079888344
252, 95301909, 0.6980655, 0.15186258, -0.4307841, 0.5514231, 0.5383544, 0.86639905, -0.16593838
253, 95318576, 0.69326943, 0.16010158, -0.43606988, 0.5509884, 0.26488185, 1.2988428, -0.47502327
254, 95335243, 0.68856704, 0.16665481, -0.44179258, 0.5503827, 0.17251669, 1.1921338, -0.32139015
255, 95351910, 0.6835817, 0.17305586, -0.44730434, 0.5501698, 0.7078369, 0.45203418, 0.3483591
256, 95368577, 0.6781243, 0.1809057, -0.45229948, 0.5503144, 0.7502818, 0.0035558676, 0.7722254
257, 95385244, 0.67175597, 0.19075361, -0.4565199, 0.55131346, 0.74222594, -0.14683415, 0.68877983
258, 95401911, 0.6648628, 0.2017201, -0.46022666, 0.55268234, 0.3897838, 0.24411705, 0.49929047
259, 95418578, 0.6584244, 0.2110638, -0.46472475, 0.553137, -0.7706018, 0.942556, 0.045627594
260, 95435245, 0.6521528, 0.21785067, -0.47030205, 0.55322146, -0.59235764, 0.937256, 0.007978439
261, 95451912, 0.6460039, 0.2237747, -0.4764217, 0.55283505, 0.32951352, 0.4688678, 0.36537743
262, 95468579, 0.6396304, 0.23031643, -0.4819732, 0.55274695, 0.338098, 0.010560876, 1.0121317
263, 95485246, 0.6330186, 0.2377063, -0.48717567, 0.5526692, 0.29240277, -0.02690839, 1.1223955
264, 95501913, 0.6269733, 0.24496108, -0.49169484, 0.55239016, -0.573161, 0.09569093, 0.9182348
265, 95518580, 0.62141305, 0.2510337, -0.49714288, 0.5510692, -1.0824442, 0.16764332, 0.35550117
266, 95535247, 0.61602616, 0.25669816, -0.5030769, 0.54911876, -0.54261255, -0.14650548, 0.47709942
267, 95551914, 0.6105962, 0.26286763, -0.5090288, 0.54677486, 0.119303614, -0.33661544, 0.4967804
268, 95568581, 0.6050273, 0.27008665, -0.51445675, 0.5443616, 0.23735444, -0.54204094, 0.67588043
269, 95585248, 0.59943086, 0.27809548, -0.51959383, 0.54163456, 0.0810382, -0.2658653, 0.7001715
270, 95601915, 0.594421, 0.28571033, -0.5245738, 0.53838235, -0.77523166, 0.04081626, 0.6078558
271, 95618582, 0.5891493, 0.29275718, -0.52968216, 0.5353813, -0.99399453, -0.09017317, 0.82527256
272, 95635249, 0.5838598, 0.2993851, -0.5347948, 0.53242, -0.260866, -0.2103115, 0.7964182
273, 95651916, 0.57843566, 0.30612692, -0.53950655, 0.5297464, -0.3061334, -0.54768455, 0.7893257
274, 95668583, 0.57280475, 0.31274363, -0.5442236, 0.52716887, -0.602765, -0.25665277, 0.6297598
275, 95685250, 0.56793237, 0.31782678, -0.54893833, 0.52450556, -1.0942646, -0.020486303, 0.42463398
276, 95701917, 0.5637433, 0.3213057, -0.5538008, 0.5217862, -0.8777573, -0.27065945, 0.11448383
277, 95718584, 0.5589248, 0.3253497, -0.5581491, 0.5198273, 0.5213301, -0.9804369, 0.3089695
278, 95735251, 0.55327547, 0.33203226, -0.5609615, 0.51861686, 1.4400151, -1.4532428, 0.8287144
279, 95751918, 0.5471729, 0.34074387, -0.56197375, 0.5183446, 1.0109625, -1.3402764, 0.91656494
280, 95768585, 0.5420356, 0.34877446, -0.5626386, 0.51767915, -0.48505554, -0.6974065, 0.68736935
281, 95785252, 0.5383043, 0.35394782, -0.56498855, 0.51549727, -1.7284952, -0.0635273, 0.09542084
282, 95801919, 0.53550357, 0.35614485, -0.5685676, 0.51295996, -1.200599, -0.35475507, 0.04540062
283, 95818586, 0.5330803, 0.35720876, -0.5727588, 0.5100734, 0.117863744, -1.0426013, 0.4944601
284, 95835253, 0.53069144, 0.35853857, -0.57656544, 0.50733554, 0.7161011, -1.1379919, 0.7722006
285, 95851920, 0.5284078, 0.3606482, -0.5789536, 0.5055007, 0.6775444, -1.2768795, 0.73849773
286, 95868587, 0.5260735, 0.36341476, -0.58014756, 0.50458425, -0.02986312, -1.411481, 0.60940266
287, 95885254, 0.5234185, 0.3662879, -0.581037, 0.50424445, -0.2437659, -1.2702545, 0.47234058
288, 95901921, 0.52056646, 0.3690062, -0.5817985, 0.50433695, -0.028705098, -1.264738, 0.3947258
289, 95918588, 0.51717186, 0.37207386, -0.5825496, 0.5047085, -0.3904369, -1.1244922, 0.46388626
290, 95935255, 0.5136201, 0.3747063, -0.58358145, 0.5051954, -0.41957718, -0.2546836, 0.5603466
291, 95951922, 0.51179683, 0.37542397, -0.58475435, 0.50515664, -0.75342774, 0.041732326, 0.4384899
292, 95968589, 0.51070744, 0.3748755, -0.5862322, 0.50495374, -0.76504505, -0.13145065, 0.062628746
293, 95985256, 0.51009804, 0.37364402, -0.5878622, 0.5045873, -0.0029523827, -0.2932701, 0.32260418
294, 96001923, 0.51023155, 0.37240377, -0.5892558, 0.5037428, -0.3851687, -0.34452087, 0.29358768
295, 96018590, 0.51069725, 0.3707698, -0.59062535, 0.5028715, -0.36957955, -0.067033544, -0.043459892
296, 96035257, 0.51089287, 0.36915165, -0.59241164, 0.5017609, -0.22546914, -0.09582771, -0.15852737
297, 96051924, 0.51037705, 0.36789104, -0.59408855, 0.5012288, 0.2621018, -0.04755942, 0.0147743225
298, 96068591, 0.50962615, 0.3673106, -0.5951165, 0.5011993, 0.57141936, -0.026322562, -0.043945312
299, 96085258, 0.5086999, 0.36753282, -0.5957035, 0.50127983, 0.49145246, -0.027847257, -0.11063576
300, 96101925, 0.50780284, 0.36816368, -0.59623337, 0.50109637, 0.07132455, 0.31048867, -0.112976074
301, 96118592, 0.50738823, 0.36837667, -0.59687746, 0.500593, -0.123702355, 0.4692888, -0.14536381
302, 96135259, 0.5071644, 0.3682775, -0.5978664, 0.49971184, 0.110246874, 0.3132516, -0.11683273
303, 96151926, 0.5071706, 0.36794427, -0.5988804, 0.49873564, 0.32877973, 0.020237757, 0.06427574
304, 96168593, 0.50750273, 0.36762086, -0.5997811, 0.49755275, 0.20645288, -0.1833697, 0.051962852
305, 96185260, 0.5077259, 0.3674416, -0.6009323, 0.49606606, -0.2879294, -3.5069181E-4, -4.0626526E-4
306, 96201927, 0.5082059, 0.36658704, -0.60240424, 0.4944188, -0.26911607, 0.059583414, 0.026991844
307, 96218594, 0.50860953, 0.3653818, -0.6041907, 0.49271306, -0.0016439378, -0.095383145, 0.07607651
308, 96235261, 0.50873446, 0.36441624, -0.60584635, 0.49126428, 0.10462798, -0.09715818, 0.11697674
309, 96251928, 0.5088429, 0.36369267, -0.60699964, 0.49026334, 0.16109495, -0.32187486, 0.1535883
310, 96268595, 0.5087642, 0.3635599, -0.60776997, 0.48948857, 0.11996075, -0.433897, 0.09067726
311, 96285262, 0.50841296, 0.3639536, -0.60825866, 0.48895362, -0.020499714, -0.28189075, 0.018696785
312, 96301929, 0.507838, 0.36451137, -0.6086173, 0.48868924, 0.004818045, -0.18790075, 0.03312397
313, 96318596, 0.50729656, 0.36496285, -0.6089834, 0.4884583, 0.0076298383, -0.013821147, 0.01612854
314, 96335263, 0.5070985, 0.36495182, -0.609398, 0.4881549, 0.31622458, -0.114376165, 0.011880875
315, 96351930, 0.50671154, 0.36528715, -0.60962707, 0.48802006, 0.3113435, -0.1774294, 0.026881218
316, 96368597, 0.5066644, 0.3654474, -0.60960436, 0.48797762, 0.21922128, -0.24659783, 0.18913841
317, 96385264, 0.5069542, 0.36524487, -0.60973406, 0.48766613, 0.0749687, -0.09333376, 0.029254913
318, 96401931, 0.5074476, 0.36452946, -0.6102226, 0.4870766, -0.10633651, -0.053377464, -0.02352047
319, 96418598, 0.5080733, 0.36335647, -0.6110145, 0.48630762, -0.0092887515, -0.122220464, -0.02807808
320, 96435265, 0.5085512, 0.362253, -0.6117256, 0.4857369, 0.18303566, -0.31015047, 0.04829979
321, 96451932, 0.50881124, 0.36136386, -0.61230516, 0.48539668, 0.31080168, -0.25129986, -0.034423828
322, 96468599, 0.50876266, 0.36079594, -0.6127911, 0.48525658, 0.2546633, -0.14926945, -0.08318901
323, 96485266, 0.5086423, 0.36016497, -0.61345446, 0.48501334, 0.04889033, 0.11010539, -0.03630829
324, 96501933, 0.5089359, 0.35895362, -0.61423314, 0.48461765, -0.18320218, 0.23293614, 0.042705536
325, 96518600, 0.50935984, 0.35762063, -0.61503124, 0.4841454, -0.04750969, 0.02798114, -0.12055683
326, 96535267, 0.50966895, 0.35675514, -0.6157432, 0.48355305, 0.2667542, -0.19537222, -0.14142513
327, 96551934, 0.5099544, 0.35645512, -0.6161284, 0.48298287, 0.30570582, -0.14354661, -0.01224041
328, 96568601, 0.5103367, 0.356414, -0.6162307, 0.4824785, 0.17379741, 0.0476885, 0.05342579
329, 96585268, 0.51071304, 0.35643375, -0.6161507, 0.48216766, 0.1043687, 0.17661178, 0.100753784
330, 96601935, 0.51084304, 0.35658127, -0.61596566, 0.48215732, 0.09557593, 0.08475265, 0.06609154
331, 96618602, 0.51069117, 0.3570514, -0.6155609, 0.48248717, 0.050813884, 0.005506577, 0.099515915
332, 96635269, 0.5104097, 0.35759988, -0.6151217, 0.48293865, -0.043294013, -0.0066517456, 0.10036945
333, 96651936, 0.5101052, 0.3580474, -0.61469865, 0.48346698, -0.033208884, 0.09041792, 0.13191795
334, 96668603, 0.50984913, 0.35832626, -0.614376, 0.48394042, -0.2292816, 0.2891225, 0.064388275
335, 96685270, 0.50990206, 0.35813913, -0.6143601, 0.48404357, -0.1250385, 0.27211607, -0.011175156
336, 96701937, 0.50990486, 0.35802454, -0.61439925, 0.4840756, 0.15938753, -0.012942742, 0.10611725
337, 96718604, 0.50999415, 0.35804313, -0.61413014, 0.48430917, -0.039524242, -0.04911038, 0.105083466
338, 96735271, 0.5102059, 0.35796127, -0.6138503, 0.4845014, -0.11360136, -0.14485808, 0.05113697
339, 96751938, 0.5103572, 0.35787663, -0.61349523, 0.48485425, -0.14294212, -0.15539324, 0.15234661
340, 96768605, 0.5105904, 0.3575375, -0.61318845, 0.4852467, -0.1777127, -0.111527935, 0.15757275
341, 96785272, 0.5106701, 0.35699877, -0.61299396, 0.4858049, -0.09023486, -0.2681104, 0.16306114
342, 96801939, 0.5106748, 0.3564139, -0.6126882, 0.48661447, -0.0018158193, -0.34563875, 0.30929375
343, 96818606, 0.5108898, 0.35581943, -0.612073, 0.487597, 0.05232081, -0.34911048, 0.19963932
344, 96835273, 0.5114515, 0.35524032, -0.6112076, 0.4885151, 0.1582246, -0.44626865, 0.17703342
345, 96851940, 0.5122884, 0.35483012, -0.6099971, 0.48944858, -0.093250275, -0.37537795, 0.10489845
346, 96868607, 0.5135818, 0.3540352, -0.60874856, 0.49022233, -0.3740802, -0.36960694, -0.0059947968
347, 96885274, 0.51522195, 0.352764, -0.6077025, 0.49071532, -0.36578453, -0.5848869, 0.0052080154
348, 96901941, 0.5168691, 0.3514694, -0.6064811, 0.491423, -0.24026078, -0.7367436, 0.12379074
349, 96918608, 0.51866865, 0.35034767, -0.6048589, 0.4923262, -0.16713472, -0.9052373, 0.2327776
350, 96935275, 0.5206091, 0.3493551, -0.6027594, 0.4935568, -0.42480627, -0.67549783, 0.30842972
351, 96951942, 0.5229843, 0.3478673, -0.6005128, 0.4948338, -0.6820746, -0.60111576, 0.314888
352, 96968609, 0.52559733, 0.34574097, -0.5987065, 0.49574307, -0.5956529, -0.64846057, 0.47215176
353, 96985276, 0.52859735, 0.34329185, -0.59678483, 0.4965719, -0.51726013, -0.7201561, 0.74954605
354, 97001943, 0.5320896, 0.34066772, -0.59430367, 0.49762374, -0.44368887, -0.81593513, 0.6656122
355, 97018610, 0.53568757, 0.33814335, -0.59152794, 0.4987912, -0.57983774, -0.92395884, 0.6049738
356, 97035277, 0.53993964, 0.33495146, -0.58885145, 0.49952644, -0.7860329, -0.7274276, 0.7577143
357, 97051944, 0.54494274, 0.33070922, -0.5864399, 0.49975735, -0.97865105, -0.52596736, 0.63770294
358, 97068611, 0.5503445, 0.32564813, -0.5843106, 0.49965525, -0.52444947, -0.6031668, 0.7908659
359, 97085278, 0.55591166, 0.3204489, -0.5818212, 0.49975893, -0.13901791, -0.8725108, 0.9359741
360, 97101945, 0.5618073, 0.31489038, -0.5790897, 0.49987173, -0.6918037, -0.53469104, 0.9266882
361, 97118612, 0.5685364, 0.30755165, -0.57656217, 0.49975434, -1.0192008, -0.19833064, 0.8232393
362, 97135279, 0.57564414, 0.29928687, -0.57405454, 0.4995224, -0.4271297, -0.9284833, 0.698864
363, 97151946, 0.5821254, 0.29194772, -0.5708928, 0.49997804, 0.07228498, -1.634322, 0.7399912
364, 97168613, 0.5881575, 0.2856859, -0.56677735, 0.5012167, 0.08472661, -1.63593, 1.0921221
365, 97185280, 0.5944205, 0.2794368, -0.561785, 0.5029683, -0.51507485, -0.980258, 1.1855421
366, 97201947, 0.60094696, 0.27265808, -0.55639875, 0.5049168, -0.37217948, -0.9966218, 1.0743008
367, 97218614, 0.60729146, 0.26608786, -0.5506627, 0.5071144, -0.03706694, -1.1067475, 1.2654123
368, 97235281, 0.61358196, 0.25978583, -0.5441927, 0.509787, -0.04215365, -1.029936, 1.3574
369, 97251948, 0.61980873, 0.2536597, -0.5371358, 0.5128148, -0.08847492, -0.7724752, 1.462204
370, 97268615, 0.62629086, 0.24697998, -0.529763, 0.5158604, -0.3816573, -0.30483043, 1.4047985
371, 97285282, 0.6330297, 0.23933339, -0.5223314, 0.51880914, -0.34690216, -0.28525618, 1.2025452
372, 97301949, 0.6396861, 0.23131584, -0.5148073, 0.52179325, -0.06716944, -0.44424775, 1.0791082
373, 97318616, 0.64617896, 0.22332495, -0.50720775, 0.52470857, 0.32288727, -0.4342223, 1.0615273
374, 97335283, 0.65243435, 0.21593267, -0.49917573, 0.5277558, 0.45608377, -0.06537631, 1.4189482
375, 97351950, 0.6590505, 0.20837072, -0.4903249, 0.53086317, 0.28051838, 0.09597725, 1.3085546
376, 97368617, 0.66550493, 0.20072746, -0.48144743, 0.53387284, 0.1109116, 0.08662435, 1.1936531
377, 97385284, 0.6718648, 0.19256175, -0.47279644, 0.536639, 0.055211276, 0.6183515, 1.0822
378, 97401951, 0.6782428, 0.1838392, -0.46403503, 0.5393158, 0.2524411, 0.27667552, 1.003768
379, 97418618, 0.6841321, 0.17587373, -0.45504016, 0.5421903, 0.58042157, 0.027070548, 1.0951385
380, 97435285, 0.6898831, 0.16809252, -0.4456864, 0.5451329, 0.27990505, 0.5586904, 1.0408545
381, 97451952, 0.69583476, 0.1590317, -0.43652305, 0.5476958, -0.10575851, 1.0245408, 0.61949635
382, 97468619, 0.7016927, 0.14883664, -0.42779484, 0.5499699, 0.18137696, 0.67812157, 0.5465183
383, 97485286, 0.70710605, 0.13907127, -0.41901657, 0.5523452, 0.6853254, 0.24319004, 0.7759638
384, 97501953, 0.71207917, 0.13021684, -0.4098865, 0.55495936, 0.8358151, 0.48806614, 0.73208046
385, 97518620, 0.7169115, 0.121676706, -0.40030366, 0.55766475, 0.42800674, 0.9570966, 0.43449974
386, 97535287, 0.7217799, 0.11238061, -0.3908198, 0.5600575, 0.12264513, 0.9781439, 0.262846
387, 97551954, 0.726364, 0.10267124, -0.38177642, 0.5622287, 0.39268655, 0.64976877, 0.25477314
388, 97568621, 0.73056537, 0.09351062, -0.37278107, 0.564415, 0.75906205, 0.5724131, 0.4368086
389, 97585288, 0.7345096, 0.08513245, -0.36353707, 0.5666473, 0.7784257, 0.72555923, 0.23145962
390, 97601955, 0.7383031, 0.07674578, -0.35442078, 0.5686869, 0.5031078, 0.9327557, -0.11411476
391, 97618622, 0.7419348, 0.067851745, -0.34566525, 0.5704775, 0.4649253, 0.9629763, -0.31290913
392, 97635289, 0.7453035, 0.058931824, -0.33714864, 0.5721718, 0.552881, 0.8422919, -0.2500353
393, 97651956, 0.74839, 0.05050025, -0.32862338, 0.5739066, 0.74576104, 0.70963407, -0.26818752
394, 97668623, 0.7511987, 0.042652927, -0.3200676, 0.57570666, 0.60506475, 0.7385921, -0.36981392
395, 97685290, 0.7538057, 0.03481411, -0.3116989, 0.577416, 0.5542214, 0.7786125, -0.48336124
396, 97701957, 0.7561873, 0.027271925, -0.3033495, 0.5791513, 0.5737403, 0.7529043, -0.409832
397, 97718624, 0.75846183, 0.019946393, -0.29481295, 0.58088154, 0.40608504, 0.6102262, -0.37573624
398, 97735291, 0.7604462, 0.013077842, -0.28664857, 0.582566, 0.50853133, 0.3708805, -0.47715282
399, 97751958, 0.76218045, 0.0065010763, -0.27884868, 0.5841935, 0.5367223, 0.68214536, -0.52956295
400, 97768625, 0.76389974, 1.7678074E-5, -0.27085987, 0.5857407, 0.48590398, 0.67180616, -0.5096693
401, 97785292, 0.7654631, -0.0062061744, -0.26298317, 0.58725435, 0.24557301, 0.44694787, -0.5512657
402, 97801959, 0.7667748, -0.0127450945, -0.25545377, 0.58875954, 0.19942854, 0.5693057, -0.67545795
403, 97818626, 0.7679074, -0.019671027, -0.24834844, 0.5901311, 0.26539034, 0.59958863, -0.66804695
404, 97835293, 0.7689419, -0.026286896, -0.24142534, 0.59139776, 0.49833632, 0.17739578, -0.47741985
405, 97851960, 0.76984644, -0.032103825, -0.2344672, 0.59273213, 0.37525925, 0.2619888, -0.45947456
406, 97868627, 0.7706945, -0.037932817, -0.22760408, 0.5939592, 0.20189735, 0.45084122, -0.7055235
407, 97885294, 0.77141243, -0.043984342, -0.22099568, 0.5951042, 0.12874089, 0.4298436, -0.76731205
408, 97901961, 0.77206945, -0.049684606, -0.21444981, 0.5961976, 0.30360526, 0.05587539, -0.4332943
409, 97918628, 0.7726662, -0.054126777, -0.20790476, 0.597355, 0.49820557, -0.07353389, -0.23496723
410, 97935295, 0.7732791, -0.057476226, -0.20089284, 0.5986469, 0.46209514, 0.32168856, -0.33128548
411, 97951962, 0.77387655, -0.06095808, -0.19384399, 0.5998532, -0.041402757, 0.60326064, -0.80503654
412, 97968629, 0.7743397, -0.06539436, -0.18715622, 0.6009114, -0.15535648, 0.3049988, -0.7839756
413, 97985296, 0.77454203, -0.06991168, -0.18116078, 0.6019783, 0.2578488, -0.13193998, -0.42949677
414, 98001963, 0.77464455, -0.07383081, -0.17523697, 0.6031312, 0.2561008, 0.34628662, -0.55226517
415, 98018630, 0.774719, -0.07827001, -0.16930644, 0.60416865, -0.17479596, 0.6001006, -0.8670082
416, 98035297, 0.7744553, -0.08475078, -0.16432098, 0.6050083, -0.79354775, 0.6818562, -1.4032574
417, 98051964, 0.7735882, -0.094093405, -0.16084114, 0.60567147, -0.61036134, 0.33329988, -1.4755735
418, 98068631, 0.7724869, -0.103135526, -0.15763518, 0.60644734, 0.38348487, -0.1546528, -0.6400156
419, 98085298, 0.77169836, -0.109956175, -0.15347408, 0.6073197, 0.6028304, -0.23445816, -0.2945776
420, 98101965, 0.7712232, -0.11552169, -0.14872305, 0.6080715, 0.039374378, 0.028798135, -0.83660316
421, 98118632, 0.7708221, -0.12132639, -0.14429004, 0.60851765, -0.10127685, 0.026937222, -0.8931751
422, 98135299, 0.77065384, -0.12605302, -0.13994955, 0.6087838, 0.0051340926, -0.36585394, -0.37199497
423, 98151966, 0.7705639, -0.1291934, -0.13563234, 0.60921615, 0.3169446, -0.2534201, -0.3046713
424, 98168633, 0.7705195, -0.13215789, -0.131258, 0.6095946, -0.19318962, 0.30487463, -0.9491892
425, 98185300, 0.7703682, -0.1363417, -0.12745076, 0.6096723, -0.55509925, 0.16783242, -1.0447578
426, 98201967, 0.7701347, -0.1410457, -0.124303564, 0.60954684, -0.20980737, -0.25602335, -0.63892937
427, 98218634, 0.7700087, -0.14472912, -0.1213177, 0.6094442, 0.3412446, -0.3567906, -0.21367836
428, 98235301, 0.7701061, -0.14712268, -0.11787177, 0.60942435, 0.34923452, -0.128453, -0.40126514
429, 98251968, 0.7703386, -0.14896227, -0.11405841, 0.60940903, -0.19564782, 0.05415462, -0.87557316
430, 98268635, 0.77044934, -0.15163827, -0.110494204, 0.60926574, -0.6037696, 0.22118546, -1.2251081
431, 98285302, 0.7702567, -0.15558831, -0.10775791, 0.6090034, -0.44481045, -0.040873703, -0.9212074
432, 98301969, 0.7701151, -0.15904886, -0.105265066, 0.6087246, 0.22024871, -0.21480064, -0.5466604
433, 98318636, 0.7700969, -0.16153778, -0.10264951, 0.6085388, 0.16025807, -0.12887456, -0.6529217
434, 98335303, 0.76997966, -0.16416878, -0.10028332, 0.6083777, -0.25139213, 0.14700839, -1.000329
435, 98351970, 0.7696853, -0.16753292, -0.09850048, 0.60812426, -0.46140003, -0.09913548, -0.76554203
436, 98368637, 0.76945215, -0.17005733, -0.09701285, 0.6079577, 0.20232023, -0.3998013, -0.3900633
437, 98385304, 0.7694966, -0.17141217, -0.09498294, 0.60784143, 0.20552608, -0.18277605, -0.35216427
438, 98401971, 0.76969194, -0.17216462, -0.09279216, 0.6077199, -0.067865126, -0.14502761, -0.51358414
439, 98418638, 0.76996064, -0.17249557, -0.09066344, 0.60760695, -0.022421256, -0.27342263, -0.41462708
440, 98435305, 0.7703099, -0.17214912, -0.08845012, 0.6075889, -0.06232262, -0.1453004, -0.37645912
441, 98451972, 0.77068204, -0.17169812, -0.08633547, 0.60754853, -0.12672296, -0.1811178, -0.5760641
442, 98468639, 0.7710135, -0.17135356, -0.084538475, 0.607478, -0.24527842, -0.20461449, -0.6358633
443, 98485306, 0.771231, -0.1714664, -0.08323611, 0.6073499, -0.116163485, -0.18808024, -0.6289778
444, 98501973, 0.77142435, -0.17156376, -0.08210578, 0.6072307, -0.109174065, -0.1905087, -0.4363041
445, 98518640, 0.7714464, -0.17202723, -0.0813486, 0.6071733, -0.20247798, -0.14124644, -0.5271454
446, 98535307, 0.7712542, -0.17297572, -0.080862336, 0.60721314, -0.2619318, -0.076982, -0.68640995
447, 98551974, 0.77097464, -0.17393902, -0.080568396, 0.60733205, 0.053042307, -0.22463924, -0.5439892
448, 98568641, 0.7708012, -0.1742895, -0.08000691, 0.6075259, -0.03129958, -0.18746221, -0.54055405
449, 98585308, 0.7704841, -0.17513852, -0.07976086, 0.6077163, -0.35011694, -0.1812842, -0.56608295
450, 98601975, 0.7700897, -0.17608947, -0.07979394, 0.60793704, -0.11262661, -0.3101848, -0.28497124
451, 98618642, 0.76986367, -0.17628437, -0.079749346, 0.6081724, 0.2032178, -0.22840934, -0.045931816
452, 98635309, 0.7698115, -0.17601697, -0.07939985, 0.6083618, -0.027324738, -0.09310254, -0.30472374
453, 98651976, 0.7697604, -0.1759088, -0.07922417, 0.60848075, -0.27191687, -0.26338488, -0.4352007
454, 98668643, 0.7696816, -0.1755551, -0.07926184, 0.6086775, -0.0065682633, -0.3465774, -0.2332592
455, 98685310, 0.7697686, -0.17468642, -0.07898361, 0.6088536, -0.00945918, -0.12179802, -0.30156708
456, 98701977, 0.76989144, -0.17373356, -0.078677595, 0.6090106, -0.2998384, -0.0864633, -0.3317051
457, 98718644, 0.7698729, -0.17330305, -0.078720264, 0.609151, -0.3390509, -0.24845879, -0.21692753
458, 98735311, 0.76987296, -0.17283967, -0.07882111, 0.6092695, -0.094443664, -0.24491186, 0.045835495
459, 98751978, 0.7700425, -0.17171146, -0.07864193, 0.6093975, 0.025485171, -0.2206235, 0.084643364
460, 98768645, 0.77024096, -0.17040686, -0.07834086, 0.6095516, -0.19664977, -0.09620053, -0.19204521
461, 98785312, 0.77020425, -0.17003934, -0.07840169, 0.60969275, -0.55557853, -0.024794962, -0.42218304
462, 98801979, 0.7699941, -0.17030066, -0.07889033, 0.6098223, -0.13859648, -0.30643448, -0.06272888
463, 98818646, 0.76988757, -0.16989021, -0.07918586, 0.610033, 0.18612567, -0.09788929, 0.001988411
464, 98835313, 0.7699009, -0.16916081, -0.07909468, 0.6102304, -0.08611194, 0.023044633, -0.20731258
465, 98851980, 0.7697635, -0.16913591, -0.0793291, 0.61038035, -0.45748052, -0.22515723, -0.33886242
466, 98868647, 0.76944524, -0.16973412, -0.08006389, 0.6105198, -0.19242421, -0.39619392, -0.23985863
467, 98885314, 0.76915354, -0.17014825, -0.080866225, 0.6106663, 0.0816846, -0.14003232, -0.10733032
468, 98901981, 0.7689365, -0.17062163, -0.08159433, 0.6107106, 0.053668812, -0.1358105, -0.20711708
469, 98918648, 0.7687087, -0.17131703, -0.08257921, 0.6106704, -0.09566254, -0.31264746, -0.041650772
470, 98935315, 0.76868343, -0.17159593, -0.083425246, 0.6105089, 0.053623665, -0.35889164, 0.21305847
471, 98951982, 0.76881856, -0.17131792, -0.08401001, 0.61033636, 0.10792647, -0.24613214, 0.2338934
472, 98968649, 0.76891255, -0.17115918, -0.08461196, 0.6101794, -0.10918429, -0.22905776, 0.009110451
473, 98985316, 0.76892614, -0.17115963, -0.08528946, 0.6100678, -0.28963014, -0.25910282, -0.008412361
474, 99001983, 0.7689775, -0.17116873, -0.085956134, 0.60990685, -0.1361428, -0.1934347, 0.17322636
475, 99018650, 0.7690128, -0.17138007, -0.08662686, 0.6097083, -0.17098345, -0.09160645, 0.17181206
476, 99035317, 0.7691118, -0.1713834, -0.08710146, 0.60951465, -0.030789692, -0.2806308, 0.35194778
477, 99051984, 0.76930636, -0.17085087, -0.087310545, 0.60938877, 0.0655649, -0.0697936, 0.17466927
478, 99068651, 0.7695139, -0.1701974, -0.08727905, 0.6093141, -0.13598338, -0.0013779574, -0.12551785
479, 99085318, 0.76955897, -0.16983637, -0.0873662, 0.60934544, -0.27122486, -0.062132355, -0.22403908
480, 99101985, 0.76939034, -0.1699121, -0.087777115, 0.60947806, -0.24003275, -0.071147636, -0.26427078
481, 99118652, 0.7691299, -0.17019297, -0.08823101, 0.60966295, -0.052537836, -0.06903343, -0.23580742
482, 99135319, 0.7688603, -0.17018427, -0.08852542, 0.6099627, 0.09617634, -0.075348005, -0.3622856
483, 99151986, 0.7685317, -0.17014839, -0.08876336, 0.6103522, -0.2749124, -0.04089326, -0.5423994
484, 99168653, 0.76810646, -0.17027764, -0.08928314, 0.61077535, -0.107051864, -0.27232125, -0.35986614
485, 99185320, 0.76769733, -0.17016056, -0.08998219, 0.6112197, 0.013082828, -0.17960674, -0.27164268
486, 99201987, 0.7674171, -0.16977386, -0.09059667, 0.6115883, 0.014143229, -0.17700315, -0.31190777
487, 99218654, 0.76724946, -0.16896518, -0.09117143, 0.6119368, 0.009005728, -0.1800084, -0.3247528
488, 99235321, 0.7670729, -0.16820449, -0.091938205, 0.61225295, -0.20366523, -0.11944488, -0.52367973
489, 99251988, 0.76676804, -0.16806829, -0.09316289, 0.6124871, -0.2002424, -0.1662533, -0.63100624
490, 99268655, 0.76651573, -0.16776283, -0.094531685, 0.61267686, 0.026350837, -0.22040501, -0.42420197
491, 99285322, 0.7664563, -0.16680244, -0.09578294, 0.6128194, 0.088843495, -0.22277291, -0.29214
492, 99301989, 0.7665166, -0.16540109, -0.09692243, 0.6129445, -0.048292544, -0.03119101, -0.5132799
493, 99318656, 0.76648694, -0.16429467, -0.09834368, 0.6130527, -0.2861159, -0.13829227, -0.738492
494, 99335323, 0.7663322, -0.1633829, -0.100115664, 0.6132029, -0.14790137, -0.17867637, -0.7942419
495, 99351990, 0.76625395, -0.16198172, -0.10208099, 0.61334836, 0.1967085, -0.22544053, -0.7767458
496, 99368657, 0.766305, -0.16004588, -0.1039004, 0.61348736, 0.10600527, 0.034009285, -0.89739037
497, 99385324, 0.7662978, -0.15825911, -0.1059682, 0.6136064, -0.08399092, -0.032477662, -1.1957684
498, 99401991, 0.7661234, -0.15672721, -0.108528286, 0.6137696, -0.18629107, -0.09218926, -1.1866722
499, 99418658, 0.7658858, -0.15525174, -0.11170164, 0.613872, 0.11676283, -0.33679268, -0.9410553
500, 99435325, 0.76580477, -0.15301715, -0.11499117, 0.61392677, 0.28201458, -0.14637081, -0.7589464
501, 99451992, 0.76591396, -0.15040413, -0.11826853, 0.6138134, 0.16406824, -0.08422247, -1.0035391
502, 99468659, 0.76588875, -0.1482919, -0.1221595, 0.61359674, -0.18778682, 0.08653829, -1.4965401
503, 99485326, 0.7656133, -0.14700899, -0.12680385, 0.61330676, -0.15568331, -0.08111721, -1.5432978
504, 99501993, 0.7652707, -0.14528264, -0.13189663, 0.61307186, 0.23314402, -0.3329126, -0.932498
505, 99518660, 0.76518226, -0.1423059, -0.13677402, 0.61281174, 0.3185624, -0.22813867, -0.4696703
506, 99535327, 0.765196, -0.13874717, -0.14165063, 0.6125026, 0.21633707, 0.009447892, -0.876462
507, 99551994, 0.7650671, -0.13562311, -0.14683902, 0.6121416, -0.10134094, 0.29035372, -1.4573917
508, 99568661, 0.7647815, -0.1329124, -0.1525189, 0.61170393, -0.09625591, -0.1511494, -1.2233562
509, 99585328, 0.7646032, -0.12939031, -0.15833175, 0.61120474, 0.3086733, -0.5291713, -0.46691322
510, 99601995, 0.76456666, -0.12472624, -0.16407041, 0.61070627, 0.5333901, -0.17544302, -0.48864937
511, 99618662, 0.76456255, -0.11965974, -0.16962354, 0.61020774, 0.28539073, 0.2963694, -1.1523857
512, 99635329, 0.7643995, -0.11463341, -0.17547278, 0.6097227, -0.12750989, 0.2816475, -1.2814808
513, 99651996, 0.76398987, -0.11031163, -0.18221547, 0.6090553, 0.14951654, -0.15187867, -0.95804024
514, 99668663, 0.76351404, -0.10571075, -0.1892731, 0.608315, 0.42273608, 0.067935586, -0.8382282
515, 99685330, 0.7629438, -0.101004414, -0.19665761, 0.6074872, 0.47069168, 0.28439167, -1.2431469
516, 99701997, 0.7621315, -0.09666848, -0.2044529, 0.60663813, 0.036517546, 0.7957211, -1.5661497
517, 99718664, 0.761303, -0.09247583, -0.21244362, 0.60558575, 0.28334704, -0.113294356, -0.71633244
518, 99735331, 0.76039165, -0.08654974, -0.22046784, 0.60473794, 0.73278725, -0.3824953, -0.010243416
519, 99751998, 0.7595468, -0.07949581, -0.22801082, 0.6039706, 0.61747867, 0.5005791, -0.72659874
520, 99768665, 0.7584848, -0.07259998, -0.2356042, 0.60325855, -0.20789152, 0.90845156, -1.2635002
521, 99785332, 0.75716, -0.06746224, -0.24405964, 0.60215676, -0.21036582, 0.8300953, -1.2244749
522, 99801999, 0.755559, -0.063096404, -0.25344467, 0.6007622, 0.19889468, 0.07066267, -0.3590889
523, 99818666, 0.75388265, -0.058108293, -0.26288417, 0.59931326, 0.5839048, 0.5007123, -0.41004276
524, 99835333, 0.7522381, -0.052765787, -0.27210355, 0.59775686, 0.16968668, 0.8444103, -0.50976753
525, 99852000, 0.75058275, -0.047513817, -0.28133932, 0.5960002, -0.14966226, 0.65435296, -0.18007469
526, 99868667, 0.7489286, -0.042561926, -0.2908741, 0.5938744, -0.061573572, -0.017788613, 0.2587862
527, 99885334, 0.7472033, -0.036483213, -0.30017146, 0.591822, 0.28417102, -0.24781968, 0.48826122
528, 99902001, 0.7454497, -0.029144356, -0.30904564, 0.58986956, 0.45098722, 0.4318299, 0.102721214
529, 99918668, 0.74370825, -0.02221423, -0.31757483, 0.58783555, -0.5018451, 1.0833286, -0.06701183
530, 99935335, 0.7420291, -0.017553246, -0.32674733, 0.585082, -0.6111526, 0.64109045, -0.28154755
531, 99952002, 0.74016005, -0.012959769, -0.33601484, 0.5823137, -0.24977572, -0.41044372, 0.26075554
532, 99968669, 0.7381031, -0.0066927844, -0.34481028, 0.5798838, 0.29598635, -0.038615406, 0.4348917
533, 99985336, 0.73606515, -5.0149206E-4, -0.35335582, 0.5773628, -0.30164504, 1.2306335, 0.14202309
534, 100002003, 0.7343296, 0.0041779256, -0.36174747, 0.5743531, -0.4909688, 1.3015294, 0.52800655
535, 100018670, 0.7328391, 0.008727818, -0.3701261, 0.57085675, -0.032033205, -0.26055494, 1.1964235
536, 100035337, 0.7310603, 0.014651756, -0.37843361, 0.56755996, -0.021353533, -0.4006072, 1.0254698
537, 100052004, 0.7292055, 0.02058711, -0.38661078, 0.56424093, -0.124568686, 0.270065, 0.61386585
538, 100068671, 0.7272446, 0.026653767, -0.39453688, 0.5610218, -0.12654789, 0.26082507, 0.74300957
539, 100085338, 0.72524697, 0.033396315, -0.40180245, 0.5580828, 0.20536035, -0.009522588, 1.0781164
540, 100102005, 0.7230078, 0.04212984, -0.40808928, 0.55583113, 0.5059551, -0.17192528, 1.0614052
541, 100118672, 0.72036374, 0.052567564, -0.41354427, 0.55434114, 0.50935453, 0.05072034, 0.7006254
542, 100135339, 0.717463, 0.06289129, -0.41872394, 0.55313826, -0.12999044, 0.7294214, -0.030467987
543, 100152006, 0.714283, 0.071570516, -0.424591, 0.5517245, -0.57319653, 0.92287993, -0.16408443
544, 100168673, 0.7107067, 0.08033763, -0.43016616, 0.55081654, 0.32049814, -0.06213353, 0.4889984
545, 100185340, 0.7060597, 0.09245917, -0.43466356, 0.5513607, 1.204193, -0.68902737, 1.0137863
546, 100202007, 0.70133215, 0.104880646, -0.43936175, 0.5514478, 0.46061817, 1.2778902, 0.42582512
547, 100218674, 0.6972282, 0.11347476, -0.44566002, 0.5498943, -0.59773755, 2.2132065, -0.740448
548, 100235341, 0.69339097, 0.11986484, -0.45183372, 0.54835004, 0.0950462, 0.6518767, -0.10591793
549, 100252008, 0.6886115, 0.1284081, -0.45838186, 0.54700255, 0.90775025, -0.5327923, 0.7862406
550, 100268675, 0.6835853, 0.13847977, -0.4643566, 0.5458089, 0.8742294, -0.1408368, 1.1463871
551, 100285342, 0.6787758, 0.14858589, -0.46989, 0.54441625, 0.09200687, 0.18158874, 0.7630291
552, 100302009, 0.67373157, 0.15840936, -0.47558242, 0.54296744, -0.29333907, 0.4285994, 0.49889946
553, 100318676, 0.6686565, 0.16777097, -0.48112082, 0.541548, 0.14846647, 0.09307415, 0.46111965
554, 100335343, 0.66303307, 0.17796266, -0.48649797, 0.540404, 0.24637632, -0.15947929, 0.4359951
555, 100352010, 0.6571071, 0.18853158, -0.49126115, 0.5397486, 0.028269472, -0.07005276, 0.8351593
556, 100368677, 0.6513855, 0.19805025, -0.49662542, 0.53836465, -0.3503559, 0.34937936, 0.6180105
557, 100385344, 0.6460148, 0.20577206, -0.50289136, 0.5361185, -0.78117937, 0.731961, 0.32385635
558, 100402011, 0.6410821, 0.21159439, -0.5095373, 0.5334916, -0.2774131, 0.4040467, 0.42084122
559, 100418678, 0.63608277, 0.21712537, -0.51629615, 0.5307482, 0.2910456, -0.2542451, 0.6850939
560, 100435345, 0.6309267, 0.22286133, -0.52328074, 0.52767557, 0.20028438, -0.30173466, 0.71491814
561, 100452012, 0.6259404, 0.22871177, -0.5289137, 0.5254902, -0.5150076, -0.47094035, 1.0896578
562, 100468679, 0.6206542, 0.23484342, -0.5342852, 0.5236186, -0.15159565, -0.80798805, 1.1727514
563, 100485346, 0.6149895, 0.24191625, -0.5388098, 0.5224447, -0.083090715, -0.91025686, 1.1154976
564, 100502013, 0.6089133, 0.24998875, -0.54224575, 0.52220684, 0.12551214, -0.953403, 0.95590115
565, 100518680, 0.6027286, 0.2585284, -0.5450429, 0.52231205, -0.13251345, -0.7972858, 0.9092722
566, 100535347, 0.5973882, 0.26563954, -0.54778975, 0.52200526, -1.1542641, -0.37669802, 0.5151043
567, 100552014, 0.59281194, 0.27008274, -0.5518464, 0.52066797, -1.2154243, -0.5205229, 0.16266727
568, 100568681, 0.58846724, 0.27356547, -0.55662745, 0.5186854, -0.2011221, -0.9112138, 0.47605705
569, 100585348, 0.58426857, 0.27700052, -0.56151676, 0.51633304, 0.21981582, -1.0239911, 0.66962624
570, 100602015, 0.58012444, 0.28070658, -0.56603533, 0.51406574, 0.08438374, -0.98898995, 0.82142735
571, 100618682, 0.57593906, 0.28480923, -0.56995416, 0.5121819, 0.071000904, -1.0541241, 0.82312775
572, 100635349, 0.57139975, 0.28965035, -0.5733309, 0.5107808, 0.14575012, -1.0939094, 0.9015446
573, 100652016, 0.56660336, 0.29504833, -0.576312, 0.5096781, -0.06000898, -0.7139152, 1.0416222
574, 100668683, 0.5620305, 0.2999607, -0.5790461, 0.5087741, -0.16333187, -0.2612484, 0.9408827
575, 100685350, 0.5577952, 0.30441922, -0.5810392, 0.50851464, 0.056379132, -0.35503256, 0.869627
576, 100702017, 0.55361336, 0.308879, -0.5826622, 0.5085378, 0.23612781, -0.51350904, 0.7164984
577, 100718684, 0.5495388, 0.31304967, -0.5843023, 0.50852543, -0.12527856, -0.38918802, 0.4240551
578, 100735351, 0.5457012, 0.31621292, -0.586594, 0.5080621, -0.5499673, -0.20357192, 0.2855711
579, 100752018, 0.5423539, 0.31788573, -0.58955646, 0.5071728, -0.5024037, -0.04269835, 0.26990318
580, 100768685, 0.5394122, 0.3186892, -0.5923101, 0.50659704, -0.29617167, -0.42765248, 0.33789158
581, 100785352, 0.5363925, 0.31971303, -0.5947027, 0.5063551, 0.16645256, -0.8196406, 0.3023386
582, 100802019, 0.53316957, 0.32149106, -0.596654, 0.5063378, 0.099819995, -0.86885875, 0.29170036
583, 100818686, 0.5298293, 0.32369497, -0.598139, 0.5066878, -0.03906202, -0.66844934, 0.27910233
584, 100835353, 0.5265117, 0.3261276, -0.5991964, 0.50733614, -0.3244246, -0.6354998, 0.25247383
585, 100852020, 0.5233349, 0.32840142, -0.60027117, 0.50788563, -0.52458113, -0.41985935, 0.19049549
586, 100868687, 0.5205777, 0.33004168, -0.60155565, 0.5081359, -0.56151325, -0.34207764, 0.24354744
587, 100885354, 0.518087, 0.3311995, -0.6030858, 0.50811446, -0.5072329, -0.33486667, 0.21627903
588, 100902021, 0.515714, 0.33215898, -0.6045292, 0.508187, -0.21179394, -0.4130099, 0.21565914
589, 100918688, 0.51346874, 0.33326787, -0.605851, 0.5081605, -0.28336748, -0.44250324, 0.2577982
590, 100935355, 0.5113993, 0.33445343, -0.60682636, 0.5083046, -0.36186457, -0.35610777, 0.24146271
591, 100952022, 0.5094738, 0.33565366, -0.60743827, 0.50871587, -0.3029175, -0.43511838, 0.1438427
592, 100968689, 0.5074087, 0.33717942, -0.60774034, 0.5094097, -0.1853783, -0.52554, -0.0017595291
593, 100985356, 0.50517374, 0.3392484, -0.60768056, 0.5103278, -0.09357012, -0.5587795, -0.062288284
594, 101002023, 0.5027232, 0.34212857, -0.60718715, 0.51141113, 0.019297438, -0.55903286, 0.015106201
595, 101018690, 0.50017923, 0.3456695, -0.60600364, 0.5129259, 0.020535477, -0.5230686, 0.11260033
596, 101035357, 0.4976672, 0.3498165, -0.6039087, 0.5150245, 0.04813128, -0.5368352, 0.1394453
597, 101052024, 0.49533334, 0.3541856, -0.60178745, 0.5167684, -0.13391846, -0.25737974, 0.01321888
598, 101068691, 0.49360314, 0.3579836, -0.6001386, 0.5177233, -0.6636819, 0.08235636, -0.059770584
599, 101085358, 0.49270096, 0.36056736, -0.59913045, 0.5179573, -0.56671506, 0.1499839, 0.026947975
600, 101102025, 0.4921641, 0.3624531, -0.59856683, 0.51780313, -0.29629773, -0.035141155, 0.10618782
601, 101118692, 0.4919078, 0.363931, -0.59823346, 0.5173952, -0.2799741, -0.099946275, 0.26759434
602, 101135359, 0.49190414, 0.36503047, -0.59798914, 0.5169066, -0.43931964, -0.030645639, 0.15656185
603, 101152026, 0.49190903, 0.36586463, -0.59745306, 0.5169319, -0.1923738, -0.13209929, 0.069761276
604, 101168693, 0.49147972, 0.36701375, -0.5967846, 0.51729745, 0.012117755, -0.19593582, -0.0026369095
605, 101185360, 0.49060315, 0.36850676, -0.5961545, 0.5177947, -0.17559446, 0.0058179307, 0.023042679
606, 101202027, 0.48995999, 0.36963135, -0.5954386, 0.51842546, -0.30619687, 0.2487165, -0.046218872
607, 101218694, 0.48948234, 0.37040073, -0.59487647, 0.5189724, -0.09559403, 0.09950953, -0.11226559
608, 101235361, 0.48900634, 0.37118664, -0.5944713, 0.5193238, -0.0037145617, 0.10573929, -0.015680313
609, 101252028, 0.48893937, 0.37158778, -0.5941682, 0.51944697, -0.15527579, 0.24352072, -0.042197227
610, 101268695, 0.4892131, 0.37147895, -0.5941882, 0.51924396, -0.15362448, 0.20901333, -0.17152405
611, 101285362, 0.48943576, 0.3713598, -0.59455174, 0.518703, 0.14713478, 0.09018915, -0.11481571
612, 101302029, 0.48963758, 0.37147874, -0.59477645, 0.51816946, 0.14285988, 0.026601953, 0.02507019
613, 101318696, 0.48984087, 0.37162778, -0.5948827, 0.51774836, 0.09695545, 0.021653377, 0.060420036
614, 101335363, 0.49005607, 0.37169817, -0.59509844, 0.517246, -0.07913342, 0.06890748, 0.009355545
615, 101352030, 0.4903013, 0.37151018, -0.5956473, 0.5165163, -0.10523459, 0.12866457, 0.008964539
616, 101368697, 0.49067256, 0.37110162, -0.59622264, 0.51579344, 0.13487576, 0.03192011, 0.11765194
617, 101385364, 0.4910363, 0.37081468, -0.5965124, 0.51531833, 0.2386269, -0.028579708, 0.06912899
618, 101402031, 0.49120772, 0.37070638, -0.596754, 0.51495284, 0.0564701, 0.014466876, -1.1730194E-4
619, 101418698, 0.49125758, 0.37052065, -0.5970373, 0.5147105, 0.053880703, 0.030726327, 0.0066537857
620, 101435365, 0.49118078, 0.37044665, -0.5973812, 0.51443815, 0.02452943, -0.01811092, -0.0026407242
621, 101452032, 0.49109936, 0.37035438, -0.5977609, 0.5141412, 0.09071944, -0.007957955, 0.042240143
622, 101468699, 0.4910166, 0.37028944, -0.5980039, 0.5139842, 0.007019648, 0.0115305865, 0.09690094
623, 101485366, 0.49101478, 0.37004894, -0.598333, 0.5137761, -0.016896015, 0.09975238, 0.053988457
624, 101502033, 0.4911948, 0.3695785, -0.598755, 0.51345086, -0.060817875, 0.11508716, 0.033143044
625, 101518700, 0.4914656, 0.3689717, -0.5991967, 0.5131128, -0.024516242, 0.008485334, -0.0059518814
626, 101535367, 0.49168706, 0.3684416, -0.59959155, 0.51282024, 0.025963042, -0.11168395, -0.056853294
627, 101552034, 0.49181336, 0.3681126, -0.5999501, 0.5125159, 0.042274345, -0.21127796, 0.018388748
628, 101568701, 0.49199942, 0.3678731, -0.60010487, 0.51232827, -0.08644162, -0.18637426, 0.08491135
629, 101585368, 0.4922787, 0.3675214, -0.600224, 0.5121729, -0.26154837, -0.13679786, 0.04771328
630, 101602035, 0.49263045, 0.3670663, -0.6002333, 0.51215005, -0.22392131, -0.16395447, 0.021243095
631, 101618702, 0.49315178, 0.36659274, -0.6000835, 0.5121632, -0.23899637, -0.28070557, 0.059407234
632, 101635369, 0.493901, 0.36595145, -0.60001814, 0.5119763, -0.47135618, -0.18507332, 0.13423729
633, 101652036, 0.49529016, 0.3645359, -0.60020196, 0.5114283, -0.6494931, -0.1357906, 0.10374451
634, 101668703, 0.4970259, 0.36262953, -0.600581, 0.51065445, -0.44402346, -0.36004394, 0.16793919
635, 101685370, 0.49906117, 0.36064297, -0.60081244, 0.509803, -0.17383474, -0.61157125, 0.28670692
636, 101702037, 0.50113666, 0.35903728, -0.60076, 0.50896156, -0.24863537, -0.673569, 0.36910248
637, 101718704, 0.5035548, 0.35728452, -0.6002601, 0.5083978, -0.62717736, -0.62009925, 0.4037466
638, 101735371, 0.50638926, 0.35499167, -0.59967417, 0.5078798, -0.8297317, -0.68505657, 0.2673893
639, 101752038, 0.50923264, 0.35264692, -0.5987325, 0.5077812, -0.52762717, -1.0223534, 0.4426422
640, 101768705, 0.51206565, 0.3509302, -0.5969268, 0.5082471, -0.09151716, -1.3952007, 0.6425133
641, 101785372, 0.51490474, 0.3499554, -0.5943834, 0.50903124, -0.5592761, -1.4988495, 0.65497684
642, 101802039, 0.5181986, 0.34861884, -0.5916107, 0.5098352, -1.1617484, -1.2938108, 0.6860256
643, 101818706, 0.522127, 0.34642932, -0.58855915, 0.5108506, -0.90259093, -1.5621343, 0.7910671
644, 101835373, 0.526232, 0.34418795, -0.5850946, 0.51213205, -0.41837043, -1.9854405, 0.8901901
645, 101852040, 0.5304156, 0.34234253, -0.58116144, 0.5135293, -0.39884055, -1.8358729, 0.91295624
646, 101868707, 0.5350946, 0.34002778, -0.5767139, 0.51522434, -0.71589994, -1.6013672, 0.995595
647, 101885374, 0.5405606, 0.33660686, -0.57207817, 0.51693034, -0.8838967, -1.5381906, 1.109992
648, 101902041, 0.5465125, 0.33209834, -0.5674979, 0.51863384, -0.821204, -1.578662, 1.0688725
649, 101918708, 0.55255735, 0.32696694, -0.56293726, 0.52045625, -0.39433274, -1.7519027, 1.2235298
650, 101935375, 0.5587233, 0.3217413, -0.55751467, 0.52296114, -0.13690884, -1.7714568, 1.6230297
651, 101952042, 0.5651869, 0.31626737, -0.5513243, 0.52590925, -0.37760392, -1.5420517, 1.7332239
652, 101968709, 0.57193625, 0.30985713, -0.5448288, 0.52918756, -0.6058893, -1.2498184, 1.5538979
653, 101985376, 0.5787091, 0.30262154, -0.5383747, 0.53260535, -0.33772874, -1.2054752, 1.6446095
654, 102002043, 0.5855469, 0.29482326, -0.5316448, 0.5362536, -0.27373654, -0.8948375, 1.6432981
655, 102018710, 0.592651, 0.28619578, -0.5242978, 0.54034114, -0.09958396, -0.945241, 1.6624794
656, 102035377, 0.59968096, 0.27733716, -0.516423, 0.5447698, -0.039865993, -1.1048442, 1.7590723
657, 102052044, 0.6063634, 0.26848498, -0.5084881, 0.54925317, 0.13611157, -0.8846788, 1.7619762
658, 102068711, 0.6130988, 0.25938657, -0.5000544, 0.55387205, 0.1110723, -0.3001286, 1.7615976
659, 102085378, 0.6201854, 0.24962372, -0.49091917, 0.5586202, 0.044385873, -0.17349802, 1.7530985
660, 102102045, 0.6274297, 0.23919702, -0.4815281, 0.5632471, -0.014261467, -0.32690403, 1.6814814
661, 102118712, 0.6343022, 0.22889033, -0.4722259, 0.56769085, 0.06509592, -0.36574933, 1.6498623
662, 102135379, 0.6409915, 0.21857673, -0.46281365, 0.5719771, 0.12254724, 0.13219786, 1.6423397
663, 102152046, 0.6476976, 0.20821004, -0.45264366, 0.57641166, 0.2793827, 0.2687142, 1.5008068
664, 102168713, 0.6541543, 0.19851805, -0.4415435, 0.5811301, 0.5001252, -0.11188567, 1.5940084
665, 102185380, 0.660056, 0.19000594, -0.4303611, 0.5856734, 0.27659684, 0.32711938, 1.3841047
666, 102202047, 0.66594225, 0.18115336, -0.4189984, 0.590038, -0.016503302, 1.077711, 1.1457024
667, 102218714, 0.6719941, 0.17164715, -0.4072876, 0.594204, 0.0011598087, 1.0236045, 0.95777225
668, 102235381, 0.6776996, 0.1618832, -0.39620173, 0.5979476, 0.36875167, 0.9264675, 0.8269739
669, 102252048, 0.68319106, 0.15182339, -0.3852226, 0.6015008, 0.3666104, 1.3092335, 0.68667126
670, 102268715, 0.68861294, 0.14137112, -0.37411743, 0.6048659, 0.50758654, 1.1909238, 0.47525883
671, 102285382, 0.6936546, 0.13163613, -0.36275515, 0.60821384, 0.7954321, 0.80418766, 0.586463
672, 102302049, 0.69821906, 0.12337439, -0.3510781, 0.6115661, 0.90078896, 0.88687056, 0.5930948
673, 102318716, 0.70250475, 0.11557453, -0.3393496, 0.6147939, 0.5943073, 1.4292063, 0.2258892
674, 102335383, 0.7067717, 0.107257046, -0.3275372, 0.61781013, 0.4175803, 1.6316823, -0.13086033
675, 102352050, 0.7109321, 0.098575704, -0.3159932, 0.6204892, 0.65842265, 1.1397839, -0.15364742
676, 102368717, 0.7145749, 0.0905333, -0.30497524, 0.62303823, 0.8155277, 0.9857006, -0.09498596
677, 102385384, 0.71792924, 0.08291667, -0.2939488, 0.62553734, 0.68465793, 1.2242832, -0.2122221
678, 102402051, 0.7210937, 0.074969605, -0.28325212, 0.62783104, 0.36205757, 1.366713, -0.66257286
679, 102418718, 0.7240688, 0.06586153, -0.27313882, 0.62990636, 0.25146514, 1.4093806, -0.9339552
680, 102435385, 0.72676533, 0.056051638, -0.26383927, 0.6317114, 0.6858276, 1.0517651, -0.86518383
681, 102452052, 0.72908777, 0.046975467, -0.2547407, 0.63350743, 0.77381134, 0.8537601, -0.7674875
682, 102468719, 0.7311375, 0.0381951, -0.24585535, 0.6352437, 0.5065203, 1.0740032, -0.93003273
683, 102485386, 0.7330693, 0.028618716, -0.2374748, 0.63670725, 0.09854474, 1.1733749, -1.258215
684, 102502053, 0.7347075, 0.018376464, -0.2298082, 0.63800913, 0.16642395, 0.7887892, -1.2483969
685, 102518720, 0.7359895, 0.009050945, -0.22227705, 0.63939846, 0.6547197, 0.42749166, -0.9165888
686, 102535387, 0.7371572, 0.0012734594, -0.21436223, 0.6408171, 0.8056662, 0.26596695, -0.7429762
687, 102552054, 0.7382235, -0.0051755374, -0.2062653, 0.6422258, 0.47381002, 0.41861328, -1.0368004
688, 102568721, 0.7391978, -0.0113609955, -0.19842744, 0.64349395, 0.08936484, 0.8114262, -1.425662
689, 102585388, 0.74011075, -0.017991861, -0.19101363, 0.64453566, 0.0065694926, 0.53268886, -1.4170437
690, 102602055, 0.74085635, -0.024470935, -0.18433908, 0.6454086, 0.2644546, -0.0274662, -1.0865002
691, 102618722, 0.74140763, -0.030447604, -0.17797866, 0.6463059, 0.33650568, 0.30945298, -1.0350313
692, 102635389, 0.74190474, -0.03655844, -0.1717887, 0.6470932, 0.21069683, 0.465368, -1.3475342
693, 102652056, 0.7423445, -0.04254969, -0.16575684, 0.6477955, 0.10404103, 0.13351025, -1.2038813
694, 102668723, 0.74273837, -0.047843453, -0.15986675, 0.64845467, 0.1906475, -0.18490154, -0.7904005
695, 102685390, 0.74309963, -0.052201513, -0.15411279, 0.6490974, 0.29355377, -0.15836571, -0.6278515
696, 102702057, 0.74343324, -0.056206454, -0.14833505, 0.6497265, 0.11328944, 0.115471095, -0.95301914
697, 102718724, 0.7437556, -0.060171876, -0.14256509, 0.6502939, 0.010814227, 0.10740854, -1.1065941
698, 102735391, 0.74404013, -0.06399608, -0.1370587, 0.650787, 0.034918424, -0.14278883, -0.82349205
699, 102752058, 0.74427146, -0.06740295, -0.1317602, 0.65127283, 0.13021128, -0.2102076, -0.5066519
700, 102768725, 0.7445493, -0.07002738, -0.12639873, 0.65174085, 0.27524385, -0.1702899, -0.42454052
701, 102785392, 0.7448186, -0.07229257, -0.12106674, 0.6521979, -0.03950893, 0.12322686, -0.8102236
702, 102802059, 0.7449986, -0.07541092, -0.11612791, 0.6525372, -0.35991737, 0.098629564, -0.96782875
703, 102818726, 0.74505067, -0.07880654, -0.11167409, 0.65285367, -0.06402808, -0.30099466, -0.5755129
704, 102835393, 0.74508846, -0.08158735, -0.10732091, 0.65319896, 0.19351718, -0.11258901, -0.3678856
705, 102852060, 0.74515766, -0.08418357, -0.10286405, 0.65350777, -0.013171675, 0.13607971, -0.66506386
706, 102868727, 0.745098, -0.087275766, -0.09879599, 0.6537976, -0.3671908, 0.040506862, -1.0184107
707, 102885394, 0.74487215, -0.09088152, -0.09519845, 0.65409744, -0.33313286, -0.14709404, -0.84018517
708, 102902061, 0.74455065, -0.09451839, -0.09199762, 0.6544059, -0.050044384, -0.13148054, -0.4642954
709, 102918728, 0.7442727, -0.09765893, -0.08868625, 0.65471804, 0.09017317, -0.07744187, -0.46754456
710, 102935395, 0.74404204, -0.10002086, -0.08514402, 0.6550938, -0.061269484, -0.095248595, -0.6144228
711, 102952062, 0.7438028, -0.102179505, -0.08168253, 0.65547305, -0.34300324, -0.080861285, -0.8093815
712, 102968729, 0.74352103, -0.10445438, -0.07844145, 0.65582985, -0.27968943, -0.18808928, -0.7947006
713, 102985396, 0.74324936, -0.10628827, -0.075309314, 0.6562103, -0.025146939, -0.15657283, -0.6600294
714, 103002063, 0.7430627, -0.107390806, -0.07200348, 0.656613, -0.01235764, -0.07063859, -0.76048374
715, 103018730, 0.7428843, -0.1082469, -0.068852216, 0.65701234, -0.20654956, -0.095846824, -1.0066519
716, 103035397, 0.74257565, -0.10953349, -0.06622991, 0.6574174, -0.5932393, -0.0021622644, -1.3158903
717, 103052064, 0.7421291, -0.11173766, -0.06433929, 0.6577383, -0.48923355, -0.3025995, -1.1883488
718, 103068731, 0.74169403, -0.11386435, -0.06298628, 0.65799516, -0.021512646, -0.41489637, -0.93380165
719, 103085398, 0.74137485, -0.11543445, -0.06168652, 0.65820456, 0.011012958, -0.17903773, -0.9750776
720, 103102065, 0.7411306, -0.116953775, -0.06056231, 0.6583158, -0.23836936, -0.20342769, -1.1182051
721, 103118732, 0.74081814, -0.118659474, -0.060009964, 0.65841264, -0.40354422, -0.36832476, -1.0266819
722, 103135399, 0.7404344, -0.12065714, -0.060174547, 0.6584662, -0.1421395, -0.34131008, -1.0499096
723, 103152066, 0.7401062, -0.12225852, -0.060461793, 0.6585135, -0.10104674, -0.20218904, -0.9262924
724, 103168733, 0.73993623, -0.12337289, -0.060571905, 0.6584867, 0.013489203, -0.37665397, -0.67899895
725, 103185400, 0.73987687, -0.123714305, -0.060592912, 0.6584874, -0.13666217, -0.3565405, -0.53183556
726, 103202067, 0.73981434, -0.12408556, -0.060866024, 0.65846246, -0.3362663, -0.2996039, -0.67811966
727, 103218734, 0.739682, -0.12479895, -0.061513416, 0.65841615, -0.3147564, -0.2214093, -0.7196808
728, 103235401, 0.7395756, -0.12553348, -0.062367797, 0.6583158, -0.19386807, -0.32459626, -0.5081606
729, 103252068, 0.7394623, -0.12624316, -0.06326793, 0.6582216, -0.21772249, -0.20616902, -0.3398714
730, 103268735, 0.73936623, -0.12711592, -0.064191, 0.65807205, -0.32290092, -0.1842524, -0.25558186
731, 103285402, 0.73925453, -0.12797374, -0.06525625, 0.6579263, -0.21984376, -0.23455456, -0.0637331
732, 103302069, 0.7392281, -0.12849434, -0.06607597, 0.6577728, -0.08845939, -0.19685714, -0.042118073
733, 103318736, 0.73930717, -0.12872478, -0.06663253, 0.6575827, -0.2456674, -0.16391736, -0.06759167
734, 103335403, 0.73935294, -0.12927493, -0.067308724, 0.6573544, -0.311932, -0.18352811, -0.077570915
735, 103352070, 0.73933184, -0.13003686, -0.06823008, 0.6571328, -0.14983784, -0.16003752, -0.04177475
736, 103368737, 0.7393408, -0.13063172, -0.06900512, 0.65692383, -0.08790633, -0.12819004, 0.09297466
737, 103385404, 0.7394286, -0.13091063, -0.06953927, 0.6567132, -0.035346787, -0.15423054, 0.15800571
738, 103402071, 0.7395423, -0.1308668, -0.0698599, 0.6565597, -0.017762743, -0.16539332, 0.0922966
739, 103418738, 0.7396504, -0.13066024, -0.07007954, 0.6564556, -0.020072693, -0.12045191, -0.034832
740, 103435405, 0.7397172, -0.13042971, -0.07024467, 0.65640867, -0.166839, -0.18790232, -0.027581215
741, 103452072, 0.7397548, -0.1304469, -0.0706039, 0.6563242, -0.17726254, -0.1937787, 0.015202522
742, 103468739, 0.7398089, -0.13055098, -0.07100525, 0.6561993, 0.054181553, -0.18967488, 0.10708237
743, 103485406, 0.73999965, -0.13031524, -0.07121118, 0.6560089, 0.08337939, -0.23959829, 0.03496647
744, 103502073, 0.7402681, -0.12984425, -0.071334876, 0.6557859, -0.061434966, -0.17384246, -0.002046585
745, 103518740, 0.740583, -0.1294982, -0.07142931, 0.65548843, -0.1254657, -0.18531258, -0.03491783
746, 103535407, 0.74090993, -0.12910971, -0.07155611, 0.6551817, -0.023768479, -0.24135533, 0.027853966
747, 103552074, 0.74125844, -0.12871666, -0.07158125, 0.65486205, -0.06345203, -0.19736496, 0.035033226
748, 103568741, 0.7415584, -0.12822205, -0.0716295, 0.65461415, 0.081392914, -0.2130435, 0.13460732
749, 103585408, 0.7417996, -0.12765269, -0.071581565, 0.6544572, -0.06902904, -0.10552728, 0.08760929
750, 103602075, 0.74186933, -0.12744467, -0.071651444, 0.65441114, -0.23565865, -0.09920578, -0.055711746
751, 103618742, 0.74181664, -0.12764451, -0.071853906, 0.6544097, -0.1885125, -0.1875761, -0.110767365
752, 103635409, 0.741746, -0.1279177, -0.07216116, 0.6544025, -0.01534897, -0.27685794, 0.10700035
753, 103652076, 0.7417376, -0.12803137, -0.07241115, 0.6543623, 0.060233388, -0.22812057, 0.14828968
754, 103668743, 0.7417907, -0.12784432, -0.07247352, 0.6543318, -0.04173484, -0.14004204, 0.06704807
755, 103685410, 0.74183226, -0.12768903, -0.072442174, 0.6543183, -0.18965013, -0.19588546, -0.048936844
756, 103702077, 0.74182045, -0.12772821, -0.072533466, 0.65431404, -0.14982845, -0.25814053, -0.16625977
757, 103718744, 0.74184203, -0.12770635, -0.07266637, 0.654279, 0.027827866, -0.2875397, -0.16220188
758, 103735411, 0.7418753, -0.12747957, -0.07279717, 0.65427095, -0.008243884, -0.19996916, -0.32473755
759, 103752078, 0.741858, -0.12727745, -0.07300475, 0.6543068, -0.031967074, -0.18888566, -0.5748844
760, 103768745, 0.74182516, -0.12690096, -0.07326534, 0.65438807, -0.029291457, -0.26056704, -0.61917686
761, 103785412, 0.7417314, -0.1264551, -0.073795155, 0.6545211, -0.041406166, -0.23505382, -0.78654003
762, 103802079, 0.7415944, -0.12595211, -0.074592896, 0.654683, -0.06937306, -0.21960422, -0.97603416
763, 103818746, 0.74137926, -0.12533443, -0.075711556, 0.6549168, -0.04477769, -0.2478054, -1.080123
764, 103835413, 0.7411387, -0.1245168, -0.077034086, 0.65519077, -0.020522568, -0.34946597, -1.1975975
765, 103852080, 0.7408615, -0.12342977, -0.07872813, 0.6555084, 0.08215302, -0.37807986, -1.4139805
766, 103868747, 0.7405926, -0.12211913, -0.080792636, 0.6558066, 0.08397985, -0.28381607, -1.6921358
767, 103885414, 0.7403698, -0.12046626, -0.08326553, 0.6560544, 0.17214829, -0.32792017, -1.7503004
768, 103902081, 0.7402376, -0.11835384, -0.085960336, 0.6562404, 0.12622078, -0.2794642, -1.7976913
769, 103918748, 0.7401835, -0.115896374, -0.089149706, 0.6563145, 0.19271807, -0.43322906, -1.7030306
770, 103935415, 0.740126, -0.11293894, -0.09299746, 0.656361, 0.18323022, -0.23074517, -1.9218516
771, 103952082, 0.74015605, -0.109466046, -0.09719217, 0.65630794, 0.12965126, -0.2559009, -1.7472916
772, 103968749, 0.7403185, -0.105019465, -0.10170308, 0.6561677, 0.3784963, -0.46197763, -1.4369106
773, 103985416, 0.7405437, -0.099637724, -0.10630126, 0.6560241, 0.22503021, -0.20792857, -1.5662575
774, 104002083, 0.7407652, -0.09404875, -0.111092165, 0.65580523, 0.15193333, -0.25201795, -1.7372704
775, 104018750, 0.7409259, -0.08811944, -0.1164064, 0.65552527, 0.28608233, -0.19939221, -1.858221
776, 104035417, 0.74094, -0.08234, -0.122328974, 0.65518236, -0.051649876, 0.047860663, -1.832931
777, 104052084, 0.740751, -0.07752006, -0.12924877, 0.6546552, -0.03995579, 0.08510999, -1.7120504
778, 104068751, 0.74036455, -0.072726324, -0.13686125, 0.6540951, 0.238663, 0.042235456, -1.4337711
779, 104085418, 0.73999524, -0.06681755, -0.1443367, 0.6535362, 0.63304526, -0.10165274, -1.0240173
780, 104102085, 0.7396135, -0.059466373, -0.15168001, 0.6530154, 0.46214423, -0.0025765176, -1.2006168
781, 104118752, 0.739032, -0.052300997, -0.15941279, 0.6524447, -0.24415997, 0.4660016, -1.4423132
782, 104135419, 0.7383425, -0.045670237, -0.16767274, 0.6516522, -0.043616988, 0.004239454, -0.8897667
783, 104152086, 0.73759854, -0.037811056, -0.17601775, 0.650797, 0.68923247, -0.31078714, -0.15400219
784, 104168753, 0.73687756, -0.028959796, -0.18386073, 0.6498985, 0.5999771, 0.37173334, -0.4702835
785, 104185420, 0.73604494, -0.02057887, -0.19189018, 0.6488396, 0.027486281, 0.6866783, -1.1784811
786, 104202087, 0.7349859, -0.0131335175, -0.20056069, 0.64761007, -0.32852784, 0.59738797, -0.6483412
787, 104218754, 0.73381335, -0.006375738, -0.20970549, 0.6461433, 0.19635189, -0.037297517, -0.17053604
788, 104235421, 0.73221153, 0.0010285752, -0.21885157, 0.644957, 0.33323961, 0.42696646, 0.0076265335
789, 104252088, 0.73043513, 0.008644323, -0.22756456, 0.6438977, 0.28222868, 1.042713, -0.2995577
790, 104268755, 0.72843045, 0.015638893, -0.23642428, 0.64284366, -0.33260012, 1.1260501, -0.4486742
791, 104285422, 0.7263267, 0.021243758, -0.24563575, 0.64160836, -0.39722532, 0.7184606, -0.30583477
792, 104302089, 0.7240061, 0.026361894, -0.255351, 0.64024687, 0.01979319, -0.03360175, -0.0040369034
793, 104318756, 0.7214684, 0.03241565, -0.26497617, 0.63892126, 0.49697983, 0.45401978, 0.06936836
794, 104335423, 0.71892893, 0.039138015, -0.27409306, 0.63756, 0.021534355, 1.1489044, 0.32037735
795, 104352090, 0.716549, 0.044735406, -0.2833033, 0.63584244, -0.35305882, 0.8620752, 0.19916439
796, 104368757, 0.7140955, 0.05003748, -0.29300663, 0.6338068, -0.074094094, 0.13999103, 0.27266026
797, 104385424, 0.7115872, 0.05607981, -0.30240688, 0.63170326, 0.46177554, -0.19772278, 0.6073046
798, 104402091, 0.7088231, 0.06396244, -0.31106395, 0.6298554, 0.3674403, 0.20482065, 0.6433525
799, 104418758, 0.7059615, 0.07241355, -0.31880587, 0.62828165, -0.20785365, 1.0748509, 0.67095375
800, 104435425, 0.7032848, 0.07964007, -0.32658836, 0.6264088, -0.50500274, 0.6708621, 0.40535736
801, 104452092, 0.7004869, 0.08607429, -0.3352183, 0.62412983, -0.16746888, 0.45329115, 0.22731972
802, 104468759, 0.69770837, 0.0920529, -0.34413728, 0.6215294, -0.008637658, 0.5754381, 0.31900024
803, 104485426, 0.69495666, 0.09798173, -0.3529664, 0.6187482, -0.027630448, 0.19705282, 0.5023041
804, 104502093, 0.6919281, 0.10508322, -0.36105168, 0.6163074, -0.010386647, 0.033799183, 1.0285549
805, 104518760, 0.68887126, 0.112413995, -0.36862242, 0.6139521, 0.20685565, 0.32450438, 1.0684404
806, 104535427, 0.68563527, 0.12049543, -0.37574401, 0.6117204, 0.21369135, 0.6666541, 0.6782608
807, 104552094, 0.6823448, 0.12845634, -0.38278475, 0.60941, 0.04196657, 0.9459238, 0.30549622
808, 104568761, 0.67887294, 0.13560285, -0.39034888, 0.6069359, -0.41741872, 1.0946084, 0.19116688
809, 104585428, 0.67524177, 0.14160964, -0.3982516, 0.6044758, -0.5144115, 0.9616502, 0.60763454
810, 104602095, 0.6715272, 0.14706735, -0.40617704, 0.60203224, -0.0976765, 0.6231834, 0.8449116
811, 104618762, 0.66746145, 0.15317713, -0.4136691, 0.5999253, 0.11668091, 0.2966693, 0.76226044
812, 104635429, 0.66299653, 0.15989932, -0.42104214, 0.5979895, 0.15774763, 0.5242469, 0.510643
813, 104652096, 0.65849805, 0.16635397, -0.4283611, 0.59599817, -0.08930416, 0.79632807, 0.239542
814, 104668763, 0.65414065, 0.17172787, -0.43637818, 0.59345084, -0.07812136, 0.7738439, 0.053328514
815, 104685430, 0.6498576, 0.1766292, -0.44484118, 0.59042656, -0.013893342, 0.4254729, 0.3655424
816, 104702097, 0.64545834, 0.1817385, -0.45359737, 0.5870301, 0.3002025, 0.3300704, 0.5461025
817, 104718764, 0.6411593, 0.18682468, -0.46215478, 0.58345914, 0.17550506, 0.3871232, 0.5861683
818, 104735431, 0.63660413, 0.19254346, -0.47056445, 0.57985455, 0.20671484, 0.3684962, 0.48492527
819, 104752098, 0.6318167, 0.19890615, -0.4785816, 0.5763714, 0.36620855, 0.37928584, 0.5313368
820, 104768765, 0.62674135, 0.20623215, -0.4857981, 0.5732923, 0.2196824, 0.123763144, 0.7009134
821, 104785432, 0.6211704, 0.21449536, -0.4927265, 0.5704032, 0.122188725, 0.15628774, 0.7185192
822, 104802099, 0.6151729, 0.22330432, -0.49942422, 0.567691, 2.6151017E-4, 0.22100726, 0.6856203
823, 104818766, 0.6087137, 0.23253319, -0.50587904, 0.56522787, -0.06382591, 0.1965345, 0.76439476
824, 104835433, 0.60171205, 0.24208255, -0.5122959, 0.5629314, -0.022275971, 0.14068487, 0.9656191
825, 104852100, 0.5939798, 0.25246233, -0.51809853, 0.5612708, 0.22837101, -0.04830685, 1.3708019
826, 104868767, 0.585814, 0.26368642, -0.52292126, 0.5602187, 0.26950252, -0.041266415, 1.3835316
827, 104885434, 0.5782531, 0.27406308, -0.52713436, 0.5591441, -0.66238266, 0.192177, 1.0450573
828, 104902101, 0.5718213, 0.28131145, -0.5331428, 0.556456, -1.7018169, 0.43259525, 0.39646053
829, 104918768, 0.5658346, 0.2860493, -0.5399556, 0.5535838, -0.9911615, -0.13063617, 0.81231785
830, 104935435, 0.56022537, 0.29039234, -0.54623455, 0.55086106, 0.23921877, -1.0502999, 1.1757498
831, 104952102, 0.5543013, 0.2961287, -0.5518172, 0.5482295, 0.21203423, -1.6710694, 1.3171082
832, 104968769, 0.5487587, 0.30221298, -0.5566145, 0.5456294, -0.26391158, -1.288053, 1.2310038
833, 104985436, 0.5444378, 0.30678555, -0.56183183, 0.5420474, -1.0811613, -1.0058942, 0.7330408
834, 105002103, 0.5408522, 0.30937797, -0.5680696, 0.537644, -0.94670343, -0.91810584, 0.36858177
835, 105018770, 0.53816575, 0.3106363, -0.57475674, 0.5324824, -0.23258936, -1.39883, 0.57718277
836, 105035437, 0.5358162, 0.31176966, -0.581486, 0.5268537, -0.030141393, -1.6360668, 0.6152792
837, 105052104, 0.5335992, 0.31307888, -0.58759, 0.5215281, 0.091124445, -1.7555351, 0.76470566
838, 105068771, 0.5312049, 0.3152237, -0.5926185, 0.5169708, 0.4484327, -2.0042148, 0.91496754
839, 105085438, 0.5279695, 0.31911567, -0.59631217, 0.51363915, 0.61330056, -2.2794657, 1.0010939
840, 105102105, 0.5235349, 0.32508388, -0.59846, 0.51193494, 0.54600954, -2.1671705, 1.0337238
841, 105118772, 0.5183261, 0.33232003, -0.5990336, 0.5119183, 0.31600955, -1.8371903, 0.8920746
842, 105135439, 0.5127367, 0.33974722, -0.5987385, 0.51301605, -0.2265344, -1.3669457, 0.65492344
843, 105152106, 0.50693697, 0.34629253, -0.59840184, 0.51479304, -0.54079026, -0.8962848, 0.43765068
844, 105168773, 0.50111383, 0.3518734, -0.59802246, 0.5171454, -0.12798621, -0.7848043, 0.67547894
845, 105185440, 0.49517208, 0.3573078, -0.5972032, 0.52008104, 0.06819358, -0.7662586, 0.53624916
846, 105202107, 0.48900688, 0.36257944, -0.59612346, 0.5234933, 0.14656192, -0.65440595, 0.56710625
847, 105218774, 0.48317754, 0.36752382, -0.5946841, 0.52708304, -0.019238431, -0.6268011, 0.5639715
848, 105235441, 0.4777835, 0.37214565, -0.59356564, 0.5300099, -0.31718343, -0.42997622, 0.3615198
849, 105252108, 0.47298735, 0.37651655, -0.59246355, 0.5324521, -0.59679526, -0.42824265, 0.26218605
850, 105268775, 0.46865213, 0.3805142, -0.5914584, 0.53455704, -0.5343473, -0.376758, 0.38044357
851, 105285442, 0.46534067, 0.3835386, -0.5909341, 0.5358669, -0.5505817, -0.22781067, 0.6326647
852, 105302109, 0.46280426, 0.38575986, -0.59046763, 0.5369818, -0.8023056, -0.104182296, 0.36603642
853, 105318776, 0.46060675, 0.38755003, -0.5897248, 0.5383971, -0.49014202, -0.16351034, 0.10965347
854, 105335443, 0.4584566, 0.38943925, -0.5893639, 0.53926337, -0.32677907, -0.13245893, -0.15064049
855, 105352110, 0.45635712, 0.39146495, -0.5892571, 0.53969395, -0.40933225, 0.017485308, -0.12818527
856, 105368777, 0.45448333, 0.39334765, -0.58898854, 0.54019934, -0.3282983, 0.13968621, -0.11400318
857, 105385444, 0.45310494, 0.39479384, -0.5883102, 0.54104066, -0.12962812, 0.0064762877, -0.10668945
858, 105402111, 0.45193306, 0.39610064, -0.5877803, 0.54164124, -0.13028547, -0.011755776, -0.2769947
859, 105418778, 0.45124087, 0.39685923, -0.58761764, 0.5418397, -0.24343556, 0.030561484, -0.18436337
860, 105435445, 0.45113042, 0.39685556, -0.5880287, 0.541488, -0.5627672, 0.14765713, -0.36416817
861, 105452112, 0.4515021, 0.3960655, -0.5890775, 0.5406161, -0.37241104, -0.049062546, -0.25954247
862, 105468779, 0.45210975, 0.39498535, -0.59042895, 0.53942287, -0.04178217, -0.23042923, -0.04121685
863, 105485446, 0.452688, 0.39402717, -0.5917826, 0.538154, 0.14223537, -0.16477062, 0.15648842
864, 105502113, 0.45311448, 0.39342338, -0.59255874, 0.53738236, 0.08312737, -0.18259522, 0.27353382
865, 105518780, 0.4533234, 0.39314312, -0.59281504, 0.5371284, -0.09479296, -0.18284991, 0.1992855
866, 105535447, 0.45336285, 0.39303693, -0.5928541, 0.5371295, -0.1756452, -0.2489256, 0.05032158
867, 105552114, 0.45305055, 0.39320338, -0.5929561, 0.5371585, -0.16913247, -0.17539074, 0.028292656
868, 105568781, 0.45267063, 0.3935988, -0.5929161, 0.5372334, -0.100291826, -0.071373835, 0.079481125
869, 105585448, 0.4524478, 0.3939662, -0.5928205, 0.5372574, -0.09710275, -0.097342014, 0.054732323
870, 105602115, 0.45241585, 0.39422065, -0.5928168, 0.53710157, -0.107168205, -0.02934345, 0.03023529
871, 105618782, 0.45243126, 0.39430892, -0.5928361, 0.53700256, -0.11272675, -0.019850856, 0.09224796
872, 105635449, 0.45251805, 0.39417475, -0.59279287, 0.5370758, -0.15527713, 0.012591155, 0.08977795
873, 105652116, 0.4525246, 0.39401883, -0.59273314, 0.5372505, -0.14914729, -0.059911977, 0.009694099
874, 105668783, 0.45247683, 0.39397684, -0.5927273, 0.5373279, 0.011266617, -0.10383719, 0.06334114
875, 105685450, 0.4524014, 0.39417994, -0.59256965, 0.5374166, 0.11963575, -0.121602334, 0.14791775
876, 105702117, 0.4523964, 0.39453533, -0.5921997, 0.5375677, -0.034723185, -0.031048073, 0.12817001
877, 105718784, 0.4526237, 0.39470753, -0.5918555, 0.53762895, -0.05369787, 0.055621535, -0.06465244
878, 105735451, 0.45288333, 0.39473528, -0.5918346, 0.5374128, -0.055594377, 0.041768648, -0.120108604
879, 105752118, 0.4532938, 0.39449123, -0.5919291, 0.53714204, 0.008258133, 0.05428381, -0.0700016
880, 105768785, 0.45370477, 0.39429075, -0.5918527, 0.5370264, 0.10360205, -0.04429658, -0.19913673
881, 105785452, 0.45395905, 0.3942661, -0.5918663, 0.5368145, 0.103285335, -0.08622292, -0.08392429
882, 105802119, 0.45413765, 0.39420483, -0.5919495, 0.53661674, 0.046335578, -0.007407778, 0.013282776
883, 105818786, 0.45431304, 0.39407477, -0.5920838, 0.5364153, 0.166993, 0.021586994, 0.04192829
884, 105835453, 0.45437783, 0.39405814, -0.59217364, 0.53627354, 0.11222675, 0.0689571, 0.017865181
885, 105852120, 0.45459008, 0.39381897, -0.59219605, 0.5362447, 0.19182105, 0.09930625, 0.022900581
886, 105868787, 0.4547809, 0.39371154, -0.59211975, 0.536246, 0.19525734, -0.073967144, -0.0066137314
887, 105885454, 0.45490715, 0.39374456, -0.5920581, 0.5361828, 0.13955411, -0.080620565, 0.09042168
888, 105902121, 0.45521092, 0.3936599, -0.59185964, 0.53620636, 0.054266933, -0.038837723, 0.055308342
889, 105918788, 0.45543987, 0.39358446, -0.5918048, 0.5361277, -0.029544165, -0.08228641, -0.024909973
890, 105935455, 0.4557047, 0.39336538, -0.5919528, 0.5359, -0.16245435, 0.031863, 0.07732582
891, 105952122, 0.4563228, 0.3927059, -0.5921373, 0.5356539, -0.36566386, -0.100916885, 0.17449284
892, 105968789, 0.45727265, 0.39158022, -0.592427, 0.5353476, -0.36105457, -0.09364299, 0.15257072
893, 105985456, 0.45850253, 0.3902031, -0.59266585, 0.53503686, -0.31448653, -0.29506147, 0.070269585
894, 106002123, 0.4599278, 0.38880062, -0.59281963, 0.53466403, -0.31192887, -0.41429457, 0.20114326
895, 106018790, 0.46161833, 0.38728142, -0.5928216, 0.5343071, -0.44190568, -0.6212184, 0.3479805
896, 106035457, 0.46348837, 0.38573775, -0.5927298, 0.53390676, -0.44989583, -0.6794682, 0.42679596
897, 106052124, 0.46550864, 0.38407278, -0.59255147, 0.5335473, -0.48366505, -0.74586785, 0.39951992
898, 106068791, 0.4675454, 0.38252097, -0.59216654, 0.5333084, -0.33087024, -0.7371778, 0.47080326
899, 106085458, 0.46968722, 0.38107458, -0.5914441, 0.53326374, -0.34125355, -0.7081081, 0.4902506
900, 106102125, 0.4716901, 0.37989017, -0.59044605, 0.53344685, -0.37675098, -0.48455954, 0.43583584
901, 106118792, 0.4739809, 0.37861416, -0.58894444, 0.53398335, -0.24267338, -0.49065766, 0.4175434
902, 106135459, 0.47631484, 0.3774582, -0.58698773, 0.53487855, -0.26374865, -0.5967046, 0.3350773
903, 106152126, 0.4788288, 0.376328, -0.58451915, 0.53613204, -0.3558608, -0.65543216, 0.28009224
904, 106168793, 0.4815049, 0.37502632, -0.5819463, 0.53744495, -0.3650105, -0.7027802, 0.10942936
905, 106185460, 0.48419443, 0.3738219, -0.57892305, 0.53912985, -0.5088087, -0.9256324, 0.14757442
906, 106202127, 0.4871022, 0.37233704, -0.5760414, 0.5406226, -0.28503424, -0.82930505, 0.16310024
907, 106218794, 0.49008444, 0.37095168, -0.5730714, 0.5420344, -0.14592044, -0.7879686, 0.41262436
908, 106235461, 0.49360934, 0.36927918, -0.56973517, 0.54349285, -0.39756697, -0.66133976, 0.6313238
909, 106252128, 0.4980016, 0.3667029, -0.5663767, 0.5447393, -0.89068234, -0.50027317, 0.6881113
910, 106268795, 0.50330955, 0.3626834, -0.5632731, 0.54576904, -0.876051, -0.5346604, 0.5955658
911, 106285462, 0.50879234, 0.35822105, -0.5603822, 0.54660773, -0.36402124, -0.9697628, 0.6970768
912, 106302129, 0.51423156, 0.35399526, -0.5571914, 0.5475318, -0.2821851, -1.0929595, 0.88441944
913, 106318796, 0.52007854, 0.3493621, -0.5533306, 0.54889864, -0.48069566, -1.1942462, 0.922946
914, 106335463, 0.5260169, 0.34442163, -0.5492483, 0.55046004, -0.7930897, -1.3245621, 0.90743065
915, 106352130, 0.532096, 0.3389414, -0.54521453, 0.552027, -0.66366965, -1.2145379, 0.8874016
916, 106368797, 0.5381264, 0.333618, -0.5407721, 0.55379117, -0.18703698, -1.3234271, 1.1227865
917, 106385464, 0.54425097, 0.3286092, -0.5355561, 0.5558657, -0.09092641, -1.1669744, 1.3055811
918, 106402131, 0.5508068, 0.32334578, -0.5297445, 0.55805945, -0.31030616, -0.8659529, 1.2996321
919, 106418798, 0.55779743, 0.3173251, -0.5238682, 0.5601154, -0.7178961, -0.5294117, 1.0880985
920, 106435465, 0.56517243, 0.31003404, -0.51844215, 0.56185114, -0.6348425, -0.31908196, 0.97018814
921, 106452132, 0.5727359, 0.30206048, -0.5128909, 0.5636276, -0.25641584, -0.51886535, 1.1150322
922, 106468799, 0.5802559, 0.29405496, -0.50692797, 0.5655605, 0.005486349, -0.6847467, 1.2950764
923, 106485466, 0.58755505, 0.28618154, -0.5007649, 0.5675508, -0.18258974, -0.3944961, 1.141923
924, 106502133, 0.5947633, 0.2778998, -0.49458024, 0.56957793, -0.19345114, -0.02071764, 1.1216183
925, 106518800, 0.60212827, 0.26912296, -0.48782235, 0.5718775, 0.06338, -0.046604574, 1.1518669
926, 106535467, 0.6092623, 0.26055306, -0.4805623, 0.5744314, 0.18393798, -0.26051128, 1.0985327
927, 106552134, 0.6159406, 0.2525091, -0.4731315, 0.5770643, 0.22761665, 0.021136949, 1.0243187
928, 106568801, 0.62271136, 0.24413459, -0.46541688, 0.5796691, 0.13487487, 0.33164763, 0.90601444
929, 106585468, 0.6296417, 0.23533694, -0.45756477, 0.58206755, 0.07128029, 0.37160537, 0.8553343
930, 106602135, 0.63654566, 0.22620082, -0.4497092, 0.58429855, 0.10399365, 0.28840837, 0.85196686
931, 106618802, 0.64313483, 0.21716994, -0.44179887, 0.58653957, 0.15754735, 0.23882416, 0.8269768
932, 106635469, 0.6493348, 0.20822647, -0.43401647, 0.58875823, 0.3008795, 0.2829901, 0.851923
933, 106652136, 0.65542054, 0.19916105, -0.426038, 0.5909741, 0.14840142, 0.6256187, 0.7674084
934, 106668803, 0.66164994, 0.18950589, -0.41773766, 0.59312916, 0.1522673, 0.53126234, 0.5514641
935, 106685470, 0.66761696, 0.18005718, -0.4093954, 0.5951997, 0.4925649, 0.09268434, 0.5401468
936, 106702137, 0.67291397, 0.17187373, -0.40091816, 0.59742016, 0.7947258, -0.078265294, 0.7568226
937, 106718804, 0.67782015, 0.16465044, -0.39197034, 0.59984124, 0.41729534, 0.5081691, 0.7153778
938, 106735471, 0.6828034, 0.15670288, -0.38290644, 0.6021684, 0.06353825, 0.93903047, 0.35326862
939, 106752138, 0.6877834, 0.14809063, -0.37381738, 0.60438716, 0.4255584, 0.5442445, 0.18619442
940, 106768805, 0.6921855, 0.14053671, -0.36474052, 0.60670674, 0.80590546, 0.108434066, 0.24671078
941, 106785472, 0.6961619, 0.1340299, -0.35547787, 0.6091224, 0.6435944, 0.6655331, 0.23341084
942, 106802139, 0.70031, 0.12667951, -0.34634835, 0.6111964, 0.21090257, 1.1520946, -0.10352039
943, 106818806, 0.70449895, 0.11788942, -0.33789086, 0.61287284, 0.17927438, 0.9633728, -0.3669777
944, 106835473, 0.7084115, 0.10881477, -0.32975978, 0.61446804, 0.5005765, 0.54113156, -0.13382626
945, 106852140, 0.7119267, 0.10068666, -0.32156837, 0.61613035, 0.66388756, 0.236653, 0.14535522
946, 106868807, 0.7151154, 0.09336981, -0.31326932, 0.617863, 0.590407, 0.5229574, -0.10337353
947, 106885474, 0.71819067, 0.08609729, -0.30490834, 0.6195324, 0.33009577, 0.80638874, -0.39099693
948, 106902141, 0.72119284, 0.07848796, -0.2965316, 0.62111956, 0.3313651, 0.6009891, -0.33762074
949, 106918808, 0.72388476, 0.07195693, -0.28804913, 0.62276876, 0.6742586, -0.0040887785, 0.068841934
950, 106935475, 0.7261401, 0.06736167, -0.27921847, 0.624676, 0.79519516, 0.058078445, 0.15767574
951, 106952142, 0.7282751, 0.063288786, -0.27013206, 0.62660897, 0.32357457, 0.79298365, -0.30431557
952, 106968809, 0.73053414, 0.05794597, -0.26134244, 0.6282215, -0.16993064, 1.0269673, -0.723793
953, 106985476, 0.7326908, 0.051428333, -0.25334436, 0.6295523, 0.20550753, 0.332297, -0.6237793
954, 107002143, 0.7344426, 0.046027344, -0.24573618, 0.6309433, 0.784104, 0.1210801, -0.36803436
955, 107018810, 0.7360455, 0.041212425, -0.23789404, 0.63241214, 0.49274525, 0.6818547, -0.47664738
956, 107035477, 0.7376786, 0.035589915, -0.23029701, 0.63366157, 0.0069040917, 0.85038054, -0.94204426
957, 107052144, 0.73920065, 0.028922176, -0.22330423, 0.6347293, -0.03861935, 0.41805273, -0.89513683
958, 107068811, 0.7404498, 0.022969095, -0.21651872, 0.63586676, 0.53282213, -0.15610223, -0.3415308
959, 107085478, 0.7414435, 0.018651213, -0.20940663, 0.63723034, 0.6581987, 0.025178595, -0.20970535
960, 107102145, 0.74237895, 0.014827061, -0.20211539, 0.63859475, 0.15719588, 0.45781934, -0.8253317
961, 107118812, 0.7432407, 0.010212531, -0.19519566, 0.6398342, -0.15435983, 0.58788663, -1.1453371
962, 107135479, 0.7440179, 0.004935434, -0.18877861, 0.6409179, 0.1743211, 0.2794677, -0.93201065
963, 107152146, 0.74461716, 2.3124466E-4, -0.18256512, 0.64203995, 0.38341737, 0.016931236, -0.70571995
964, 107168813, 0.745091, -0.0037734185, -0.1764127, 0.64319825, 0.25580186, 0.24218883, -0.78664684
965, 107185480, 0.74559134, -0.008093153, -0.17045018, 0.64418554, -0.25964746, 0.48216942, -1.0052662
966, 107202147, 0.7460455, -0.013703426, -0.16528924, 0.64490926, -0.44480935, 0.25013092, -1.0867376
967, 107218814, 0.74634266, -0.019581927, -0.16086619, 0.6455318, -0.0541069, -0.16039096, -0.82447815
968, 107235481, 0.74656767, -0.024419373, -0.15648076, 0.6461845, 0.22779132, -0.17298514, -0.6020441
969, 107252148, 0.7468826, -0.028586717, -0.15181024, 0.64676356, 0.05821026, 0.10191368, -0.69410515
970, 107268815, 0.7473219, -0.032802463, -0.14718646, 0.64712477, -0.26764426, 0.028598804, -0.8743353
971, 107285482, 0.74781215, -0.037201073, -0.14288095, 0.6472852, -0.19999872, -0.225836, -0.70675087
972, 107302149, 0.7483308, -0.04073748, -0.13888061, 0.64734364, 0.10267358, -0.30333012, -0.49303913
973, 107318816, 0.74889666, -0.043816376, -0.13490002, 0.6473298, -0.17206429, 0.06841775, -0.6739559
974, 107335483, 0.7494634, -0.04742107, -0.13113305, 0.64719397, -0.4028556, 0.13986273, -0.92892075
975, 107352150, 0.750003, -0.051383127, -0.12787151, 0.6469191, -0.19779852, -0.26152718, -0.6936741
976, 107368817, 0.7505777, -0.054686382, -0.12479047, 0.64658326, 0.11036857, -0.3262073, -0.49380684
977, 107385484, 0.751255, -0.057496917, -0.121667616, 0.646148, -0.15906422, -0.038707443, -0.5952072
978, 107402151, 0.7518705, -0.06100766, -0.118965186, 0.6456131, -0.3509642, -0.007970612, -0.8175583
979, 107418818, 0.7523593, -0.06489051, -0.11657275, 0.6451013, -0.24802093, -0.047161374, -0.7786169
980, 107435485, 0.7527665, -0.06873194, -0.11436756, 0.6446229, -0.14650425, -0.15113299, -0.51497364
981, 107452152, 0.7531988, -0.07197947, -0.1121576, 0.6441517, 0.04843861, -0.17963167, -0.44263554
982, 107468819, 0.7536196, -0.07481601, -0.10991199, 0.64372325, -0.028792435, -0.13715929, -0.5785942
983, 107485486, 0.75397354, -0.07762838, -0.107764095, 0.6433387, -0.24258716, -0.06754282, -0.6359873
984, 107502153, 0.7542706, -0.08043508, -0.10578385, 0.6429744, 0.007176945, -0.16650335, -0.4955244
985, 107518820, 0.754575, -0.082359985, -0.10353201, 0.6427401, 0.18961191, -0.13928528, -0.39912033
986, 107535487, 0.7548362, -0.08355289, -0.10097162, 0.64268684, -0.020712052, 0.0021773514, -0.56130123
987, 107552154, 0.75494623, -0.08516952, -0.09863671, 0.6427078, -0.43523213, 0.021346381, -0.79636383
988, 107568821, 0.7548907, -0.087534614, -0.09693109, 0.6427148, -0.2781955, -0.31120446, -0.61077976
989, 107585488, 0.7547878, -0.08966124, -0.09554337, 0.6427502, 0.26018965, -0.17577818, -0.4369421
990, 107602155, 0.75479513, -0.09136305, -0.093896896, 0.6427447, 0.15892297, -0.10474923, -0.6693373
991, 107618822, 0.75480026, -0.092909634, -0.09233559, 0.64274335, -0.12740658, -0.11384604, -0.78489876
992, 107635489, 0.7547418, -0.09475117, -0.0912419, 0.6426991, -0.16022079, -0.3557198, -0.5292702
993, 107652156, 0.75461435, -0.096293375, -0.09043529, 0.64273334, 0.015786665, -0.24985072, -0.45856
994, 107668823, 0.75444186, -0.09762714, -0.089564554, 0.6428566, -0.0024412645, -0.12110742, -0.6189623
995, 107685490, 0.75422746, -0.098743014, -0.08867099, 0.6430617, -0.019835489, -0.2028241, -0.7197361
996, 107702157, 0.7540341, -0.09947832, -0.087836266, 0.64328945, 0.06443974, -0.28096315, -0.544281
997, 107718824, 0.753898, -0.09988127, -0.08708798, 0.6434883, 0.08381183, -0.31043765, -0.4207096
998, 107735491, 0.75375295, -0.09988409, -0.08630349, 0.6437636, 0.004328049, -0.17439575, -0.49818516
999, 107752158, 0.75359505, -0.099867254, -0.08568667, 0.6440334, -0.24316452, -0.1503067, -0.70835495
1000, 107768825, 0.7533164, -0.100423574, -0.085480355, 0.6443004, -0.35188413, -0.25232723, -0.59721184
1001, 107785492, 0.75299275, -0.10110009, -0.085569, 0.64456093, -0.06147713, -0.33727038, -0.26492882
1002, 107802159, 0.7527284, -0.1013429, -0.08548646, 0.64484257, 0.056345325, -0.22022738, -0.25011826
1003, 107818826, 0.75248235, -0.1014065, -0.08530868, 0.64514315, -0.08743385, -0.18222709, -0.56850815
1004, 107835493, 0.75217825, -0.10152325, -0.08534077, 0.6454751, -0.26898894, -0.19891335, -0.71524525
1005, 107852160, 0.7518392, -0.10189317, -0.08555933, 0.6457826, -0.1994988, -0.27351135, -0.33406734
1006, 107868827, 0.75153685, -0.10190295, -0.08588035, 0.6460902, 0.035930768, -0.2891733, -0.022479057
1007, 107885494, 0.7513611, -0.101389095, -0.0859194, 0.64637053, -0.09545171, -0.16348028, -0.092419624
1008, 107902161, 0.7512828, -0.1007924, -0.08594042, 0.646552, -0.24696402, -0.27722827, -0.16417027
1009, 107918828, 0.75119716, -0.1004386, -0.08628, 0.64666134, -0.28322056, -0.26942843, -0.3351202
1010, 107935495, 0.7511123, -0.100277424, -0.08680718, 0.6467143, -0.096447125, -0.20175174, -0.17784405
1011, 107952162, 0.75116485, -0.09983828, -0.087147735, 0.6466755, -0.07398894, -0.20786487, -0.08391762
1012, 107968829, 0.7512627, -0.09949726, -0.08753692, 0.64656174, -0.29145473, -0.20809905, -0.026360512
1013, 107985496, 0.7513339, -0.099510565, -0.08815191, 0.64639354, -0.23826079, -0.2545232, -4.5967102E-4
1014, 108002163, 0.75141686, -0.099520646, -0.08869845, 0.64622056, -0.10897134, -0.17753187, 0.1223011
1015, 108018830, 0.75155306, -0.09924998, -0.089018896, 0.6460597, -0.12247985, -0.21568218, 0.041407585
1016, 108035497, 0.7516767, -0.09893347, -0.08926762, 0.6459301, -0.24573956, -0.29021096, 0.07268715
1017, 108052164, 0.751711, -0.098846816, -0.089692526, 0.6458447, -0.16209511, -0.2231142, -0.03581047
1018, 108068831, 0.7517394, -0.098815985, -0.090039976, 0.6457678, -0.08394739, -0.17319399, -0.024651527
1019, 108085498, 0.75179344, -0.0985891, -0.090288155, 0.6457049, -0.121782936, -0.16693798, 0.0047740936
1020, 108102165, 0.7518211, -0.098524876, -0.090588845, 0.6456405, -0.15221165, -0.26874548, 0.041436195
1021, 108118832, 0.75179416, -0.09848575, -0.09086489, 0.64563894, -0.044274006, -0.19211045, -0.012940407
1022, 108135499, 0.75178367, -0.09814611, -0.09096347, 0.64568895, -0.0688088, -0.1274072, -0.09764671
1023, 108152166, 0.7517889, -0.09776365, -0.09109205, 0.6457228, -0.059867162, -0.18668903, -0.14551449
1024, 108168833, 0.75177854, -0.097413786, -0.09132641, 0.64575475, -0.10264234, -0.26322383, -0.075696945
1025, 108185500, 0.75171435, -0.09703206, -0.09165023, 0.64584106, -0.118949965, -0.19391575, -0.10238075
1026, 108202167, 0.7515978, -0.09680342, -0.09202868, 0.64595705, -0.10865915, -0.1503342, -0.27492332
1027, 108218834, 0.7514471, -0.09647088, -0.09238735, 0.646131, -0.019237872, -0.21578231, -0.25581074
1028, 108235501, 0.7513178, -0.09596024, -0.092649795, 0.6463199, -0.026694544, -0.29074538, -0.24410343
1029, 108252168, 0.7511933, -0.09536829, -0.09295461, 0.6465083, -0.0837859, -0.26873252, -0.21905804
1030, 108268835, 0.75108516, -0.09467849, -0.093370534, 0.6466754, -0.06208564, -0.2699636, -0.22792435
1031, 108285502, 0.75098366, -0.093919344, -0.09383514, 0.6468368, -0.11187388, -0.23236881, -0.31899166
1032, 108302169, 0.7508915, -0.0931693, -0.09437809, 0.6469732, -0.15421818, -0.25357488, -0.45825863
1033, 108318836, 0.7507778, -0.09245481, -0.095146246, 0.64709526, -0.10437116, -0.30466795, -0.4303751
1034, 108335503, 0.75068855, -0.09168179, -0.09602175, 0.64717925, -0.031611327, -0.35078257, -0.40668774
1035, 108352170, 0.7506669, -0.0905128, -0.096928954, 0.6472338, 0.122299306, -0.35454848, -0.4771738
1036, 108368837, 0.7506916, -0.08905372, -0.097836494, 0.6472711, -0.0680602, -0.23693536, -0.73014355
1037, 108385504, 0.75063986, -0.08782165, -0.099022426, 0.64731914, -0.2094593, -0.2499484, -0.9625292
1038, 108402171, 0.7505097, -0.08679036, -0.100650616, 0.647358, -0.0058007757, -0.33604386, -0.93246555
1039, 108418838, 0.75038254, -0.0854794, -0.10250663, 0.6473884, 0.162365, -0.30747628, -1.0255699
1040, 108435505, 0.7502602, -0.08378996, -0.10452234, 0.6474289, 0.101932466, -0.2995947, -1.1762161
1041, 108452172, 0.7500562, -0.08195267, -0.10695761, 0.6475027, 0.0029809922, -0.17174947, -1.3907127
1042, 108468839, 0.7497696, -0.080456704, -0.10982418, 0.64754224, -0.08691592, -0.18008511, -1.4861841
1043, 108485506, 0.74938554, -0.07891536, -0.113140605, 0.6476057, 6.3483266E-4, -0.31822813, -1.325203
1044, 108502173, 0.74899215, -0.076964624, -0.11680538, 0.6476449, 0.25496358, -0.2501611, -1.3312922
1045, 108518840, 0.7486258, -0.074472606, -0.12070028, 0.6476455, 0.13495354, -0.1346865, -1.4991455
1046, 108535507, 0.74822646, -0.07211502, -0.12501915, 0.6475544, -0.111411035, -0.058791563, -1.612031
1047, 108552174, 0.747785, -0.06998152, -0.12990537, 0.6473367, -0.05578425, -0.39219406, -1.31324
1048, 108568841, 0.74734676, -0.06665151, -0.1351012, 0.6471308, 0.60045016, -0.3749593, -0.8644123
1049, 108585508, 0.74706966, -0.062309273, -0.13997415, 0.64684755, 0.3476863, 0.014707348, -1.1222992
1050, 108602175, 0.7467636, -0.057889663, -0.14502954, 0.6464979, -0.055081416, 0.09440232, -1.6346788
1051, 108618842, 0.7463347, -0.053860057, -0.15063874, 0.6460586, -0.22885369, -0.10271873, -1.3859615
1052, 108635509, 0.74575555, -0.050043907, -0.157089, 0.6454978, 0.15948968, -0.3111964, -1.1596317
1053, 108652176, 0.74513227, -0.045609754, -0.16376767, 0.64488596, 0.39611927, 0.077825226, -1.1540861
1054, 108668843, 0.7445105, -0.040432677, -0.1704205, 0.64422554, 0.39056575, 0.2680855, -1.2427301
1055, 108685510, 0.7437949, -0.035090655, -0.17716688, 0.6435446, -0.09198419, 0.6061135, -1.3742704
1056, 108702177, 0.7429481, -0.030522583, -0.1845431, 0.64268225, -0.12905973, 0.21851096, -1.2287722
1057, 108718844, 0.741914, -0.025715666, -0.19252755, 0.64174426, 0.3603163, -0.0040993113, -0.95362186
1058, 108735511, 0.7408284, -0.020426914, -0.20064215, 0.64070195, 0.38261092, 0.47252238, -1.128746
1059, 108752178, 0.7396707, -0.015020376, -0.20893997, 0.63953567, 0.08851046, 0.76576316, -1.2001333
1060, 108768845, 0.7384524, -0.010187763, -0.21770974, 0.63811207, -0.008169622, 0.56418145, -1.0572481
1061, 108785512, 0.7371564, -0.0047419863, -0.2265301, 0.63660216, 0.38715136, -0.06674987, -0.51440716
1062, 108802179, 0.7357524, 0.0026082592, -0.23502213, 0.6351585, 0.78626126, -0.049956843, -0.16526604
1063, 108818846, 0.73435444, 0.010917079, -0.24311663, 0.6336394, 0.41287884, 0.658604, -0.71762466
1064, 108835513, 0.7327985, 0.018576661, -0.2518108, 0.6318643, 0.0113920085, 0.9629622, -1.2446632
1065, 108852180, 0.731047, 0.025041409, -0.26133704, 0.62979853, 0.00240377, 0.9818067, -0.9799042
1066, 108868847, 0.72918814, 0.031053927, -0.27138135, 0.6274335, 0.44525346, 0.5619877, -0.39758587
1067, 108885514, 0.7271535, 0.03820284, -0.28107703, 0.62512726, 0.6393492, 0.4521266, 0.16116619
1068, 108902181, 0.7250326, 0.046320185, -0.29043433, 0.62276024, 0.60448205, 0.49068007, 0.04718876
1069, 108918848, 0.72255796, 0.054847714, -0.29992378, 0.6204417, 0.20132214, 0.9181787, -0.41100597
1070, 108935515, 0.71983856, 0.06289513, -0.3094741, 0.6181445, -0.18578218, 1.1783729, -0.25339508
1071, 108952182, 0.716999, 0.070241265, -0.31928542, 0.61565864, 0.18635616, 0.92247975, -0.06404209
1072, 108968849, 0.713916, 0.07838672, -0.32875797, 0.61326826, 0.5935071, 0.5311067, 0.34818745
1073, 108985516, 0.7106275, 0.08772226, -0.337773, 0.6109196, 0.6665867, 0.6887239, 0.43687725
1074, 109002183, 0.707251, 0.0969765, -0.34693643, 0.60829824, -0.08867273, 1.1595865, 0.056602478
1075, 109018850, 0.70384085, 0.1047829, -0.35646895, 0.6054408, -0.81749004, 1.1233335, 0.12953186
1076, 109035517, 0.7003523, 0.11160927, -0.36652163, 0.6022558, 0.031745322, 0.10408909, 0.5570564
1077, 109052184, 0.6963355, 0.12025534, -0.37589714, 0.59946394, 0.6897556, 0.039779775, 1.0089674
1078, 109068851, 0.692267, 0.13015811, -0.3840045, 0.596964, 0.4936212, 0.5075727, 0.8354778
1079, 109085518, 0.68821526, 0.14003877, -0.3917463, 0.5943769, -0.4686861, 0.62338233, 0.66089916
1080, 109102185, 0.6842441, 0.14808571, -0.4003641, 0.5912609, -0.68439066, 0.79858464, 0.5590706
1081, 109118852, 0.6803219, 0.1547532, -0.40958086, 0.587756, -0.2355498, 0.34653047, 0.7776537
1082, 109135519, 0.6761235, 0.1617256, -0.418779, 0.5842314, 0.3944304, -0.04646421, 0.9961977
1083, 109152186, 0.67161644, 0.1697027, -0.42739367, 0.58091927, 0.4797281, -0.012998843, 1.2356997
1084, 109168853, 0.66689026, 0.17803763, -0.4355255, 0.57782143, 0.058661424, 0.305413, 1.3103285
1085, 109185520, 0.66226363, 0.18563533, -0.44347897, 0.5746938, -0.061593466, 0.25694993, 1.4668503
1086, 109202187, 0.6576037, 0.19265828, -0.4515551, 0.5714355, 0.10006653, 0.11541304, 1.3981562
1087, 109218854, 0.65292925, 0.19943503, -0.45951146, 0.5681184, 0.30801517, -0.05385578, 1.4108667
1088, 109235521, 0.6482139, 0.20608093, -0.46713492, 0.56492, -0.006150406, -0.09865281, 1.5369158
1089, 109252188, 0.6435734, 0.21203047, -0.47460374, 0.5617899, -0.3796095, 0.0038477755, 1.4907293
1090, 109268855, 0.6389349, 0.21710539, -0.4820985, 0.5587564, -0.50471795, -0.1351917, 1.3087025
1091, 109285522, 0.634036, 0.22194502, -0.48949158, 0.5560007, -0.15118818, -0.28869045, 1.2459221
1092, 109302189, 0.62892836, 0.22726324, -0.49597895, 0.5539004, -0.22722104, -0.5677058, 1.4103918
1093, 109318856, 0.62348527, 0.23344477, -0.50146747, 0.55253977, -0.33423814, -0.73777056, 1.3926821
1094, 109335523, 0.6178966, 0.23973352, -0.50645536, 0.5515749, -0.56121916, -0.64530414, 0.97757816
1095, 109352190, 0.61193633, 0.2463409, -0.51123506, 0.5508983, -0.34394667, -0.5320601, 0.703475
1096, 109368857, 0.6058347, 0.25351602, -0.5154302, 0.5504778, -0.062713265, -0.5318407, 0.7795315
1097, 109385524, 0.5998031, 0.26086086, -0.51947904, 0.54984486, -0.2146938, -0.19689122, 0.48589706
1098, 109402191, 0.59406275, 0.2676138, -0.52389807, 0.5486378, -0.41294107, 0.035768107, 0.2925501
1099, 109418858, 0.58870846, 0.27337727, -0.5289991, 0.54666936, -0.40234545, 0.05885577, 0.30920792
1100, 109435525, 0.5836831, 0.27848244, -0.5342596, 0.5443607, -0.4569235, -0.042042118, 0.6382694
1101, 109452192, 0.5790188, 0.28308082, -0.53932923, 0.54196554, -0.38988438, -0.15424271, 0.7626028
1102, 109468859, 0.5745206, 0.28749835, -0.5442097, 0.5395431, -0.26214448, -0.23122661, 0.63812065
1103, 109485526, 0.5700549, 0.29214126, -0.5489182, 0.53701013, -0.10138145, -0.2708198, 0.53589725
1104, 109502193, 0.56573945, 0.29708046, -0.5530956, 0.53457236, -0.10540022, -0.31259862, 0.4785452
1105, 109518860, 0.56135565, 0.30238822, -0.556865, 0.5322994, -0.20758073, -0.38532984, 0.3851385
1106, 109535527, 0.55708265, 0.3075113, -0.56059355, 0.5299347, -0.66160595, -0.35342506, 0.51583195
1107, 109552194, 0.5534259, 0.31120962, -0.56512094, 0.5267891, -1.1654783, 0.025011323, 0.5292187
1108, 109568861, 0.55058205, 0.31304792, -0.5702294, 0.52316254, -0.7315474, -0.08653952, 0.548687
1109, 109585528, 0.54792565, 0.31456226, -0.5751059, 0.5196938, -0.031853054, -0.59990764, 0.7665386
1110, 109602195, 0.54524153, 0.31645545, -0.5795591, 0.51640975, 0.1955526, -0.7831534, 0.99113274
1111, 109618862, 0.5427577, 0.31839868, -0.5834471, 0.51344514, -0.12503605, -0.7049158, 0.8293152
1112, 109635529, 0.54015225, 0.32046068, -0.5869459, 0.510916, -0.19227903, -0.96372336, 0.5636158
1113, 109652196, 0.5369189, 0.32323664, -0.5901821, 0.50884306, -0.0131300455, -1.1948823, 0.62627316
1114, 109668863, 0.5332983, 0.32660863, -0.5927929, 0.50746065, 0.13957468, -1.1463735, 0.60557556
1115, 109685530, 0.5294017, 0.33049843, -0.5945971, 0.50691134, 0.29563835, -1.1876643, 0.5320616
1116, 109702197, 0.52511877, 0.3351147, -0.59587234, 0.50683814, 0.15989067, -1.0089183, 0.42856598
1117, 109718864, 0.52093065, 0.33973008, -0.596703, 0.50710976, 0.053127687, -0.7635827, 0.3402052
1118, 109735531, 0.51671845, 0.34443313, -0.59713405, 0.5077391, 0.17272188, -0.8878394, 0.3497591
1119, 109752198, 0.5124373, 0.34930503, -0.597094, 0.5087954, 0.30733904, -0.8611914, 0.37513733
1120, 109768865, 0.5084705, 0.35394976, -0.5966617, 0.5100709, -0.07387416, -0.7422074, 0.26521587
1121, 109785532, 0.50534666, 0.35717568, -0.5969354, 0.51060617, -0.66524494, -0.24525093, 0.031181335
1122, 109802199, 0.5033954, 0.35836947, -0.59800595, 0.51044446, -0.60910255, -0.37937135, -0.03635311
1123, 109818866, 0.5019321, 0.3586191, -0.59957963, 0.50986373, -0.07453129, -0.7965824, 0.13679886
1124, 109835533, 0.5007572, 0.3586591, -0.60091424, 0.50941944, 0.12763551, -1.025992, 0.36238766
1125, 109852200, 0.499711, 0.35865635, -0.60192585, 0.5092544, 0.09507168, -1.1022822, 0.36373234
1126, 109868867, 0.49836713, 0.3589712, -0.60262924, 0.5095172, -0.06425193, -1.0657026, 0.3789673
1127, 109885534, 0.49677855, 0.35953078, -0.60301656, 0.5102155, -0.13520455, -0.84891653, 0.3014164
1128, 109902201, 0.49487486, 0.36036423, -0.6031172, 0.5113573, -0.13691421, -0.690664, 0.2817526
1129, 109918868, 0.49309033, 0.36113766, -0.60287315, 0.5128213, -0.29806525, -0.32122803, 0.23854733
1130, 109935535, 0.49166688, 0.36132923, -0.60251516, 0.51447105, -0.354416, -0.2586655, 0.112877846
1131, 109952202, 0.4902781, 0.3613865, -0.6022167, 0.516103, -0.15804198, -0.30827746, 0.039907455
1132, 109968869, 0.48906446, 0.36143443, -0.60183775, 0.51766086, -0.08626684, -0.3198636, 0.083413124
1133, 109985536, 0.48806572, 0.3615336, -0.6013864, 0.51905686, -0.16257192, -0.2459969, 0.09274578
1134, 110002203, 0.48725933, 0.36153433, -0.6009031, 0.52037185, -0.2045861, -0.16442865, 0.09949684
1135, 110018870, 0.48646334, 0.36143354, -0.60055476, 0.52158725, -0.21015827, -0.06098428, 0.11501598
1136, 110035537, 0.48573256, 0.36126393, -0.6001933, 0.5228004, -0.18720886, 0.008716893, 0.0554533
1137, 110052204, 0.48490566, 0.3612457, -0.5997693, 0.5240659, -0.037880305, 8.4398495E-4, -0.0058193207
1138, 110068871, 0.48398653, 0.36165047, -0.5990417, 0.52546674, 0.12693815, -0.06603087, -0.02439785
1139, 110085538, 0.48292592, 0.3625377, -0.5980559, 0.52695197, 0.0920319, 0.01706432, -0.06390095
1140, 110102205, 0.48196325, 0.3635545, -0.59703946, 0.5282835, -0.070198044, 0.2183346, -0.07743931
1141, 110118872, 0.48128793, 0.3642965, -0.59624964, 0.5292791, -0.21726733, 0.40381783, -0.17610455
1142, 110135539, 0.4808289, 0.36478096, -0.5957521, 0.5299225, -0.047293555, 0.40550312, -0.16530228
1143, 110152206, 0.48056778, 0.3651379, -0.5954846, 0.5302142, 0.07436701, 0.2923668, -0.122571945
1144, 110168873, 0.48035392, 0.36563733, -0.59526163, 0.5303142, -0.008778695, 0.30667418, -0.06290054
1145, 110185540, 0.48032692, 0.36597162, -0.59495795, 0.5304489, -0.1448022, 0.3143664, -0.1128788
1146, 110202207, 0.4802664, 0.36630863, -0.59484047, 0.5304027, -0.06542068, 0.2200266, -0.18427563
1147, 110218874, 0.48000202, 0.36678755, -0.59491706, 0.53022516, 0.04949471, 0.15439661, -0.0023040771
1148, 110235541, 0.47978008, 0.36737716, -0.59477276, 0.53017974, -0.004569052, 0.16665082, 0.035861015
1149, 110252208, 0.47964153, 0.36781338, -0.594669, 0.530119, -0.17559715, 0.20840381, -0.09988117
1150, 110268875, 0.4794173, 0.36814383, -0.5947947, 0.52995145, -0.14165737, 0.21626174, -0.12918568
1151, 110285542, 0.4792553, 0.368371, -0.59499806, 0.5297119, 0.08041058, 0.05813002, 0.0055265427
1152, 110302209, 0.47901353, 0.3688645, -0.5951052, 0.52946675, 0.10603857, 0.033928484, 0.057756424
1153, 110318876, 0.47883728, 0.3694615, -0.59494245, 0.5293927, 0.040637337, 0.02813514, 0.008308411
1154, 110335543, 0.47848907, 0.3702676, -0.59475523, 0.5293548, -0.0133376885, -0.06546773, -0.06164074
1155, 110352210, 0.478008, 0.37111428, -0.59464306, 0.52932245, -0.10425762, -0.003102248, -0.07350731
1156, 110368877, 0.47758234, 0.37186942, -0.5945345, 0.52929884, -0.012446319, -0.013370656, -0.09354305
1157, 110385544, 0.4770559, 0.37277788, -0.59436315, 0.52932674, 0.098903365, -0.08890753, -0.013829231
1158, 110402211, 0.47654745, 0.3737678, -0.59409183, 0.52939117, -0.016024537, 0.01193805, 0.03289795
1159, 110418878, 0.47616702, 0.3745719, -0.5938682, 0.52941626, -0.06888803, 0.021678075, -0.0556612
1160, 110435545, 0.47573245, 0.37537327, -0.5937814, 0.52933675, 0.009633855, -0.06423874, 0.037005424
1161, 110452212, 0.4752989, 0.37622607, -0.59360987, 0.5293129, -0.009899836, -0.024721203, 0.089556694
1162, 110468879, 0.47490233, 0.3769842, -0.5933712, 0.52939737, -0.032333832, -0.013545668, 0.018619537
1163, 110485546, 0.4744801, 0.3776542, -0.59321046, 0.5294786, 0.03440669, -0.05124191, -0.0026102066
1164, 110502213, 0.47402403, 0.37828213, -0.59305876, 0.5296087, -0.049933687, -0.032545947, 0.0068130493
1165, 110518880, 0.47360858, 0.37879005, -0.59297794, 0.52970785, -0.07674898, -0.04675019, 0.004424095
1166, 110535547, 0.47325563, 0.37914085, -0.5929861, 0.52976316, 0.011796343, -0.034615897, 0.028884888
1167, 110552214, 0.4729256, 0.3794514, -0.5930387, 0.5297765, 0.057773627, -0.0110675795, -0.03612995
1168, 110568881, 0.47253275, 0.37977043, -0.59315586, 0.5297673, 0.0278106, 0.015072149, 0.018209457
1169, 110585548, 0.4722617, 0.3800393, -0.5931133, 0.5298637, -0.0015243584, 0.009401513, 0.026958466
1170, 110602215, 0.4720463, 0.3802437, -0.5931346, 0.5298853, 0.039851688, -0.08098444, 0.013530731
1171, 110618882, 0.47179013, 0.3804341, -0.59327006, 0.52982503, -0.016853547, -0.01819552, 0.03140545
1172, 110635549, 0.47158334, 0.3804979, -0.5934092, 0.5298077, -0.025888612, -0.01909527, 0.015126228
1173, 110652216, 0.47130853, 0.38059196, -0.59354097, 0.5298372, 0.047366865, -0.04053117, -0.0031194687
1174, 110668883, 0.47098407, 0.3807105, -0.5935903, 0.5299851, 0.046857927, -0.064788915, 0.018609047
1175, 110685550, 0.4706096, 0.3809051, -0.59355277, 0.5302198, -0.031517338, -0.09599379, -0.0048570633
1176, 110702217, 0.47016412, 0.38109043, -0.59368014, 0.5303393, 0.009962643, -0.017279005, 0.01172924
1177, 110718884, 0.46983552, 0.38115513, -0.5937943, 0.53045624, 0.045737904, -0.0073581585, 0.055620193
1178, 110735551, 0.46954003, 0.38117567, -0.5939148, 0.5305683, -0.025934208, 0.022537928, -0.030414581
1179, 110752218, 0.46933612, 0.3811336, -0.5940435, 0.53063494, 0.0972078, -0.025922362, 0.027414322
1180, 110768885, 0.46912116, 0.38118738, -0.594011, 0.5308226, 0.015976483, -0.088367075, 0.007543564
1181, 110785552, 0.468926, 0.38118303, -0.59411365, 0.53088325, -0.009765728, -0.04686821, -0.019885063
1182, 110802219, 0.4686026, 0.381263, -0.5942223, 0.5309895, -0.057151146, -0.034641042, 0.017284393
1183, 110818886, 0.46833643, 0.3812475, -0.5943561, 0.5310858, 0.02386202, -0.02385889, 0.046567917
1184, 110835553, 0.46812707, 0.38124928, -0.5944126, 0.53120613, 0.07387796, -0.036401767, -0.0069274902
1185, 110852220, 0.4678526, 0.38137332, -0.5944048, 0.53136736, 0.047187608, -0.07113914, -0.038119316
1186, 110868887, 0.4674677, 0.38158974, -0.59439474, 0.5315622, -0.01039514, -0.025905933, -0.074786186
1187, 110885554, 0.46709993, 0.38177434, -0.5944274, 0.5317163, 0.026174484, 0.008802387, -0.018148422
1188, 110902221, 0.46679989, 0.38194942, -0.5944771, 0.5317983, -0.0030429054, 0.014471123, 0.043035507
1189, 110918888, 0.4665593, 0.3820824, -0.5945514, 0.531831, -0.091814876, 0.111747205, -0.03166485
1190, 110935555, 0.46639195, 0.38204798, -0.5947027, 0.53183323, -0.051276553, 0.047251422, -0.039647102
1191, 110952222, 0.46615, 0.38208506, -0.594877, 0.531824, 0.018829178, -0.007511935, 0.011632919
1192, 110968889, 0.46590462, 0.38216528, -0.5949845, 0.53186125, 0.030693693, -0.02576378, 0.08075428
1193, 110985556, 0.46560898, 0.382382, -0.5950003, 0.53194624, -0.014119313, 0.017568566, 0.06911087
1194, 111002223, 0.46535507, 0.38255784, -0.59497315, 0.5320724, -0.008339715, 0.02593745, 0.059945107
1195, 111018890, 0.4651183, 0.38270092, -0.59497505, 0.5321744, -0.051725592, 0.02420869, -0.013957024
1196, 111035557, 0.46486178, 0.3828554, -0.5950002, 0.53225946, -0.041905772, 9.611057E-6, -0.040748596
