DeviceTag:,Xsens DOT,,,,,,,,,,,,,,,,,
FirmwareVersion:,1.3.0,,,,,,,,,,,,,,,,,
AppVersion:,2020.1.1,,,,,,,,,,,,,,,,,
Measurement Mode:,Sensor fusion Mode - Orientation (Quaternion),,,,,,,,,,,,,,,,,
StartTime:,2020-08-10 11:49:33.339 +0200,,,,,,,,,,,,,,,,,
© Xsens Technologies B. V. 2005-2020,,,,,,,,,,,,,,,,,,,
PacketCounter,SampleTimeFine,Quat_W,Quat_X,Quat_Y,Quat_Z
1, 326526511, 0.8966632, -0.058795944, 0.09874149, 0.42753756
2, 326543178, 0.8966963, -0.05984041, 0.099559724, 0.42713284
3, 326559845, 0.8965402, -0.06003046, 0.101264946, 0.42703328
4, 326576512, 0.89633197, -0.059196725, 0.10314169, 0.42713767
5, 326593179, 0.89617276, -0.058752395, 0.10429283, 0.4272537
6, 326609846, 0.8961787, -0.05903195, 0.1046822, 0.42710742
7, 326626513, 0.89626116, -0.059295174, 0.10481794, 0.42686462
8, 326643180, 0.8963457, -0.05879427, 0.105140485, 0.42667687
9, 326659847, 0.89636177, -0.058222383, 0.105547726, 0.42662084
10, 326676514, 0.8963707, -0.05830692, 0.10572161, 0.42654747
11, 326693181, 0.8963846, -0.05857659, 0.10570188, 0.4264864
12, 326709848, 0.89641607, -0.058349065, 0.10571255, 0.42644882
13, 326726515, 0.8965122, -0.05794981, 0.1058604, 0.42626444
14, 326743182, 0.8966032, -0.058023367, 0.10594115, 0.42604294
15, 326759849, 0.8966697, -0.0581534, 0.10599724, 0.4258711
16, 326776516, 0.8967387, -0.058098815, 0.10621098, 0.42568004
17, 326793183, 0.8965827, -0.058021493, 0.10648314, 0.42595106
18, 326809850, 0.8965207, -0.05761285, 0.10685726, 0.42604345
19, 326826517, 0.896351, -0.057132382, 0.10743545, 0.4263198
20, 326843184, 0.8962469, -0.05673325, 0.10796042, 0.42645928
21, 326859851, 0.8965126, -0.05663647, 0.10816015, 0.4258624
22, 326876518, 0.8967941, -0.056897953, 0.10800577, 0.42527398
23, 326893185, 0.896902, -0.056672055, 0.108103335, 0.42505154
24, 326909852, 0.89705676, -0.05590518, 0.108586535, 0.42470348
25, 326926519, 0.89707214, -0.05571764, 0.10903704, 0.42457974
26, 326943186, 0.89699304, -0.05619706, 0.10903324, 0.42468464
27, 326959853, 0.89705276, -0.056248415, 0.10889231, 0.42458817
28, 326976520, 0.8968341, -0.055583492, 0.10907019, 0.42509162
29, 326993187, 0.8967061, -0.05480466, 0.10946933, 0.4253601
30, 327009854, 0.8966426, -0.054433696, 0.109847605, 0.4254443
31, 327026521, 0.8965535, -0.054342315, 0.11013729, 0.42556843
32, 327043188, 0.8962598, -0.054169126, 0.11045696, 0.42612618
33, 327059855, 0.8962734, -0.054154884, 0.11064618, 0.42605036
34, 327076522, 0.89630765, -0.05514061, 0.110263504, 0.42595086
35, 327093189, 0.8964095, -0.056329794, 0.109568976, 0.42576024
36, 327109856, 0.89640254, -0.056410562, 0.109526575, 0.42577508
37, 327126523, 0.89648163, -0.055679433, 0.10997924, 0.42558825
38, 327143190, 0.8965028, -0.055326022, 0.110074006, 0.42556494
39, 327159857, 0.89657944, -0.05514615, 0.109567404, 0.4255576
40, 327176524, 0.8965268, -0.054587323, 0.109323464, 0.42580315
41, 327193191, 0.8964527, -0.053933457, 0.10949953, 0.42599723
42, 327209858, 0.8961553, -0.054413743, 0.10926917, 0.42662078
43, 327226525, 0.8961629, -0.055273984, 0.108402096, 0.4267156
44, 327243192, 0.8961867, -0.055066273, 0.10765086, 0.4268824
45, 327259859, 0.8959902, -0.05413161, 0.107525386, 0.4274455
46, 327276526, 0.895832, -0.05361157, 0.10756833, 0.4278316
47, 327293193, 0.89563465, -0.053950854, 0.10758425, 0.4281979
48, 327309860, 0.89537114, -0.054339174, 0.10778749, 0.4286487
49, 327326527, 0.89547426, -0.054292776, 0.10822668, 0.42832828
50, 327343194, 0.8954498, -0.05435366, 0.10853532, 0.42829353
51, 327359861, 0.89574033, -0.05479315, 0.10858033, 0.4276185
52, 327376528, 0.8953267, -0.05546423, 0.10866138, 0.42837673
53, 327393195, 0.8954276, -0.05570897, 0.109045036, 0.4280364
54, 327409862, 0.89531827, -0.055897135, 0.109293915, 0.42817703
55, 327426529, 0.89533675, -0.055808473, 0.109394975, 0.4281242
56, 327443196, 0.8955053, -0.05551636, 0.109650806, 0.42774412
57, 327459863, 0.89564246, -0.055351947, 0.110025935, 0.427382
58, 327476530, 0.89572525, -0.055449754, 0.11025499, 0.42713633
59, 327493197, 0.89582187, -0.055367455, 0.110324465, 0.42692637
60, 327509864, 0.8959327, -0.05477288, 0.110436626, 0.42674145
61, 327526531, 0.89610344, -0.05407194, 0.11071695, 0.4263995
62, 327543198, 0.89618903, -0.053819187, 0.11109654, 0.42615286
63, 327559865, 0.8962892, -0.054367963, 0.11138175, 0.425798
64, 327576532, 0.896355, -0.055075176, 0.111382894, 0.4255682
65, 327593199, 0.89640754, -0.054949425, 0.11156478, 0.42542621
66, 327609866, 0.8964404, -0.05443351, 0.11201312, 0.42530578
67, 327626533, 0.89639705, -0.05428598, 0.11239444, 0.42531517
68, 327643200, 0.896664, -0.054244325, 0.11256244, 0.42471284
69, 327659867, 0.8964992, -0.05408586, 0.11268119, 0.42504933
70, 327676534, 0.8966294, -0.053844795, 0.11296563, 0.4247299
71, 327693201, 0.8965308, -0.05422739, 0.11318395, 0.424831
72, 327709868, 0.8968217, -0.0547181, 0.11324189, 0.42413828
73, 327726535, 0.896742, -0.05449172, 0.11355035, 0.42425364
74, 327743202, 0.8968364, -0.053606845, 0.114082694, 0.42402354
75, 327759869, 0.8966085, -0.05344146, 0.11426656, 0.42447686
76, 327776536, 0.8967999, -0.053862005, 0.11394956, 0.42410424
77, 327793203, 0.8966117, -0.054099817, 0.1136939, 0.42454037
78, 327809870, 0.8961758, -0.053908948, 0.11386478, 0.42543834
79, 327826537, 0.8958761, -0.05373735, 0.114004165, 0.42605367
80, 327843204, 0.8957003, -0.053904023, 0.11393228, 0.42642108
81, 327859871, 0.895643, -0.054187022, 0.11386929, 0.4265224
82, 327876538, 0.89558774, -0.054295134, 0.113974996, 0.4265964
83, 327893205, 0.89580184, -0.054238766, 0.11423811, 0.42608312
84, 327909872, 0.89559084, -0.054559037, 0.11435932, 0.42645326
85, 327926539, 0.89541316, -0.054908864, 0.11437796, 0.4267767
86, 327943206, 0.8953034, -0.055143937, 0.11438185, 0.42697522
87, 327959873, 0.89509, -0.055454943, 0.11424669, 0.42741826
88, 327976540, 0.89511603, -0.056182984, 0.11408336, 0.42731246
89, 327993207, 0.8949908, -0.056869533, 0.114053324, 0.42749208
90, 328009874, 0.8952046, -0.056880236, 0.11426057, 0.42698735
91, 328026541, 0.89542913, -0.056516383, 0.11444861, 0.4265139
92, 328043208, 0.8956856, -0.056431726, 0.11435604, 0.4260115
93, 328059875, 0.8958264, -0.056853767, 0.11403173, 0.42574602
94, 328076542, 0.89589566, -0.057053655, 0.11379092, 0.42563775
95, 328093209, 0.8959423, -0.05670112, 0.11374266, 0.42559978
96, 328109876, 0.8959706, -0.0564021, 0.11360485, 0.42561644
97, 328126543, 0.8960332, -0.056532282, 0.11322797, 0.42556798
98, 328143210, 0.8957181, -0.056410715, 0.11284756, 0.42634752
99, 328159877, 0.8956748, -0.05598293, 0.112639576, 0.4265502
100, 328176544, 0.8956881, -0.05595589, 0.112385124, 0.42659277
101, 328193211, 0.8955553, -0.056489784, 0.11204296, 0.426891
102, 328209878, 0.89538586, -0.056750175, 0.11201503, 0.4272192
103, 328226545, 0.8952094, -0.05649688, 0.11227818, 0.4275538
104, 328243212, 0.89502174, -0.0563532, 0.11225305, 0.4279717
105, 328259879, 0.8948224, -0.056619003, 0.11175819, 0.42848265
106, 328276546, 0.8946307, -0.056764517, 0.11136035, 0.42896694
107, 328293213, 0.8944918, -0.05630853, 0.11150809, 0.4292781
108, 328309880, 0.894265, -0.056013905, 0.11186056, 0.4296972
109, 328326547, 0.8942249, -0.056442045, 0.11184129, 0.42973024
110, 328343214, 0.89416856, -0.05713538, 0.11136239, 0.42988014
111, 328359881, 0.8945121, -0.056880526, 0.111152895, 0.42925268
112, 328376548, 0.89462274, -0.055927206, 0.11141718, 0.42907876
113, 328393215, 0.894656, -0.055539962, 0.11164655, 0.42899996
114, 328409882, 0.89449716, -0.056131683, 0.11148316, 0.42929676
115, 328426549, 0.8945467, -0.05656275, 0.11120729, 0.42920855
116, 328443216, 0.8947384, -0.056009274, 0.111261725, 0.42886725
117, 328459883, 0.89486253, -0.055351302, 0.11133567, 0.42867446
118, 328476550, 0.8949412, -0.05510919, 0.111223675, 0.4285704
119, 328493217, 0.89513123, -0.05536832, 0.1110933, 0.42817402
120, 328509884, 0.89516735, -0.055458777, 0.11123051, 0.4280509
121, 328526551, 0.89525354, -0.05531095, 0.1115417, 0.4278088
122, 328543218, 0.89528966, -0.05519679, 0.111623764, 0.42772657
123, 328559885, 0.8952674, -0.055018764, 0.11153698, 0.4278185
124, 328576552, 0.8952886, -0.05459042, 0.11150145, 0.4278385
125, 328593219, 0.8952683, -0.05402645, 0.11157688, 0.4279327
126, 328609886, 0.89526, -0.053717833, 0.11173525, 0.4279476
127, 328626553, 0.8953036, -0.053753257, 0.11181253, 0.4278319
128, 328643220, 0.89509344, -0.053787764, 0.111911, 0.4282413
129, 328659887, 0.8949902, -0.053452186, 0.11218582, 0.42842722
130, 328676554, 0.8946648, -0.053048547, 0.11245731, 0.4290852
131, 328693221, 0.8945777, -0.053354282, 0.11238046, 0.42924935
132, 328709888, 0.8946563, -0.05424212, 0.11213047, 0.42903927
133, 328726555, 0.8946748, -0.054501273, 0.11220839, 0.42894754
134, 328743222, 0.89462125, -0.053984925, 0.112592086, 0.42902422
135, 328759889, 0.8946101, -0.053835504, 0.11278681, 0.42901495
136, 328776556, 0.89469355, -0.054358173, 0.112467885, 0.42885882
137, 328793223, 0.8948177, -0.054495573, 0.11213678, 0.4286687
138, 328809890, 0.89486474, -0.053791583, 0.112238675, 0.428633
139, 328826557, 0.89498806, -0.053144205, 0.112415045, 0.4284098
140, 328843224, 0.89501536, -0.053201072, 0.11222564, 0.4283955
141, 328859891, 0.8950448, -0.05325212, 0.1119235, 0.4284066
142, 328876558, 0.8950305, -0.0525842, 0.11192404, 0.42851883
143, 328893225, 0.89522606, -0.05139854, 0.11217388, 0.42818895
144, 328909892, 0.894953, -0.050743826, 0.11230834, 0.42880198
145, 328926559, 0.8948058, -0.051022846, 0.11231646, 0.42907393
146, 328943226, 0.8946494, -0.05241879, 0.11220202, 0.42926204
147, 328959893, 0.8944838, -0.053894293, 0.11221571, 0.42942035
148, 328976560, 0.89423186, -0.054577295, 0.112575315, 0.42976445
149, 328993227, 0.8941802, -0.05433943, 0.113045916, 0.4297789
150, 329009894, 0.8941527, -0.05405305, 0.11339653, 0.42977938
151, 329026561, 0.8941491, -0.054470744, 0.11361301, 0.42967722
152, 329043228, 0.894128, -0.055220377, 0.113943584, 0.42953813
153, 329059895, 0.8941345, -0.055641998, 0.1144778, 0.42932785
154, 329076562, 0.89417183, -0.055324927, 0.11498527, 0.42915535
155, 329093229, 0.8943713, -0.054802813, 0.11507783, 0.42878175
156, 329109896, 0.8945632, -0.054628838, 0.11477315, 0.4284852
157, 329126563, 0.89458025, -0.054669145, 0.11452675, 0.42851037
158, 329143230, 0.8945737, -0.054607715, 0.11459783, 0.42851287
159, 329159897, 0.89460546, -0.05442597, 0.11482692, 0.4284083
160, 329176564, 0.89468706, -0.054395616, 0.11490139, 0.428222
161, 329193231, 0.89477235, -0.054230567, 0.114765346, 0.42810124
162, 329209898, 0.89479965, -0.05367197, 0.114660524, 0.42814222
163, 329226565, 0.89478767, -0.05307686, 0.11469469, 0.42823255
164, 329243232, 0.8947936, -0.052957114, 0.11476647, 0.4282158
165, 329259899, 0.8947915, -0.05327141, 0.11474551, 0.42818713
166, 329276566, 0.89481646, -0.053334933, 0.11482263, 0.4281062
167, 329293233, 0.8947783, -0.052908365, 0.11494928, 0.42820463
168, 329309900, 0.89450914, -0.052647654, 0.11504114, 0.42877406
169, 329326567, 0.8944318, -0.052794103, 0.11511717, 0.428897
170, 329343234, 0.8944109, -0.05306342, 0.11513756, 0.42890212
171, 329359901, 0.89449763, -0.052712362, 0.11534536, 0.42870846
172, 329376568, 0.8944879, -0.05182801, 0.115663, 0.42875132
173, 329393235, 0.8944929, -0.051056206, 0.11591276, 0.42876574
174, 329409902, 0.8944779, -0.05101375, 0.11599085, 0.42878115
175, 329426569, 0.8944373, -0.051134124, 0.1161714, 0.42880258
176, 329443236, 0.89444625, -0.0508375, 0.11660642, 0.42870098
177, 329459903, 0.8944132, -0.05054301, 0.11696804, 0.42870656
178, 329476570, 0.894315, -0.050469648, 0.116980985, 0.42891613
179, 329493237, 0.89425933, -0.050497685, 0.116988234, 0.42902696
180, 329509904, 0.8942147, -0.05026237, 0.117312066, 0.4290593
181, 329526571, 0.8941985, -0.05010661, 0.11776855, 0.42898604
182, 329543238, 0.89429295, -0.050173428, 0.118094414, 0.42869172
183, 329559905, 0.8943562, -0.050348002, 0.11829602, 0.42848396
184, 329576572, 0.8943487, -0.05065283, 0.11838034, 0.4284403
185, 329593239, 0.89433765, -0.051281393, 0.11826141, 0.4284212
186, 329609906, 0.8943276, -0.052057195, 0.11816581, 0.428375
187, 329626573, 0.89413875, -0.052349433, 0.11846309, 0.42865148
188, 329643240, 0.8941237, -0.05225916, 0.11883915, 0.4285899
189, 329659907, 0.89409184, -0.05225183, 0.11893017, 0.4286319
190, 329676574, 0.8940829, -0.05199553, 0.11893694, 0.42867985
191, 329693241, 0.8940979, -0.051229965, 0.11925965, 0.4286508
192, 329709908, 0.89400345, -0.05073781, 0.11974198, 0.4287721
193, 329726575, 0.8939055, -0.051077336, 0.11989285, 0.4288937
194, 329743242, 0.89399374, -0.051325735, 0.119749345, 0.4287204
195, 329759909, 0.8939377, -0.050783645, 0.11969951, 0.42891556
196, 329776576, 0.8939454, -0.04991468, 0.11980698, 0.42897162
197, 329793243, 0.8938546, -0.04971566, 0.119642384, 0.42922947
198, 329809910, 0.8939263, -0.050037168, 0.1194704, 0.42909086
199, 329826577, 0.89375615, -0.050630704, 0.119614944, 0.42933527
200, 329843244, 0.8937329, -0.051354825, 0.11991711, 0.42921343
201, 329859911, 0.8938781, -0.05215458, 0.12011145, 0.4287604
202, 329876578, 0.893859, -0.052376963, 0.12030816, 0.42871755
203, 329893245, 0.8939688, -0.05194724, 0.12072824, 0.42842275
204, 329909912, 0.8940362, -0.051964253, 0.12103662, 0.42819306
205, 329926579, 0.8940526, -0.05280423, 0.12086072, 0.4281058
206, 329943246, 0.8940462, -0.053538404, 0.12071314, 0.42806986
207, 329959913, 0.89400184, -0.05326867, 0.12108852, 0.42808962
208, 329976580, 0.89403737, -0.052385557, 0.12166991, 0.42796007
209, 329993247, 0.89407825, -0.05186129, 0.1219219, 0.42786616
210, 330009914, 0.89404786, -0.052052807, 0.12195521, 0.42789698
211, 330026581, 0.89400774, -0.052139923, 0.12224341, 0.42788792
212, 330043248, 0.89401233, -0.051845934, 0.12310907, 0.42766622
213, 330059915, 0.89391214, -0.051402222, 0.12421354, 0.42760944
214, 330076582, 0.893716, -0.050759625, 0.12551357, 0.4277166
215, 330093249, 0.89352334, -0.050087046, 0.12715329, 0.42771435
216, 330109916, 0.8933007, -0.049613096, 0.12913236, 0.42764157
217, 330126583, 0.8929315, -0.049983885, 0.13123502, 0.4277294
218, 330143250, 0.8924619, -0.050798405, 0.13345768, 0.427926
219, 330159917, 0.8921056, -0.052025706, 0.13584454, 0.4277704
220, 330176584, 0.8915431, -0.05458347, 0.13811071, 0.4278987
221, 330193251, 0.89085823, -0.058259767, 0.1398994, 0.42825902
222, 330209918, 0.89018536, -0.06170738, 0.14180043, 0.42854968
223, 330226585, 0.88991255, -0.06452311, 0.14449017, 0.4278028
224, 330243252, 0.88961077, -0.06764127, 0.14747897, 0.4269279
225, 330259919, 0.88857514, -0.071503, 0.15018988, 0.4275096
226, 330276586, 0.8876756, -0.0748543, 0.15312462, 0.42776397
227, 330293253, 0.8866818, -0.07769307, 0.1567712, 0.4279978
228, 330309920, 0.8855871, -0.081123486, 0.1608842, 0.4281014
229, 330326587, 0.8844484, -0.085424736, 0.1645701, 0.42821795
230, 330343254, 0.8833363, -0.08893322, 0.16824344, 0.42837146
231, 330359921, 0.88230157, -0.09074388, 0.17268066, 0.42835858
232, 330376588, 0.8811334, -0.092188716, 0.17798525, 0.42828363
233, 330393255, 0.87981176, -0.09433441, 0.18339363, 0.42825145
234, 330409922, 0.87846076, -0.09631782, 0.1887882, 0.42823896
235, 330426589, 0.87709755, -0.096909285, 0.19477826, 0.42821702
236, 330443256, 0.87549627, -0.09595861, 0.20223734, 0.4282504
237, 330459923, 0.87360364, -0.09466292, 0.21115007, 0.4281021
238, 330476590, 0.87175536, -0.09371, 0.22027895, 0.42747906
239, 330493257, 0.8700722, -0.094704516, 0.22848244, 0.4263818
240, 330509924, 0.86802864, -0.10083646, 0.23457469, 0.42583257
241, 330526591, 0.86553323, -0.10987219, 0.23839262, 0.42655557
242, 330543258, 0.8630238, -0.11757961, 0.24187694, 0.42762184
243, 330559925, 0.8608652, -0.12190762, 0.24699613, 0.42783496
244, 330576592, 0.85857546, -0.1250125, 0.25338387, 0.42780468
245, 330593259, 0.8561746, -0.12925163, 0.25934297, 0.42778546
246, 330609926, 0.85378724, -0.13424018, 0.2642494, 0.4280178
247, 330626593, 0.8516676, -0.13795415, 0.2691978, 0.42797616
248, 330643260, 0.8495626, -0.14051837, 0.2748163, 0.4277547
249, 330659927, 0.8473111, -0.1429871, 0.2809673, 0.42740625
250, 330676594, 0.84498656, -0.14557652, 0.2870696, 0.4270792
251, 330693261, 0.84266955, -0.14862403, 0.29237348, 0.427009
252, 330709928, 0.8404062, -0.15124738, 0.29755527, 0.4269692
253, 330726595, 0.837866, -0.1529643, 0.3042374, 0.42664078
254, 330743262, 0.8351942, -0.15386246, 0.31234196, 0.42569926
255, 330759929, 0.83262205, -0.154699, 0.32041684, 0.4244311
256, 330776596, 0.8300997, -0.15623139, 0.32781157, 0.4231619
257, 330793263, 0.82755125, -0.15827793, 0.33488825, 0.42184973
258, 330809930, 0.82500297, -0.16056463, 0.34169582, 0.42051533
259, 330826597, 0.82232213, -0.16369466, 0.34809783, 0.41930693
260, 330843264, 0.81947255, -0.16716261, 0.35464033, 0.4180333
261, 330859931, 0.81643134, -0.17083073, 0.36142743, 0.4166859
262, 330876598, 0.8134296, -0.17417783, 0.36789715, 0.4155071
263, 330893265, 0.81051904, -0.1771673, 0.37388733, 0.41458288
264, 330909932, 0.80769396, -0.17951748, 0.37986922, 0.41364652
265, 330926599, 0.80473524, -0.18161218, 0.38631508, 0.41252747
266, 330943266, 0.8016801, -0.18349388, 0.39309534, 0.4112359
267, 330959933, 0.7986285, -0.18441261, 0.4004094, 0.40970388
268, 330976600, 0.79561746, -0.18518983, 0.40796098, 0.40775666
269, 330993267, 0.79266405, -0.18750857, 0.4142217, 0.40613386
270, 331009934, 0.78963405, -0.19179289, 0.41912714, 0.40500128
271, 331026601, 0.78653187, -0.1964113, 0.42364854, 0.40411928
272, 331043268, 0.7834734, -0.19975187, 0.42886353, 0.40292078
273, 331059935, 0.78022325, -0.20250428, 0.43476713, 0.40152395
274, 331076602, 0.77681744, -0.20582546, 0.44027483, 0.40043595
275, 331093269, 0.77311635, -0.2107754, 0.44454306, 0.4003081
276, 331109936, 0.7690645, -0.21711044, 0.44772363, 0.4011815
277, 331126603, 0.76489985, -0.22319052, 0.45084456, 0.40231025
278, 331143270, 0.7608008, -0.22819434, 0.45491976, 0.40268803
279, 331159937, 0.75663316, -0.23295118, 0.46006986, 0.4019651
280, 331176604, 0.75217444, -0.23867534, 0.46525487, 0.40100616
281, 331193271, 0.7474624, -0.24547878, 0.46978998, 0.4004217
282, 331209938, 0.74273473, -0.25270873, 0.47360963, 0.40022165
283, 331226605, 0.73817444, -0.25924963, 0.47741053, 0.39995936
284, 331243272, 0.73395276, -0.26488718, 0.48150644, 0.39912373
285, 331259939, 0.72997487, -0.27019233, 0.4856648, 0.3978223
286, 331276606, 0.72618014, -0.27516934, 0.48985952, 0.39620954
287, 331293273, 0.72232604, -0.27979517, 0.4940494, 0.3948104
288, 331309940, 0.7179131, -0.2845711, 0.49858874, 0.39373794
289, 331326607, 0.7131183, -0.2894478, 0.50333613, 0.39285487
290, 331343274, 0.7084352, -0.29394507, 0.5080496, 0.3919202
291, 331359941, 0.70423985, -0.2975434, 0.51269996, 0.39070827
292, 331376608, 0.70045525, -0.30011106, 0.51776105, 0.38886946
293, 331393275, 0.69668436, -0.3013211, 0.52392805, 0.3864405
294, 331409942, 0.6925136, -0.30209753, 0.53104997, 0.3835986
295, 331426609, 0.6883828, -0.30307555, 0.5377699, 0.38089123
296, 331443276, 0.6843272, -0.304375, 0.5436557, 0.37880173
297, 331459943, 0.6802999, -0.305567, 0.54924536, 0.37702852
298, 331476610, 0.6762875, -0.30581078, 0.55549324, 0.37489003
299, 331493277, 0.6724057, -0.30518022, 0.5625128, 0.37190735
300, 331509944, 0.6686113, -0.30420154, 0.56988615, 0.3683072
301, 331526611, 0.6648046, -0.30341917, 0.57727367, 0.3643169
302, 331543278, 0.6609042, -0.30386305, 0.5836891, 0.3608045
303, 331559945, 0.65679663, -0.30604258, 0.5887182, 0.35828388
304, 331576612, 0.6524686, -0.3092195, 0.59310484, 0.35622334
305, 331593279, 0.64806587, -0.3125478, 0.5974904, 0.3540194
306, 331609946, 0.6435245, -0.31577468, 0.60211045, 0.3516043
307, 331626613, 0.63904124, -0.31889474, 0.6065825, 0.34927085
308, 331643280, 0.63467795, -0.32198894, 0.6108931, 0.346867
309, 331659947, 0.63028467, -0.32506433, 0.6151644, 0.3444521
310, 331676614, 0.62571716, -0.3282856, 0.61940175, 0.34212318
311, 331693281, 0.6207585, -0.33244, 0.62286454, 0.34085536
312, 331709948, 0.6155413, -0.33832866, 0.6244122, 0.3416902
313, 331726615, 0.6102974, -0.3442897, 0.6253465, 0.34342936
314, 331743282, 0.6052506, -0.3490982, 0.6273025, 0.34393862
315, 331759949, 0.60025907, -0.35256281, 0.6305855, 0.34314817
316, 331776616, 0.5959077, -0.35490957, 0.6345625, 0.34097448
317, 331793283, 0.592521, -0.35592338, 0.63896847, 0.33757487
318, 331809950, 0.5895333, -0.35677755, 0.64300317, 0.33422643
319, 331826617, 0.5861506, -0.35863337, 0.6459744, 0.33245584
320, 331843284, 0.5829298, -0.36144108, 0.64751184, 0.3320869
321, 331859951, 0.58057594, -0.36361468, 0.648493, 0.33192337
322, 331876618, 0.5787369, -0.36491472, 0.65003306, 0.33069316
323, 331893285, 0.57669365, -0.36541155, 0.6527757, 0.328303
324, 331909952, 0.57464015, -0.3650959, 0.6565378, 0.32473361
325, 331926619, 0.5735656, -0.36293432, 0.6609192, 0.32013622
326, 331943286, 0.5733004, -0.35952735, 0.66566247, 0.3145796
327, 331959953, 0.5732747, -0.35689488, 0.6692083, 0.31006917
328, 331976620, 0.5725642, -0.3561367, 0.6707711, 0.30887422
329, 331993287, 0.5710299, -0.35691932, 0.671046, 0.31021097
330, 332009954, 0.56972766, -0.35777634, 0.67091525, 0.3118964
331, 332026621, 0.5691718, -0.357538, 0.6710574, 0.31287727
332, 332043288, 0.5692163, -0.3563687, 0.671929, 0.31225896
333, 332059955, 0.5695204, -0.35434172, 0.67363787, 0.31032336
334, 332076622, 0.56998855, -0.35189286, 0.67578095, 0.3075792
335, 332093289, 0.5703011, -0.3496398, 0.6779451, 0.30479392
336, 332109956, 0.5705142, -0.34748483, 0.6801288, 0.30198163
337, 332126623, 0.5707216, -0.34535262, 0.68223965, 0.29926163
338, 332143290, 0.5707489, -0.34337637, 0.6841786, 0.29704913
339, 332159957, 0.5703498, -0.34206593, 0.6858703, 0.295422
340, 332176624, 0.57002354, -0.34112155, 0.68707997, 0.29433066
341, 332193291, 0.5703141, -0.34016782, 0.6877167, 0.29338285
342, 332209958, 0.5709852, -0.33933115, 0.68793005, 0.29254538
343, 332226625, 0.57149607, -0.3388184, 0.68800414, 0.29196694
344, 332243292, 0.5718035, -0.3385497, 0.68797547, 0.29174408
345, 332259959, 0.5719964, -0.3385204, 0.6878177, 0.29177204
346, 332276626, 0.572168, -0.3386676, 0.68755996, 0.29187196
347, 332293293, 0.57231027, -0.33878946, 0.6873182, 0.29202124
348, 332309960, 0.5724675, -0.33884332, 0.6871388, 0.29207295
349, 332326627, 0.57270855, -0.33879945, 0.68692183, 0.29216167
350, 332343294, 0.57310843, -0.3384324, 0.68673545, 0.2922412
351, 332359961, 0.5736309, -0.33781224, 0.6865877, 0.2922807
352, 332376628, 0.57404625, -0.33727542, 0.6864378, 0.29243752
353, 332393295, 0.57419044, -0.33684966, 0.68636924, 0.29280564
354, 332409962, 0.5743053, -0.33637714, 0.6864179, 0.29300934
355, 332426629, 0.5745846, -0.3358507, 0.6863676, 0.2931834
356, 332443296, 0.57484925, -0.33568683, 0.6861824, 0.29328537
357, 332459963, 0.57493037, -0.33602202, 0.6858216, 0.2935869
358, 332476630, 0.5748365, -0.33668885, 0.685301, 0.29422152
359, 332493297, 0.5746329, -0.33736035, 0.6847989, 0.29501805
360, 332509964, 0.5743705, -0.3378561, 0.68453705, 0.29556862
361, 332526631, 0.57409346, -0.33809412, 0.6845547, 0.29579443
362, 332543298, 0.57395, -0.33804587, 0.6846474, 0.29591277
363, 332559965, 0.57394445, -0.3378864, 0.6846359, 0.29613227
364, 332576632, 0.5738325, -0.3378414, 0.6845945, 0.29649603
365, 332593299, 0.57368034, -0.33801275, 0.68454576, 0.29670775
366, 332609966, 0.57360375, -0.33797696, 0.6845972, 0.2967779
367, 332626633, 0.57384276, -0.3372474, 0.68497294, 0.2962786
368, 332643300, 0.57436126, -0.3362331, 0.6854403, 0.29534465
369, 332659967, 0.57480437, -0.33544785, 0.6857944, 0.29455188
370, 332676634, 0.5750091, -0.3351363, 0.68587834, 0.29431158
371, 332693301, 0.5749213, -0.3352772, 0.6857591, 0.29459998
372, 332709968, 0.57476115, -0.3356203, 0.6855671, 0.29496858
373, 332726635, 0.5747633, -0.33573243, 0.6854591, 0.29508787
374, 332743302, 0.57491016, -0.3354358, 0.6855804, 0.294857
375, 332759969, 0.5752069, -0.33481723, 0.6858656, 0.29431778
376, 332776636, 0.575388, -0.3343468, 0.68612695, 0.29388896
377, 332793303, 0.575396, -0.33421835, 0.68631095, 0.29358965
378, 332809970, 0.57522285, -0.33429703, 0.6865741, 0.29322395
379, 332826637, 0.57543653, -0.33411378, 0.68666774, 0.29279426
380, 332843304, 0.57624507, -0.33330402, 0.6864168, 0.29271486
381, 332859971, 0.57756364, -0.3322691, 0.6856274, 0.29314283
382, 332876638, 0.5787528, -0.33173576, 0.68456554, 0.29388195
383, 332893305, 0.57981956, -0.33128446, 0.68347555, 0.2948241
384, 332909972, 0.5813081, -0.33043137, 0.6822095, 0.29578105
385, 332926639, 0.58351374, -0.32914403, 0.68052864, 0.29674363
386, 332943306, 0.58630633, -0.32761914, 0.6783551, 0.29790127
387, 332959973, 0.5897386, -0.32591727, 0.6757821, 0.29883963
388, 332976640, 0.5938759, -0.3239092, 0.6728982, 0.29933664
389, 332993307, 0.5985952, -0.3217195, 0.66948277, 0.29995555
390, 333009974, 0.60386884, -0.3190061, 0.6655191, 0.3011011
391, 333026641, 0.6096337, -0.31568, 0.66099805, 0.3029428
392, 333043308, 0.6157438, -0.31208348, 0.6558711, 0.3054451
393, 333059975, 0.6220207, -0.3084797, 0.65027297, 0.30834377
394, 333076642, 0.62835264, -0.30492398, 0.6442902, 0.3115842
395, 333093309, 0.63473374, -0.3010258, 0.6381737, 0.31500956
396, 333109976, 0.64151776, -0.29569262, 0.63220894, 0.31832802
397, 333126643, 0.6488869, -0.28856316, 0.6264265, 0.32135174
398, 333143310, 0.6566701, -0.2804, 0.62047815, 0.32429478
399, 333159977, 0.66437745, -0.2721361, 0.6141581, 0.32765022
400, 333176644, 0.6717551, -0.26403296, 0.6076205, 0.3314048
401, 333193311, 0.67889684, -0.2558379, 0.6010459, 0.3352463
402, 333209978, 0.6858877, -0.24732618, 0.5945071, 0.3390418
403, 333226645, 0.6927795, -0.2382843, 0.5879748, 0.3428747
404, 333243312, 0.69956136, -0.22902311, 0.58126587, 0.3468316
405, 333259979, 0.7062116, -0.21986324, 0.5742375, 0.35096547
406, 333276646, 0.712574, -0.21108261, 0.5668944, 0.35540593
407, 333293313, 0.71845853, -0.20298304, 0.5592531, 0.36034903
408, 333309980, 0.72378725, -0.19563985, 0.5515353, 0.36560354
409, 333326647, 0.7288863, -0.18899362, 0.54357165, 0.37085876
410, 333343314, 0.7340181, -0.18260123, 0.5351024, 0.3762177
411, 333359981, 0.73945725, -0.17570269, 0.5263236, 0.38120234
412, 333376648, 0.7447496, -0.16843583, 0.5177325, 0.38591546
413, 333393315, 0.7497466, -0.16101272, 0.5094719, 0.39037585
414, 333409982, 0.7545579, -0.15407035, 0.50120926, 0.39458123
415, 333426649, 0.75923175, -0.14748527, 0.49281427, 0.398685
416, 333443316, 0.763781, -0.14086427, 0.48460808, 0.40243128
417, 333459983, 0.7681939, -0.13472655, 0.47644442, 0.4058667
418, 333476650, 0.77250373, -0.12933578, 0.46777147, 0.40951237
419, 333493317, 0.77696735, -0.12423179, 0.45837733, 0.41325384
420, 333509984, 0.7814729, -0.11895747, 0.44862887, 0.41699076
421, 333526651, 0.7858377, -0.11316975, 0.43938774, 0.4202265
422, 333543318, 0.78989744, -0.10684053, 0.43096116, 0.42298928
423, 333559985, 0.7936206, -0.09975292, 0.42328313, 0.42549625
424, 333576652, 0.7971229, -0.09187974, 0.41616094, 0.4277422
425, 333593319, 0.80044025, -0.0838432, 0.4093205, 0.4297936
426, 333609986, 0.80367744, -0.076357424, 0.40248752, 0.43159708
427, 333626653, 0.80669063, -0.069634594, 0.39592433, 0.4331803
428, 333643320, 0.8093012, -0.06296565, 0.39036185, 0.43437845
429, 333659987, 0.81148756, -0.055516098, 0.3861759, 0.4350565
430, 333676654, 0.8136353, -0.047588516, 0.38202175, 0.43565184
431, 333693321, 0.8160866, -0.041105554, 0.3764539, 0.43657258
432, 333709988, 0.8187895, -0.036239825, 0.36920843, 0.43812752
433, 333726655, 0.8215704, -0.031884775, 0.36130205, 0.43984818
434, 333743322, 0.82418776, -0.026860949, 0.3538043, 0.4413793
435, 333759989, 0.826583, -0.020714287, 0.3469754, 0.44265047
436, 333776656, 0.8286516, -0.014394867, 0.3407883, 0.4438384
437, 333793323, 0.8305014, -0.008537536, 0.334709, 0.445157
438, 333809990, 0.8322487, -0.0027635181, 0.32876673, 0.44639328
439, 333826657, 0.8339775, 0.0029623634, 0.32291222, 0.44743767
440, 333843324, 0.83577514, 0.008100204, 0.31664532, 0.44849777
441, 333859991, 0.8375839, 0.011943584, 0.30989924, 0.44974807
442, 333876658, 0.83903736, 0.015769025, 0.30351254, 0.45127362
443, 333893325, 0.84016603, 0.020574287, 0.29782346, 0.45276845
444, 333909992, 0.84112895, 0.026183337, 0.2927959, 0.4539683
445, 333926659, 0.8421494, 0.031870306, 0.28785753, 0.4548702
446, 333943326, 0.8433149, 0.03793749, 0.2823363, 0.45570502
447, 333959993, 0.8442135, 0.042498395, 0.27709055, 0.456857
448, 333976660, 0.84496754, 0.047418807, 0.2725122, 0.45773208
449, 333993327, 0.8458061, 0.05166483, 0.26776922, 0.4585222
450, 334009994, 0.8466614, 0.055396546, 0.2629269, 0.4593096
451, 334026661, 0.84735906, 0.05947084, 0.25823843, 0.46017265
452, 334043328, 0.84784126, 0.06399884, 0.25406364, 0.4610002
453, 334059995, 0.84829503, 0.06816991, 0.24985187, 0.46186855
454, 334076662, 0.8488716, 0.071139395, 0.24593471, 0.4624636
455, 334093329, 0.84971464, 0.07324181, 0.241557, 0.46289402
456, 334109996, 0.8505709, 0.07566954, 0.23722209, 0.46317264
457, 334126663, 0.8515963, 0.07779652, 0.23261195, 0.46327466
458, 334143330, 0.85283697, 0.078680634, 0.2279285, 0.463171
459, 334159997, 0.8543384, 0.078187935, 0.2229583, 0.46290642
460, 334176664, 0.8556755, 0.07779963, 0.21805727, 0.46283647
461, 334193331, 0.8567645, 0.0776805, 0.21332416, 0.46304798
462, 334209998, 0.8576398, 0.0777036, 0.20920436, 0.46330297
463, 334226665, 0.85843635, 0.07739914, 0.20517601, 0.46367994
464, 334243332, 0.85896903, 0.07733255, 0.20132773, 0.46439126
465, 334259999, 0.8594207, 0.07773304, 0.1975548, 0.4651083
466, 334276666, 0.8598098, 0.07846582, 0.1941668, 0.46569243
467, 334293333, 0.86025697, 0.07894559, 0.19116673, 0.46602657
468, 334310000, 0.86075574, 0.079303004, 0.1881122, 0.4662879
469, 334326667, 0.86125, 0.07941759, 0.18587449, 0.46625325
470, 334343334, 0.86179256, 0.078851454, 0.18430193, 0.4659711
471, 334360001, 0.86261046, 0.077353954, 0.18245895, 0.46543387
472, 334376668, 0.8636579, 0.07541856, 0.18039545, 0.4646125
473, 334393335, 0.86470085, 0.07414034, 0.17893547, 0.4634414
474, 334410002, 0.8654549, 0.075184576, 0.1785049, 0.46202937
475, 334426669, 0.86603427, 0.077475846, 0.17862895, 0.4605148
476, 334443336, 0.86656076, 0.07917044, 0.1787618, 0.4591826
477, 334460003, 0.8669978, 0.0799565, 0.17881556, 0.45819977
478, 334476670, 0.86739355, 0.07965099, 0.17877313, 0.4575198
479, 334493337, 0.8678243, 0.07818154, 0.17851916, 0.45705548
480, 334510004, 0.86822593, 0.07623706, 0.17805615, 0.45680177
481, 334526671, 0.8683814, 0.07495192, 0.17741491, 0.4569685
482, 334543338, 0.86852545, 0.07356465, 0.17675921, 0.4571741
483, 334560005, 0.86874527, 0.07153238, 0.17593907, 0.45739537
484, 334576672, 0.86900127, 0.06988793, 0.17500289, 0.45752218
485, 334593339, 0.86914665, 0.068702936, 0.17447925, 0.45762548
486, 334610006, 0.8693031, 0.06752598, 0.17418364, 0.45761615
487, 334626673, 0.86976224, 0.065583356, 0.17386599, 0.4571471
488, 334643340, 0.8704464, 0.0630398, 0.17341626, 0.4563726
489, 334660007, 0.87097144, 0.061081838, 0.17287661, 0.4558416
490, 334676674, 0.8712906, 0.059968922, 0.17242992, 0.4555486
491, 334693341, 0.8714048, 0.059213858, 0.17213538, 0.45554036
492, 334710008, 0.87140256, 0.058556873, 0.17219543, 0.45560685
493, 334726675, 0.871229, 0.05835995, 0.1725669, 0.4558234
494, 334743342, 0.8709439, 0.058300544, 0.17263982, 0.45634782
495, 334760009, 0.8707539, 0.057976447, 0.17288783, 0.456658
496, 334776676, 0.87079424, 0.056842078, 0.17280246, 0.45675588
497, 334793343, 0.8707565, 0.056243014, 0.17302057, 0.4568191
498, 334810010, 0.87058955, 0.056603853, 0.17373116, 0.4568233
499, 334826677, 0.8704199, 0.056980796, 0.17441255, 0.45684016
500, 334843344, 0.870489, 0.056703627, 0.174531, 0.45669743
501, 334860011, 0.87067956, 0.056348983, 0.17433634, 0.4564524
502, 334876678, 0.87080467, 0.056221236, 0.17449006, 0.4561706
503, 334893345, 0.87093633, 0.055626117, 0.1748372, 0.45585915
504, 334910012, 0.87106204, 0.054446038, 0.17487648, 0.4557463
505, 334926679, 0.8710422, 0.05410636, 0.1751148, 0.45573357
506, 334943346, 0.87088203, 0.05503033, 0.1755661, 0.45575514
507, 334960013, 0.87074935, 0.056170743, 0.17594855, 0.45572212
508, 334976680, 0.87086004, 0.056062937, 0.1758676, 0.45555532
509, 334993347, 0.87108886, 0.05517504, 0.175404, 0.45540455
510, 335010014, 0.8712231, 0.054856956, 0.17492716, 0.45536986
511, 335026681, 0.8711585, 0.055441577, 0.17472114, 0.45550188
512, 335043348, 0.87112784, 0.055955388, 0.17466486, 0.45551902
513, 335060015, 0.8712384, 0.055718772, 0.17456913, 0.45537314
514, 335076682, 0.8713922, 0.055244867, 0.17416951, 0.4552895
515, 335093349, 0.87145716, 0.05525683, 0.17403601, 0.45521483
516, 335110016, 0.8714357, 0.055815704, 0.17417943, 0.45513314
517, 335126683, 0.87145054, 0.05608611, 0.17429076, 0.4550289
518, 335143350, 0.8715451, 0.055759836, 0.17388333, 0.4550436
519, 335160017, 0.871597, 0.05574967, 0.17344819, 0.45511174
520, 335176684, 0.8714948, 0.055919208, 0.17329025, 0.45534635
521, 335193351, 0.8714302, 0.055663645, 0.1732829, 0.45550412
522, 335210018, 0.8715062, 0.054807737, 0.17282222, 0.45563754
523, 335226685, 0.871624, 0.053994294, 0.17211665, 0.4557763
524, 335243352, 0.87164557, 0.05366748, 0.1716978, 0.45593187
525, 335260019, 0.8716144, 0.05375472, 0.17170058, 0.45597997
526, 335276686, 0.8716905, 0.05357429, 0.17165396, 0.45587352
527, 335293353, 0.8719096, 0.052784957, 0.17123722, 0.45570308
528, 335310020, 0.8720251, 0.05199526, 0.17092635, 0.45568976
529, 335326687, 0.8719599, 0.051851124, 0.1710682, 0.45577767
530, 335343354, 0.8718312, 0.05209508, 0.1713959, 0.45587298
531, 335360021, 0.87179756, 0.051769063, 0.17141059, 0.4559686
532, 335376688, 0.87180287, 0.05105455, 0.17133929, 0.45606592
533, 335393355, 0.8718006, 0.05062128, 0.17155176, 0.456039
534, 335410022, 0.87172073, 0.050466258, 0.17203899, 0.45602515
535, 335426689, 0.871632, 0.050182953, 0.17241824, 0.45608246
536, 335443356, 0.8715209, 0.049652014, 0.17268698, 0.4562512
537, 335460023, 0.8713524, 0.049305484, 0.17325468, 0.4563957
538, 335476690, 0.8712087, 0.049168866, 0.17397518, 0.45641044
539, 335493357, 0.871098, 0.04862063, 0.17459555, 0.45644376
540, 335510024, 0.8710353, 0.04746073, 0.17501356, 0.45652542
541, 335526691, 0.8708279, 0.046627015, 0.17559774, 0.45678273
542, 335543358, 0.8704502, 0.046348564, 0.17666173, 0.45712045
543, 335560025, 0.87003636, 0.0459353, 0.17799732, 0.45743188
544, 335576692, 0.86969733, 0.045007706, 0.17932698, 0.4576492
545, 335593359, 0.8693785, 0.043756362, 0.18053798, 0.45790035
546, 335610026, 0.8690206, 0.042743772, 0.18200426, 0.45809463
547, 335626693, 0.86854726, 0.04186386, 0.1839378, 0.45830113
548, 335643360, 0.8679889, 0.040465727, 0.18654779, 0.45843002
549, 335660027, 0.86741984, 0.038602185, 0.18928659, 0.45854494
550, 335676694, 0.86683166, 0.036444265, 0.19200163, 0.458705
551, 335693361, 0.8662494, 0.034132186, 0.19483043, 0.4587898
552, 335710028, 0.86574715, 0.03109417, 0.19772013, 0.45871764
553, 335726695, 0.86520994, 0.027687049, 0.20056856, 0.45871302
554, 335743362, 0.8644946, 0.02459728, 0.20391963, 0.4587602
555, 335760029, 0.86363035, 0.022042006, 0.20795907, 0.45870447
556, 335776696, 0.8628229, 0.018765979, 0.21237276, 0.45834753
557, 335793363, 0.8618867, 0.015389333, 0.2171475, 0.4579974
558, 335810030, 0.8606748, 0.012574627, 0.22280692, 0.4576441
559, 335826697, 0.8592259, 0.00982111, 0.22931291, 0.45721996
560, 335843364, 0.857957, 0.005643877, 0.23580812, 0.456369
561, 335860031, 0.8569265, 1.9664026E-4, 0.24127936, 0.4554794
562, 335876698, 0.8558475, -0.0053857043, 0.24622372, 0.45482963
563, 335893365, 0.8543519, -0.010744835, 0.25210097, 0.45432645
564, 335910032, 0.85252404, -0.015779382, 0.25936544, 0.4535233
565, 335926699, 0.85073894, -0.021086661, 0.2668146, 0.45233676
566, 335943366, 0.84907794, -0.027102707, 0.27338094, 0.45121527
567, 335960033, 0.84737146, -0.033644844, 0.2794028, 0.45029303
568, 335976700, 0.8456051, -0.0396236, 0.28603345, 0.44896233
569, 335993367, 0.8436617, -0.044746064, 0.2935223, 0.4473002
570, 336010034, 0.8416344, -0.049497884, 0.30107403, 0.44559625
571, 336026701, 0.8395508, -0.055580616, 0.30840674, 0.4437913
572, 336043368, 0.8372077, -0.06358327, 0.31519228, 0.4423737
573, 336060035, 0.83464557, -0.07084274, 0.32214195, 0.44110402
574, 336076702, 0.8321345, -0.0755122, 0.32970464, 0.43948284
575, 336093369, 0.8297137, -0.07890338, 0.3376219, 0.43744835
576, 336110036, 0.82710016, -0.084560685, 0.34527165, 0.43536466
577, 336126703, 0.82422554, -0.092254065, 0.352291, 0.4336273
578, 336143370, 0.8212425, -0.09929533, 0.35944754, 0.43185508
579, 336160037, 0.81833667, -0.10434738, 0.36716372, 0.4296834
580, 336176704, 0.81545407, -0.109635554, 0.37476885, 0.42727414
581, 336193371, 0.81243604, -0.11725255, 0.3812202, 0.4252892
582, 336210038, 0.80915105, -0.1261603, 0.38700742, 0.4237733
583, 336226705, 0.8055893, -0.13385174, 0.39341742, 0.42229396
584, 336243372, 0.801814, -0.13980709, 0.40103593, 0.4203788
585, 336260039, 0.79794294, -0.14513114, 0.40898392, 0.41827753
586, 336276706, 0.7942025, -0.15061843, 0.4162929, 0.41624108
587, 336293373, 0.79045767, -0.15566903, 0.42339334, 0.41434515
588, 336310040, 0.7865905, -0.15965332, 0.43134797, 0.411977
589, 336326707, 0.78258157, -0.1632828, 0.44008306, 0.40893975
590, 336343374, 0.77868974, -0.16699696, 0.44845527, 0.4057613
591, 336360041, 0.7748906, -0.17145973, 0.45612374, 0.4026133
592, 336376708, 0.77093506, -0.17674096, 0.4632023, 0.3998322
593, 336393375, 0.766847, -0.18222488, 0.47030792, 0.3969261
594, 336410042, 0.7628286, -0.18728176, 0.47737786, 0.3938636
595, 336426709, 0.7588335, -0.19222485, 0.48418906, 0.39087364
596, 336443376, 0.7547927, -0.1972787, 0.49068892, 0.38806373
597, 336460043, 0.7507325, -0.2024839, 0.49707294, 0.3851227
598, 336476710, 0.7467414, -0.20701146, 0.5035446, 0.3820555
599, 336493377, 0.7426638, -0.21149525, 0.50998265, 0.37899607
600, 336510044, 0.73826593, -0.21677673, 0.51609236, 0.37632462
601, 336526711, 0.73369676, -0.22267376, 0.52169365, 0.37408748
602, 336543378, 0.7290799, -0.22875264, 0.5269422, 0.37208438
603, 336560045, 0.7246434, -0.23418324, 0.53214836, 0.36995703
604, 336576712, 0.7204232, -0.23892052, 0.5373094, 0.36770394
605, 336593379, 0.7160286, -0.24407679, 0.5422794, 0.36559913
606, 336610046, 0.7114615, -0.25013587, 0.5466829, 0.3638582
607, 336626713, 0.7071143, -0.25583845, 0.550677, 0.3623409
608, 336643380, 0.703276, -0.26028338, 0.55465597, 0.36057216
609, 336660047, 0.6998459, -0.26344547, 0.5586609, 0.35876247
610, 336676714, 0.696414, -0.26587158, 0.5628904, 0.3570358
611, 336693381, 0.69279814, -0.26882103, 0.5671818, 0.35506442
612, 336710048, 0.6891177, -0.2719323, 0.57151794, 0.35289803
613, 336726715, 0.68567586, -0.27429232, 0.5759891, 0.35049817
614, 336743382, 0.6826465, -0.27543435, 0.58059907, 0.34790003
615, 336760049, 0.67969626, -0.2757482, 0.5855483, 0.34512216
616, 336776716, 0.676441, -0.27621368, 0.590811, 0.34216398
617, 336793383, 0.6731386, -0.27713087, 0.5957928, 0.33928448
618, 336810050, 0.66993713, -0.27847365, 0.60017455, 0.33678967
619, 336826717, 0.66711867, -0.27967635, 0.6041233, 0.33431882
620, 336843384, 0.6647252, -0.2805138, 0.60791874, 0.33149225
621, 336860051, 0.66241175, -0.28142345, 0.61180043, 0.32819474
622, 336876718, 0.6596175, -0.28375944, 0.61555976, 0.32476375
623, 336893385, 0.6561965, -0.28818062, 0.61859685, 0.32201895
624, 336910052, 0.652378, -0.2936313, 0.62081766, 0.32057652
625, 336926719, 0.64829737, -0.29909503, 0.6226389, 0.3202709
626, 336943386, 0.6439929, -0.30423832, 0.6245182, 0.32045168
627, 336960053, 0.63993907, -0.3083091, 0.6267822, 0.32026196
628, 336976720, 0.63636994, -0.31076583, 0.6298593, 0.31895947
629, 336993387, 0.63333577, -0.31165516, 0.6337612, 0.3163915
630, 337010054, 0.6305005, -0.31177175, 0.6380879, 0.31322733
631, 337026721, 0.62750727, -0.31251416, 0.6421524, 0.31017733
632, 337043388, 0.6238692, -0.3155398, 0.6448529, 0.30884758
633, 337060055, 0.6197626, -0.3207146, 0.6458614, 0.30967695
634, 337076722, 0.61564696, -0.3259975, 0.6464457, 0.3111474
635, 337093389, 0.61173767, -0.32983604, 0.647906, 0.3117746
636, 337110056, 0.60816187, -0.33196566, 0.6502507, 0.31162798
637, 337126723, 0.6049422, -0.33308816, 0.65299255, 0.3109629
638, 337143390, 0.6017367, -0.3344183, 0.65544313, 0.31059894
639, 337160057, 0.59852916, -0.33626416, 0.6571179, 0.31126413
640, 337176724, 0.5952847, -0.3385979, 0.65823585, 0.31259114
641, 337193391, 0.59200025, -0.34131354, 0.6591933, 0.31385502
642, 337210058, 0.5885791, -0.34473252, 0.659905, 0.31505513
643, 337226725, 0.58499295, -0.34916303, 0.6598286, 0.31700912
644, 337243392, 0.5814958, -0.35408616, 0.6588424, 0.32001942
645, 337260059, 0.57843566, -0.35835046, 0.65770596, 0.32314104
646, 337276726, 0.57652456, -0.3605864, 0.6572955, 0.3248995
647, 337293393, 0.57601744, -0.36054036, 0.6578333, 0.32476142
648, 337310060, 0.57615924, -0.35905653, 0.6592501, 0.3232774
649, 337326727, 0.57626516, -0.35724333, 0.661114, 0.32128507
650, 337343394, 0.5761001, -0.355801, 0.66273946, 0.31982982
651, 337360061, 0.5757138, -0.35503104, 0.6637096, 0.3193687
652, 337376728, 0.5752259, -0.3551332, 0.6637756, 0.3199961
653, 337393395, 0.574708, -0.3561749, 0.66293997, 0.32149768
654, 337410062, 0.5741213, -0.35827556, 0.66121477, 0.32375658
655, 337426729, 0.57333386, -0.3607141, 0.6593096, 0.32631975
656, 337443396, 0.5724852, -0.36258665, 0.65802604, 0.32831952
657, 337460063, 0.57197976, -0.36316147, 0.6577359, 0.32914522
658, 337476730, 0.5719672, -0.36271012, 0.6580924, 0.32895175
659, 337493397, 0.57227427, -0.36174238, 0.6586627, 0.32834157
660, 337510064, 0.57270366, -0.36085966, 0.6590747, 0.3277368
661, 337526731, 0.5730503, -0.3601656, 0.65928084, 0.3274796
662, 337543398, 0.573078, -0.35977694, 0.659413, 0.32759222
663, 337560065, 0.5728043, -0.35975674, 0.6595228, 0.32787204
664, 337576732, 0.5724293, -0.35994938, 0.6595245, 0.32831165
665, 337593399, 0.5720918, -0.36024347, 0.6594651, 0.32869688
666, 337610066, 0.57171446, -0.3606934, 0.6593662, 0.32905784
667, 337626733, 0.57122004, -0.36125776, 0.65927374, 0.32948247
668, 337643400, 0.57083225, -0.3616596, 0.65916014, 0.3299411
669, 337660067, 0.5704998, -0.3619159, 0.6591765, 0.33020198
670, 337676734, 0.5702951, -0.3622322, 0.65925443, 0.33005306
671, 337693401, 0.5701263, -0.36270425, 0.6592103, 0.3299144
672, 337710068, 0.56993157, -0.36333907, 0.65894634, 0.3300799
673, 337726735, 0.56959224, -0.3642411, 0.65856797, 0.33042613
674, 337743402, 0.569067, -0.36544752, 0.6581028, 0.33092573
675, 337760069, 0.568352, -0.36691448, 0.6575332, 0.3316625
676, 337776736, 0.56762886, -0.36836156, 0.65695596, 0.3324399
677, 337793403, 0.56702524, -0.36944428, 0.6566089, 0.33295345
678, 337810070, 0.5667792, -0.3697773, 0.65676284, 0.33269924
679, 337826737, 0.5670384, -0.36929932, 0.65727526, 0.33177537
680, 337843404, 0.5674581, -0.36869812, 0.6577989, 0.33068696
681, 337860071, 0.5677949, -0.36851853, 0.6580458, 0.32981622
682, 337876738, 0.5678768, -0.3688477, 0.657941, 0.32951653
683, 337893405, 0.567868, -0.36940953, 0.65763134, 0.32952043
684, 337910072, 0.567893, -0.3698049, 0.65732944, 0.32963622
685, 337926739, 0.56805575, -0.36963564, 0.65732145, 0.32956162
686, 337943406, 0.56839246, -0.3690383, 0.65763825, 0.32901785
687, 337960073, 0.5686489, -0.36844724, 0.65801805, 0.32847747
688, 337976740, 0.56884164, -0.3679336, 0.6583031, 0.3281483
689, 337993407, 0.568947, -0.36758748, 0.65847373, 0.32801095
690, 338010074, 0.5690084, -0.36746854, 0.6584837, 0.32801795
691, 338026741, 0.5689944, -0.36775318, 0.6582717, 0.32814845
692, 338043408, 0.5689242, -0.3683512, 0.65792495, 0.32829505
693, 338060075, 0.5690319, -0.368956, 0.65750146, 0.32827768
694, 338076742, 0.5693794, -0.36943793, 0.6570036, 0.32812968
695, 338093409, 0.56985927, -0.36990175, 0.6563361, 0.3281101
696, 338110076, 0.5703172, -0.37049046, 0.65538466, 0.32855132
697, 338126743, 0.570749, -0.37114108, 0.6542601, 0.32930788
698, 338143410, 0.5711675, -0.37145457, 0.6532036, 0.33032498
699, 338160077, 0.57183874, -0.37074932, 0.6525831, 0.33118105
700, 338176744, 0.57283527, -0.36892462, 0.65255153, 0.33155882
701, 338193411, 0.57406634, -0.3662767, 0.6529253, 0.3316292
702, 338210078, 0.5753107, -0.36366412, 0.6532285, 0.3317509
703, 338226745, 0.57663065, -0.36146972, 0.65308005, 0.33214986
704, 338243412, 0.5781641, -0.35965493, 0.65234834, 0.33289093
705, 338260079, 0.5800343, -0.35763645, 0.6513935, 0.33368108
706, 338276746, 0.5821849, -0.35526496, 0.65065444, 0.33391097
707, 338293413, 0.5845234, -0.352582, 0.6501968, 0.33356073
708, 338310080, 0.587072, -0.35000342, 0.649623, 0.33291778
709, 338326747, 0.590235, -0.34741127, 0.6482559, 0.33270496
710, 338343414, 0.59388393, -0.34525663, 0.6457132, 0.33339843
711, 338360081, 0.59793407, -0.3434677, 0.64211076, 0.33496088
712, 338376748, 0.601925, -0.34232527, 0.6377492, 0.33730692
713, 338393415, 0.60612893, -0.34113532, 0.63289404, 0.34011704
714, 338410082, 0.6108265, -0.33934507, 0.62795424, 0.34265065
715, 338426749, 0.61648715, -0.33692783, 0.6227003, 0.34448183
716, 338443416, 0.62279654, -0.33427805, 0.61696476, 0.34603092
717, 338460083, 0.6291267, -0.33243668, 0.61023515, 0.3482796
718, 338476750, 0.63547003, -0.3309507, 0.602579, 0.35149413
719, 338493417, 0.6420963, -0.3287024, 0.59466314, 0.35502562
720, 338510084, 0.64976156, -0.3239457, 0.5875718, 0.3572516
721, 338526751, 0.6585018, -0.31672287, 0.58150524, 0.3576501
722, 338543418, 0.66758955, -0.3079792, 0.5758568, 0.3575779
723, 338560085, 0.6767764, -0.29852757, 0.5698918, 0.35788026
724, 338576752, 0.6859683, -0.28873, 0.5632646, 0.35890877
725, 338593419, 0.6951201, -0.27888927, 0.5558595, 0.3606233
726, 338610086, 0.7040941, -0.26962572, 0.5475802, 0.36291817
727, 338626753, 0.71290135, -0.26096973, 0.5385355, 0.36557627
728, 338643420, 0.7218822, -0.25151554, 0.5293534, 0.3679823
729, 338660087, 0.7309064, -0.24058503, 0.5207408, 0.3697619
730, 338676754, 0.7397887, -0.22857235, 0.5126903, 0.3709664
731, 338693421, 0.7482948, -0.21645795, 0.5047861, 0.37201098
732, 338710088, 0.7564571, -0.20465395, 0.49665874, 0.37312153
733, 338726755, 0.76440185, -0.19288301, 0.48832688, 0.37419665
734, 338743422, 0.7720876, -0.18121853, 0.4799058, 0.3751413
735, 338760089, 0.77943486, -0.17000681, 0.47154742, 0.3757952
736, 338776756, 0.786303, -0.15960574, 0.4631744, 0.37646148
737, 338793423, 0.79262805, -0.1501189, 0.4548431, 0.37725756
738, 338810090, 0.7985068, -0.14136751, 0.4463994, 0.3783249
739, 338826757, 0.8040518, -0.13340122, 0.43774047, 0.3795894
740, 338843424, 0.8093601, -0.1260265, 0.42888036, 0.38094
741, 338860091, 0.81446815, -0.11852331, 0.4201373, 0.38220248
742, 338876758, 0.8193602, -0.110194415, 0.4120182, 0.38307604
743, 338893425, 0.8239999, -0.10191901, 0.40453118, 0.38339487
744, 338910092, 0.8281142, -0.09540749, 0.39688143, 0.38419998
745, 338926759, 0.83189285, -0.090522654, 0.38880348, 0.38547638
746, 338943426, 0.83567244, -0.08667897, 0.3802381, 0.38672683
747, 338960093, 0.8396626, -0.08333712, 0.370847, 0.38793588
748, 338976760, 0.8436705, -0.081368215, 0.36073768, 0.38918895
749, 338993427, 0.84742165, -0.0800374, 0.3506206, 0.39055848
750, 339010094, 0.85081583, -0.07758975, 0.3414544, 0.39179248
751, 339026761, 0.8538522, -0.07321556, 0.33372384, 0.3926889
752, 339043428, 0.85657656, -0.06757655, 0.32713887, 0.39330697
753, 339060095, 0.8590809, -0.061778814, 0.32104924, 0.39381573
754, 339076762, 0.86163694, -0.05713885, 0.31454244, 0.39418274
755, 339093429, 0.86431545, -0.05372738, 0.30726916, 0.39453495
756, 339110096, 0.8668028, -0.05144197, 0.3002175, 0.39481136
757, 339126763, 0.8690802, -0.04931433, 0.2939849, 0.39476663
758, 339143430, 0.8711861, -0.0459886, 0.28848907, 0.39458102
759, 339160097, 0.8732664, -0.041174497, 0.28326458, 0.3942993
760, 339176764, 0.875439, -0.03585397, 0.2776198, 0.3940163
761, 339193431, 0.8775854, -0.031873252, 0.27150562, 0.39384347
762, 339210098, 0.8795189, -0.029118849, 0.26540795, 0.39390025
763, 339226765, 0.8811743, -0.025958927, 0.25980744, 0.39415506
764, 339243432, 0.88260555, -0.02182836, 0.25507006, 0.39429733
765, 339260099, 0.88388026, -0.017452948, 0.25064862, 0.39449537
766, 339276766, 0.8850508, -0.013872701, 0.24594344, 0.39497414
767, 339293433, 0.88605493, -0.01051681, 0.2409602, 0.39589673
768, 339310100, 0.8869179, -0.007011864, 0.23615664, 0.39693534
769, 339326767, 0.88772225, -0.0037012496, 0.23172349, 0.39779362
770, 339343434, 0.8884745, -8.628287E-4, 0.22739455, 0.39862776
771, 339360101, 0.88910335, 0.0013671528, 0.22323245, 0.39957598
772, 339376768, 0.8896025, 0.0038411675, 0.2194921, 0.40051976
773, 339393435, 0.8900566, 0.0069016847, 0.21617311, 0.40127423
774, 339410102, 0.89058733, 0.009598556, 0.21265456, 0.40192097
775, 339426769, 0.8912511, 0.01127616, 0.20849206, 0.40258598
776, 339443436, 0.89195096, 0.012228646, 0.20405483, 0.403281
777, 339460103, 0.89240116, 0.013647304, 0.19951461, 0.40450966
778, 339476770, 0.89276874, 0.014880705, 0.19521703, 0.40574974
779, 339493437, 0.89326096, 0.015131128, 0.19074392, 0.40678334
780, 339510104, 0.89377874, 0.015125186, 0.18627736, 0.407715
781, 339526771, 0.89421815, 0.015639603, 0.18229032, 0.4085335
782, 339543438, 0.8945959, 0.015727544, 0.1786058, 0.4093299
783, 339560105, 0.8952027, 0.0137986075, 0.17385222, 0.41011843
784, 339576772, 0.8959954, 0.010693869, 0.16791584, 0.41095296
785, 339593439, 0.89658856, 0.008225064, 0.16229258, 0.41197392
786, 339610106, 0.8966381, 0.007893506, 0.15897834, 0.41316316
787, 339626773, 0.8961222, 0.0094331335, 0.15803279, 0.41461048
788, 339643440, 0.8954303, 0.010868542, 0.15865411, 0.415831
789, 339660107, 0.8949075, 0.01088216, 0.1591896, 0.4167504
790, 339676774, 0.89446896, 0.010605754, 0.15937087, 0.41762865
791, 339693441, 0.8940598, 0.010765145, 0.1599746, 0.4182695
792, 339710108, 0.8937537, 0.010887278, 0.1612163, 0.41844356
793, 339726775, 0.8934549, 0.010773934, 0.16259083, 0.41855302
794, 339743442, 0.8931139, 0.010973529, 0.16378254, 0.41881096
795, 339760109, 0.8928277, 0.011469059, 0.1647874, 0.4190136
796, 339776776, 0.8926586, 0.01117696, 0.16531944, 0.41917235
797, 339793443, 0.8925679, 0.0099929795, 0.16537851, 0.4193718
798, 339810110, 0.89253753, 0.008444484, 0.16522664, 0.41953033
799, 339826777, 0.8923755, 0.007462575, 0.16516978, 0.41991594
800, 339843444, 0.8920558, 0.0074287574, 0.16553697, 0.42045087
801, 339860111, 0.89175797, 0.0073297997, 0.16602182, 0.4208929
802, 339876778, 0.89152986, 0.0070228805, 0.1662242, 0.42130134
803, 339893445, 0.8913026, 0.006867505, 0.1664789, 0.42168403
804, 339910112, 0.89102685, 0.0071474477, 0.16695751, 0.422073
805, 339926779, 0.89079577, 0.00701951, 0.16745482, 0.42236558
806, 339943446, 0.8906715, 0.0060890648, 0.16781753, 0.42249835
807, 339960113, 0.8906443, 0.0045381314, 0.167943, 0.42252463
808, 339976780, 0.89062154, 0.0029436618, 0.16789414, 0.42260635
809, 339993447, 0.8905378, 0.0014917733, 0.1676741, 0.422878
810, 340010114, 0.89032733, 2.4372427E-4, 0.16754107, 0.42337638
811, 340026781, 0.8900641, -8.3417754E-4, 0.16764334, 0.4238875
812, 340043448, 0.8898978, -0.0018974517, 0.16789304, 0.4241348
813, 340060115, 0.889901, -0.0034427673, 0.1677406, 0.42417878
814, 340076782, 0.88993204, -0.005105724, 0.1671928, 0.424313
815, 340093449, 0.88990104, -0.006764424, 0.16672269, 0.42453977
816, 340110116, 0.88988554, -0.008208389, 0.16654639, 0.4246161
817, 340126783, 0.88991314, -0.009549467, 0.16651914, 0.42454097
818, 340143450, 0.8900551, -0.010910384, 0.16657208, 0.4241899
819, 340160117, 0.89015377, -0.012146345, 0.16646263, 0.42399198
820, 340176784, 0.8902791, -0.0131923985, 0.16664584, 0.42362535
821, 340193451, 0.89047724, -0.014457012, 0.16652669, 0.42321464
822, 340210118, 0.8907223, -0.015591583, 0.16619407, 0.42278895
823, 340226785, 0.89097595, -0.016086297, 0.1660222, 0.42230317
824, 340243452, 0.8912186, -0.016310949, 0.16616154, 0.4217269
825, 340260119, 0.89144254, -0.016852671, 0.16610041, 0.42125648
826, 340276786, 0.89163905, -0.017652055, 0.16577442, 0.42093623
827, 340293453, 0.8917957, -0.018143924, 0.16549844, 0.42069197
828, 340310120, 0.891938, -0.01846519, 0.16531172, 0.42044932
829, 340326787, 0.89209306, -0.018911578, 0.16500668, 0.42022035
830, 340343454, 0.89222807, -0.019297846, 0.16461852, 0.4200683
831, 340360121, 0.89227384, -0.019116981, 0.16452809, 0.4200149
832, 340376788, 0.892291, -0.018480359, 0.16486913, 0.41987333
833, 340393455, 0.8923691, -0.01832805, 0.16491614, 0.41969526
834, 340410122, 0.89251983, -0.018621635, 0.1648267, 0.41939703
835, 340426789, 0.8926436, -0.018950813, 0.16497229, 0.41906145
836, 340443456, 0.89268, -0.019208265, 0.16536766, 0.41881636
837, 340460123, 0.8926657, -0.019691769, 0.16581272, 0.41864836
838, 340476790, 0.89272386, -0.020220784, 0.16613677, 0.41837066
839, 340493457, 0.89283735, -0.020662509, 0.1664861, 0.41796756
840, 340510124, 0.8929428, -0.020878794, 0.16707781, 0.41749537
841, 340526791, 0.8930601, -0.021258714, 0.16769111, 0.4169794
842, 340543458, 0.89319843, -0.021812303, 0.16792239, 0.41656086
843, 340560125, 0.8933338, -0.022594986, 0.16784576, 0.41625974
844, 340576792, 0.8934505, -0.023297299, 0.16763319, 0.4160562
845, 340593459, 0.89350903, -0.023885218, 0.16758083, 0.41591787
846, 340610126, 0.893589, -0.02440353, 0.16769901, 0.41566852
847, 340626793, 0.89369124, -0.02522903, 0.16777387, 0.4153693
848, 340643460, 0.8938326, -0.026447263, 0.16772918, 0.41500708
849, 340660127, 0.89396083, -0.027909862, 0.1672493, 0.41482842
850, 340676794, 0.8940506, -0.029094836, 0.1667227, 0.41476575
851, 340693461, 0.89403284, -0.029667353, 0.16658427, 0.41481906
852, 340710128, 0.8939544, -0.029510904, 0.16701458, 0.41482615
853, 340726795, 0.89390504, -0.029503727, 0.16751719, 0.41473034
854, 340743462, 0.89388096, -0.030074768, 0.16773443, 0.4146534
855, 340760129, 0.89383745, -0.030682297, 0.16762115, 0.4147486
856, 340776796, 0.89374024, -0.030834898, 0.16754165, 0.41497868
857, 340793463, 0.893622, -0.0306351, 0.16784212, 0.41512704
858, 340810130, 0.89353824, -0.030775752, 0.16815825, 0.415169
859, 340826797, 0.8935061, -0.031360045, 0.16822521, 0.41516712
860, 340843464, 0.8934591, -0.03198242, 0.1680209, 0.4153038
861, 340860131, 0.89338213, -0.032194532, 0.16796203, 0.41547647
862, 340876798, 0.89324, -0.031910777, 0.16804996, 0.4157685
863, 340893465, 0.89303076, -0.031682704, 0.1682594, 0.4161506
864, 340910132, 0.8928566, -0.03203435, 0.16846374, 0.41641462
865, 340926799, 0.8926588, -0.03251444, 0.16858616, 0.41675147
866, 340943466, 0.8924452, -0.032764696, 0.16888367, 0.41706875
867, 340960133, 0.89223, -0.032954745, 0.1692334, 0.41737255
868, 340976800, 0.89204526, -0.03345612, 0.169486, 0.41762492
869, 340993467, 0.8919051, -0.034372102, 0.16952454, 0.41783437
870, 341010134, 0.89173865, -0.035512388, 0.16932935, 0.41817307
871, 341026801, 0.89151764, -0.036106925, 0.16903916, 0.41871065
872, 341043468, 0.8912507, -0.036020786, 0.1691983, 0.41922137
873, 341060135, 0.89099455, -0.03564995, 0.1697091, 0.4195911
874, 341076802, 0.8907607, -0.035717145, 0.17017798, 0.4198919
875, 341093469, 0.8905283, -0.036254, 0.1704952, 0.42021012
876, 341110136, 0.89029807, -0.036305886, 0.17081358, 0.42056382
877, 341126803, 0.8900862, -0.035774846, 0.17117791, 0.42090952
878, 341143470, 0.8899842, -0.035544258, 0.17139807, 0.421055
879, 341160137, 0.8899313, -0.035855103, 0.17138891, 0.42114443
880, 341176804, 0.8898253, -0.036364682, 0.17128313, 0.4213679
881, 341193471, 0.88959837, -0.036568422, 0.17143805, 0.42176592
882, 341210138, 0.8893312, -0.036401592, 0.17177069, 0.42220834
883, 341226805, 0.88909054, -0.036393926, 0.17193478, 0.4226487
884, 341243472, 0.88886696, -0.036736015, 0.1718913, 0.4231067
885, 341260139, 0.8885824, -0.03726495, 0.17200832, 0.42361066
886, 341276806, 0.8881847, -0.037111685, 0.17271839, 0.42416885
887, 341293473, 0.8877623, -0.037085723, 0.17354225, 0.4247188
888, 341310140, 0.8874742, -0.037783172, 0.17389868, 0.42511335
889, 341326807, 0.8872349, -0.038738996, 0.173845, 0.42554846
890, 341343474, 0.8869596, -0.03929071, 0.17407025, 0.42597932
891, 341360141, 0.88665247, -0.03952848, 0.17444177, 0.42644465
892, 341376808, 0.88636214, -0.04001307, 0.17467509, 0.42690727
893, 341393475, 0.8861291, -0.040932216, 0.1746877, 0.42729875
894, 341410142, 0.88588834, -0.04162378, 0.17476662, 0.4276988
895, 341426809, 0.88564664, -0.04153615, 0.17515966, 0.42804667
896, 341443476, 0.8854474, -0.041334804, 0.17580692, 0.42821312
897, 341460143, 0.88529265, -0.042076334, 0.17617024, 0.4283115
898, 341476810, 0.88518924, -0.042937636, 0.17651562, 0.42829767
899, 341493477, 0.88504887, -0.043717008, 0.1769554, 0.4283273
900, 341510144, 0.8848686, -0.04429505, 0.17749208, 0.42841828
901, 341526811, 0.884678, -0.044774264, 0.17805588, 0.4285281
902, 341543478, 0.88449556, -0.045359887, 0.17851649, 0.42865148
903, 341560145, 0.88435394, -0.045524254, 0.17894109, 0.42874908
904, 341576812, 0.8842328, -0.045286465, 0.17940447, 0.42883036
905, 341593479, 0.88404226, -0.044925645, 0.17991859, 0.4290458
906, 341610146, 0.8838322, -0.045096174, 0.18036196, 0.42927456
907, 341626813, 0.88359725, -0.045448568, 0.18076208, 0.42955256
