DeviceTag:,Xsens DOT 5,,,,,,,,,,,,,,,,,
FirmwareVersion:,1.3.0,,,,,,,,,,,,,,,,,
AppVersion:,2020.1.1,,,,,,,,,,,,,,,,,
Measurement Mode:,Sensor fusion Mode - Orientation (Quaternion),,,,,,,,,,,,,,,,,
StartTime:,2020-08-10 11:49:33.339 +0200,,,,,,,,,,,,,,,,,
© Xsens Technologies B. V. 2005-2020,,,,,,,,,,,,,,,,,,,
PacketCounter,SampleTimeFine,Quat_W,Quat_X,Quat_Y,Quat_Z
1, 346917065, 0.9609049, 0.12098209, 0.063213766, 0.24089277
2, 346933732, 0.9607811, 0.12196242, 0.06427936, 0.24060987
3, 346950399, 0.9608485, 0.12190403, 0.065183066, 0.24012654
4, 346967066, 0.9610616, 0.12104247, 0.06539145, 0.2396527
5, 346983733, 0.96123075, 0.12016919, 0.06530278, 0.23943777
6, 347000400, 0.9613059, 0.11965203, 0.06531097, 0.23939253
7, 347017067, 0.9613351, 0.11945423, 0.06551807, 0.23931715
8, 347033734, 0.961373, 0.11938732, 0.0657309, 0.23914039
9, 347050401, 0.9613815, 0.119613215, 0.065868415, 0.23895586
10, 347067068, 0.9614009, 0.11981856, 0.06592295, 0.23875932
11, 347083735, 0.96145487, 0.119777195, 0.06602227, 0.23853555
12, 347100402, 0.9615301, 0.1195406, 0.066083536, 0.23833387
13, 347117069, 0.9615687, 0.11942528, 0.066147566, 0.23821805
14, 347133736, 0.9615785, 0.11954547, 0.066235796, 0.23809376
15, 347150403, 0.96167356, 0.11964624, 0.06628294, 0.2376458
16, 347167070, 0.9617014, 0.119792655, 0.0663818, 0.2374315
17, 347183737, 0.9617205, 0.120074265, 0.066524275, 0.23717149
18, 347200404, 0.9618158, 0.12028356, 0.066626824, 0.23664993
19, 347217071, 0.96171117, 0.12040123, 0.06682433, 0.23695955
20, 347233738, 0.9617878, 0.12056489, 0.06696566, 0.23652479
21, 347250405, 0.96176314, 0.12098002, 0.06713895, 0.23636416
22, 347267072, 0.961707, 0.12161025, 0.06732751, 0.2362152
23, 347283739, 0.961772, 0.121986054, 0.06752053, 0.23570149
24, 347300406, 0.96164006, 0.12204474, 0.06778678, 0.23613246
25, 347317073, 0.96166134, 0.122129105, 0.0678788, 0.23597547
26, 347333740, 0.96159124, 0.122356795, 0.067983836, 0.23611307
27, 347350407, 0.9616472, 0.12272989, 0.06802317, 0.23568007
28, 347367074, 0.9615899, 0.12281005, 0.06817957, 0.23582709
29, 347383741, 0.9615452, 0.12292117, 0.06839706, 0.23588805
30, 347400408, 0.9614723, 0.12310712, 0.068594195, 0.23603116
31, 347417075, 0.96153843, 0.12331626, 0.0686538, 0.23563442
32, 347433742, 0.96146065, 0.12351339, 0.06880989, 0.23580311
33, 347450409, 0.9614373, 0.12385308, 0.0688679, 0.23570298
34, 347467076, 0.96139354, 0.12401559, 0.0689009, 0.23578632
35, 347483743, 0.9613461, 0.12341634, 0.068852074, 0.23630829
36, 347500410, 0.96157634, 0.12253951, 0.068558484, 0.23591302
37, 347517077, 0.96149963, 0.12232768, 0.06842, 0.23637506
38, 347533744, 0.96146464, 0.122898206, 0.068334065, 0.23624618
39, 347550411, 0.96132, 0.123580344, 0.06842537, 0.23645279
40, 347567078, 0.9612699, 0.124138236, 0.06853072, 0.23633344
41, 347583745, 0.96126074, 0.12455268, 0.068499684, 0.23616189
42, 347600412, 0.9610815, 0.12488439, 0.06840141, 0.23674384
43, 347617079, 0.9609791, 0.12465505, 0.068203844, 0.23733626
44, 347633746, 0.9610286, 0.12412598, 0.068033256, 0.23746239
45, 347650413, 0.96109945, 0.123869516, 0.06804477, 0.23730628
46, 347667080, 0.9611458, 0.12384476, 0.06816584, 0.23709658
47, 347683747, 0.9610945, 0.12389263, 0.06837041, 0.23722048
48, 347700414, 0.9612127, 0.123887666, 0.068527, 0.23669837
49, 347717081, 0.9612312, 0.12388092, 0.06880242, 0.2365471
50, 347733748, 0.9613395, 0.12395838, 0.06906409, 0.2359894
51, 347750415, 0.961342, 0.12372186, 0.06934975, 0.23601954
52, 347767082, 0.9614252, 0.12344338, 0.06956059, 0.2357646
53, 347783749, 0.9614524, 0.12338842, 0.06974367, 0.23562814
54, 347800416, 0.96152395, 0.1231663, 0.06984868, 0.23542075
55, 347817083, 0.9616731, 0.122733645, 0.069907345, 0.23501992
56, 347833750, 0.96181583, 0.122407675, 0.070015624, 0.23457304
57, 347850417, 0.9618744, 0.122633345, 0.07015428, 0.23417342
58, 347867084, 0.9617746, 0.12319716, 0.07040468, 0.2342124
59, 347883751, 0.96182704, 0.123682626, 0.07054974, 0.23369671
60, 347900418, 0.9618399, 0.12382192, 0.070743635, 0.23351152
61, 347917085, 0.9619923, 0.123712294, 0.07086386, 0.23290408
62, 347933752, 0.9619764, 0.12334423, 0.070992425, 0.23312594
63, 347950419, 0.9618378, 0.12308788, 0.07108735, 0.23380356
64, 347967086, 0.9618694, 0.12288182, 0.07108241, 0.23378311
65, 347983753, 0.96195275, 0.12253808, 0.0711243, 0.23360789
66, 348000420, 0.96191686, 0.122298054, 0.07129766, 0.23382849
67, 348017087, 0.96181273, 0.122442015, 0.071531944, 0.23410966
68, 348033754, 0.9619808, 0.1228239, 0.07161884, 0.23319167
69, 348050421, 0.96180606, 0.12273434, 0.07185552, 0.23388505
70, 348067088, 0.96180636, 0.12230017, 0.071935296, 0.23408708
71, 348083755, 0.9617765, 0.12219028, 0.071975306, 0.23425443
72, 348100422, 0.9620332, 0.12264711, 0.071968295, 0.23296028
73, 348117089, 0.9621123, 0.122832075, 0.0720827, 0.23250037
74, 348133756, 0.96217734, 0.12289508, 0.07220613, 0.23215978
75, 348150423, 0.9619562, 0.12296291, 0.07249863, 0.23294745
76, 348167090, 0.9618706, 0.1231626, 0.0727081, 0.23313004
77, 348183757, 0.9618081, 0.12321809, 0.07291952, 0.23329273
78, 348200424, 0.9618224, 0.123051666, 0.07306733, 0.23327525
79, 348217091, 0.96175456, 0.12272133, 0.07322375, 0.23367938
80, 348233758, 0.9617163, 0.122438826, 0.07334384, 0.23394755
81, 348250425, 0.9616651, 0.122294344, 0.07348443, 0.23418859
82, 348267092, 0.9615, 0.12212752, 0.07371409, 0.23488095
83, 348283759, 0.9615711, 0.12236402, 0.073853076, 0.23442246
84, 348300426, 0.96154624, 0.122877456, 0.074031815, 0.23419979
85, 348317093, 0.96164215, 0.122976705, 0.07411304, 0.23372768
86, 348333760, 0.96175003, 0.12256689, 0.07416486, 0.2334823
87, 348350427, 0.96174276, 0.121971495, 0.07425092, 0.23379654
88, 348367094, 0.9617625, 0.121594794, 0.07419339, 0.23393
89, 348383761, 0.9618157, 0.12107824, 0.07405427, 0.23402333
90, 348400428, 0.9618614, 0.12044439, 0.07388763, 0.23421459
91, 348417095, 0.96200687, 0.12014484, 0.07368749, 0.23383358
92, 348433762, 0.9620058, 0.12035652, 0.07359337, 0.23375915
93, 348450429, 0.96201336, 0.12053453, 0.07345688, 0.23367907
94, 348467096, 0.96199965, 0.120376594, 0.07325611, 0.23388031
95, 348483763, 0.96203357, 0.120155424, 0.07306901, 0.23391257
96, 348500430, 0.96201223, 0.120346725, 0.072883755, 0.23396
97, 348517097, 0.9619341, 0.1206089, 0.07278353, 0.23417753
98, 348533764, 0.96197456, 0.12040921, 0.07253198, 0.2341916
99, 348550431, 0.9620087, 0.120018594, 0.07227553, 0.23433106
100, 348567098, 0.96202666, 0.11981388, 0.07206668, 0.23442693
101, 348583765, 0.96195173, 0.11997388, 0.07202812, 0.23466395
102, 348600432, 0.9617642, 0.12015043, 0.07211748, 0.23531379
103, 348617099, 0.96161443, 0.11996977, 0.07214221, 0.23600993
104, 348633766, 0.9614926, 0.11969859, 0.07211351, 0.23665212
105, 348650433, 0.96139234, 0.1196874, 0.0720928, 0.23707068
106, 348667100, 0.9613747, 0.1197897, 0.07215105, 0.23707263
107, 348683767, 0.9613357, 0.11960587, 0.07215893, 0.23732083
108, 348700434, 0.9611847, 0.11931288, 0.07222136, 0.23806025
109, 348717101, 0.96114683, 0.11932042, 0.07217559, 0.23822317
110, 348733768, 0.961084, 0.119562514, 0.07215812, 0.23836051
111, 348750435, 0.96112925, 0.11954537, 0.07211077, 0.23820086
112, 348767102, 0.96117127, 0.119121805, 0.0720497, 0.23826249
113, 348783769, 0.96127343, 0.11904613, 0.07191188, 0.23792927
114, 348800436, 0.9612064, 0.119488634, 0.071840204, 0.23800045
115, 348817103, 0.96122, 0.120068535, 0.07175804, 0.23767714
116, 348833770, 0.96133465, 0.120061226, 0.07154004, 0.23728283
117, 348850437, 0.9613491, 0.11978346, 0.07142674, 0.2373987
118, 348867104, 0.96140575, 0.119957924, 0.0713543, 0.23710297
119, 348883771, 0.96137303, 0.1203864, 0.07131747, 0.23702963
120, 348900438, 0.96136594, 0.12055033, 0.07122658, 0.23700245
121, 348917105, 0.9613112, 0.12037944, 0.0711961, 0.23732018
122, 348933772, 0.9612351, 0.12046172, 0.07117784, 0.23759167
123, 348950439, 0.9611643, 0.12106483, 0.07121129, 0.23756175
124, 348967106, 0.9612209, 0.12162349, 0.07125568, 0.23703346
125, 348983773, 0.96117073, 0.121609665, 0.071310595, 0.23722753
126, 349000440, 0.96107996, 0.12159952, 0.07139165, 0.2375763
127, 349017107, 0.96110487, 0.12195643, 0.071455024, 0.23727283
128, 349033774, 0.96096337, 0.12258725, 0.071623735, 0.23746982
129, 349050441, 0.9609387, 0.12315165, 0.07181453, 0.23722015
130, 349067108, 0.9608978, 0.12317967, 0.07194579, 0.23733152
131, 349083775, 0.9608741, 0.12279361, 0.07191817, 0.23763537
132, 349100442, 0.96085596, 0.12231103, 0.07185619, 0.23797657
133, 349117109, 0.9608589, 0.1220838, 0.07182977, 0.23808923
134, 349133776, 0.9606918, 0.12224623, 0.07194685, 0.2386439
135, 349150443, 0.96065795, 0.122546084, 0.071950234, 0.23862578
136, 349167110, 0.9605869, 0.12246785, 0.07196745, 0.2389462
137, 349183777, 0.9606144, 0.12234404, 0.07188758, 0.23892283
138, 349200444, 0.9605487, 0.12244061, 0.07185441, 0.23914772
139, 349217111, 0.96040577, 0.12278864, 0.07189675, 0.2395302
140, 349233778, 0.96047, 0.12320282, 0.07182014, 0.2390824
141, 349250445, 0.96048677, 0.12355019, 0.07176071, 0.23885372
142, 349267112, 0.9605298, 0.12387992, 0.071759954, 0.23850942
143, 349283779, 0.96047294, 0.12416243, 0.07187049, 0.23855826
144, 349300446, 0.9603809, 0.12457173, 0.07215421, 0.23862989
145, 349317113, 0.96044683, 0.12474438, 0.0724033, 0.23819871
146, 349333780, 0.9604589, 0.12441728, 0.072607644, 0.23825943
147, 349350447, 0.9605075, 0.12379737, 0.072759576, 0.23833951
148, 349367114, 0.9604774, 0.123472586, 0.07300388, 0.23855488
149, 349383781, 0.9604875, 0.12364222, 0.073370464, 0.23831366
150, 349400448, 0.96044725, 0.12392456, 0.073808774, 0.2381935
151, 349417115, 0.96041816, 0.1240585, 0.07423621, 0.23810887
152, 349433782, 0.96037936, 0.1239972, 0.07454461, 0.23820034
153, 349450449, 0.9603853, 0.123927325, 0.074696645, 0.23816521
154, 349467116, 0.96039516, 0.12381073, 0.07482187, 0.23814665
155, 349483783, 0.96041304, 0.123730525, 0.07490835, 0.23808934
156, 349500450, 0.96040785, 0.12381056, 0.07500921, 0.23803648
157, 349517117, 0.9604332, 0.12402457, 0.07508946, 0.23779745
158, 349533784, 0.96048105, 0.12436054, 0.0750871, 0.23742945
159, 349550451, 0.9604978, 0.124427006, 0.07496084, 0.23736691
160, 349567118, 0.96054053, 0.124188475, 0.07477069, 0.23737872
161, 349583785, 0.96056634, 0.124035455, 0.07465202, 0.23739193
162, 349600452, 0.96057016, 0.124161586, 0.07464075, 0.23731367
163, 349617119, 0.96057516, 0.12453689, 0.07467081, 0.23708706
164, 349633786, 0.9605403, 0.124716386, 0.07463403, 0.23714577
165, 349650453, 0.960524, 0.12476927, 0.07452097, 0.2372193
166, 349667120, 0.96049285, 0.124835566, 0.074487, 0.23732123
167, 349683787, 0.96039474, 0.12498845, 0.074581414, 0.237608
168, 349700454, 0.960371, 0.12519145, 0.07464641, 0.23757662
169, 349717121, 0.9603954, 0.1251726, 0.07466516, 0.23748198
170, 349733788, 0.960399, 0.12515388, 0.07464852, 0.23748265
171, 349750455, 0.96042466, 0.12532298, 0.0746606, 0.23728572
172, 349767122, 0.9603535, 0.12568519, 0.074806325, 0.2373364
173, 349783789, 0.96026987, 0.12616153, 0.07498047, 0.2373671
174, 349800456, 0.9602022, 0.12650928, 0.07516485, 0.23739743
175, 349817123, 0.9601601, 0.12670723, 0.07529415, 0.23742107
176, 349833790, 0.96011424, 0.12698893, 0.07541868, 0.23741639
177, 349850457, 0.960058, 0.12726344, 0.07557531, 0.23744704
178, 349867124, 0.9599722, 0.1274788, 0.07577926, 0.23761357
179, 349883791, 0.9600432, 0.12759383, 0.075893275, 0.23722829
180, 349900458, 0.9600187, 0.12767014, 0.07600499, 0.23725061
181, 349917125, 0.9600126, 0.12780267, 0.07611975, 0.23716688
182, 349933792, 0.96004546, 0.1278528, 0.07620173, 0.2369806
183, 349950459, 0.9600127, 0.12786447, 0.07630331, 0.23707427
184, 349967126, 0.9600026, 0.12783816, 0.076372676, 0.2371069
185, 349983793, 0.96002054, 0.12755042, 0.07640852, 0.23717785
186, 350000460, 0.95997626, 0.12700786, 0.07653062, 0.23760818
187, 350017127, 0.9599541, 0.12666225, 0.07660531, 0.23785785
188, 350033794, 0.9598875, 0.12670137, 0.07669157, 0.23807774
189, 350050461, 0.9597532, 0.12709768, 0.07691168, 0.23833784
190, 350067128, 0.9597083, 0.12748802, 0.07720837, 0.23821387
191, 350083795, 0.9595916, 0.12768702, 0.077485844, 0.23848715
192, 350100462, 0.95955503, 0.1279157, 0.077605754, 0.23847267
193, 350117129, 0.95953393, 0.12827806, 0.0776398, 0.2383518
194, 350133796, 0.95956373, 0.1285706, 0.077701874, 0.23805371
195, 350150463, 0.95949095, 0.12877128, 0.07783405, 0.23819509
196, 350167130, 0.9594889, 0.1289064, 0.077977374, 0.23808347
197, 350183797, 0.95942557, 0.12884013, 0.07813903, 0.23832156
198, 350200464, 0.9595628, 0.1285868, 0.07820422, 0.2378845
199, 350217131, 0.9594575, 0.12819812, 0.07837698, 0.23846099
200, 350233798, 0.9594358, 0.12798332, 0.07854094, 0.23860973
201, 350250465, 0.95942104, 0.12803084, 0.07879363, 0.23856035
202, 350267132, 0.9593601, 0.1281963, 0.07910718, 0.23861293
203, 350283799, 0.9591896, 0.1281965, 0.07951252, 0.23916338
204, 350300466, 0.95923215, 0.12785779, 0.07967756, 0.23911905
205, 350317133, 0.95922095, 0.1273453, 0.07976239, 0.23940848
206, 350333800, 0.9591992, 0.12705639, 0.079842925, 0.23962249
207, 350350467, 0.95916927, 0.12699987, 0.08003428, 0.23970777
208, 350367134, 0.95911956, 0.12712261, 0.08032112, 0.2397456
209, 350383801, 0.9591027, 0.12733272, 0.08063345, 0.23959756
210, 350400468, 0.95897466, 0.12743, 0.08107146, 0.23990963
211, 350417135, 0.95884085, 0.12732042, 0.08155832, 0.24033771
212, 350433802, 0.9587367, 0.12719716, 0.08220298, 0.24059863
213, 350450469, 0.95873773, 0.12743036, 0.0830473, 0.24018106
214, 350467136, 0.95860994, 0.12783726, 0.08424673, 0.24005683
215, 350483803, 0.9585069, 0.12796262, 0.08564822, 0.23990501
216, 350500470, 0.95841914, 0.12741882, 0.087216325, 0.23998009
217, 350517137, 0.95843613, 0.12645648, 0.08894858, 0.23978513
218, 350533804, 0.9585129, 0.12516578, 0.09092536, 0.23941426
219, 350550471, 0.9585623, 0.12357805, 0.093136385, 0.2391915
220, 350567138, 0.958457, 0.1217363, 0.09557085, 0.23959711
221, 350583805, 0.95846665, 0.11950196, 0.09813272, 0.23964803
222, 350600472, 0.95853144, 0.11701835, 0.10091833, 0.23945746
223, 350617139, 0.95858234, 0.11432587, 0.10388653, 0.23928489
224, 350633806, 0.95870775, 0.111514606, 0.10699513, 0.23873848
225, 350650473, 0.95870847, 0.108619854, 0.11039422, 0.23852253
226, 350667140, 0.95872116, 0.10558537, 0.11404191, 0.23811817
227, 350683807, 0.95859164, 0.102449134, 0.11801798, 0.23807126
228, 350700474, 0.9586542, 0.09964115, 0.121985294, 0.23700947
229, 350717141, 0.95847446, 0.09731966, 0.12620504, 0.23649076
230, 350733808, 0.9583277, 0.095302075, 0.13067143, 0.23547938
231, 350750475, 0.95799243, 0.093313485, 0.13555662, 0.23487777
232, 350767142, 0.95752835, 0.09152117, 0.14066955, 0.23446852
233, 350783809, 0.95702493, 0.08987329, 0.1459331, 0.23394419
234, 350800476, 0.95646137, 0.088345505, 0.15144916, 0.23332366
235, 350817143, 0.9558006, 0.08675053, 0.15747342, 0.23264101
236, 350833810, 0.95494497, 0.08570426, 0.16412173, 0.23194624
237, 350850477, 0.9538677, 0.086747855, 0.1715189, 0.23063502
238, 350867144, 0.95265484, 0.089082725, 0.17950782, 0.22867009
239, 350883811, 0.9514006, 0.09054811, 0.18733153, 0.2270355
240, 350900478, 0.9501264, 0.08955707, 0.19439822, 0.22682343
241, 350917145, 0.9491139, 0.08590173, 0.20075491, 0.22693895
242, 350933812, 0.94824755, 0.08056775, 0.20663974, 0.22723486
243, 350950479, 0.9473951, 0.075124994, 0.21260445, 0.2271528
244, 350967146, 0.94640636, 0.069941096, 0.21871786, 0.227125
245, 350983813, 0.9453971, 0.0654463, 0.2247525, 0.22677661
246, 351000480, 0.94423383, 0.062266767, 0.23090652, 0.22633535
247, 351017147, 0.94288296, 0.05980729, 0.23741286, 0.22589856
248, 351033814, 0.9415475, 0.057331394, 0.2438742, 0.22522618
249, 351050481, 0.9401524, 0.054292396, 0.25018913, 0.22488065
250, 351067148, 0.9387341, 0.051132496, 0.25646695, 0.22447379
251, 351083815, 0.93729264, 0.04817014, 0.2629327, 0.22367053
252, 351100482, 0.9356425, 0.045734562, 0.26979282, 0.22292058
253, 351117149, 0.9337564, 0.04491557, 0.27699447, 0.2221612
254, 351133816, 0.931832, 0.045153063, 0.28452778, 0.2206677
255, 351150483, 0.929945, 0.044804588, 0.2920251, 0.218898
256, 351167150, 0.9279365, 0.043384906, 0.2993693, 0.21778387
257, 351183817, 0.9257273, 0.041888274, 0.30674967, 0.21720761
258, 351200484, 0.9234896, 0.040821534, 0.3141754, 0.21632063
259, 351217151, 0.9214326, 0.039513364, 0.3212607, 0.21492395
260, 351233818, 0.9192871, 0.036671296, 0.32812998, 0.21423683
261, 351250485, 0.91697884, 0.033158597, 0.33482614, 0.21434127
262, 351267152, 0.9147203, 0.02978215, 0.34144315, 0.21404758
263, 351283819, 0.9125773, 0.026794553, 0.34807512, 0.21290553
264, 351300486, 0.9103944, 0.023648102, 0.35476163, 0.21158245
265, 351317153, 0.90805775, 0.020562228, 0.3614624, 0.21060279
266, 351333820, 0.9056409, 0.018037636, 0.36829835, 0.2093937
267, 351350487, 0.9031659, 0.015840054, 0.37523744, 0.2079366
268, 351367154, 0.90074503, 0.013590432, 0.38201556, 0.2062473
269, 351383821, 0.8982583, 0.010710014, 0.38860923, 0.20493954
270, 351400488, 0.8956913, 0.0074479333, 0.39505962, 0.20398456
271, 351417155, 0.8929687, 0.0037774865, 0.4016028, 0.20324367
272, 351433822, 0.8901457, -5.0461444E-5, 0.40818334, 0.2025508
273, 351450489, 0.8874605, -0.0035821875, 0.4146138, 0.20123838
274, 351467156, 0.88482076, -0.00757734, 0.42100012, 0.19948392
275, 351483823, 0.882132, -0.012405169, 0.4272009, 0.1979617
276, 351500490, 0.87927485, -0.018111352, 0.43333778, 0.19689168
277, 351517157, 0.8761787, -0.024338644, 0.43958688, 0.19616833
278, 351533824, 0.87299055, -0.030361054, 0.44579002, 0.19554336
279, 351550491, 0.8697126, -0.03596918, 0.4520037, 0.19493338
280, 351567158, 0.86628014, -0.041211918, 0.45837608, 0.19429804
281, 351583825, 0.8628452, -0.046104535, 0.46471438, 0.19342537
282, 351600492, 0.85945255, -0.050670404, 0.47095463, 0.19229035
283, 351617159, 0.85604465, -0.055381034, 0.47703707, 0.19119692
284, 351633826, 0.8524692, -0.061070327, 0.48286697, 0.19080435
285, 351650493, 0.84871644, -0.067729294, 0.48837024, 0.19127925
286, 351667160, 0.84476745, -0.07475161, 0.49381548, 0.19216293
287, 351683827, 0.8407904, -0.08069628, 0.49947807, 0.19256566
288, 351700494, 0.8370522, -0.08537243, 0.5052077, 0.191887
289, 351717161, 0.83330727, -0.09011488, 0.51088065, 0.19099635
290, 351733828, 0.829409, -0.09537926, 0.51644117, 0.19045253
291, 351750495, 0.82535493, -0.10126489, 0.52188283, 0.19019258
292, 351767162, 0.8210851, -0.10712135, 0.52748644, 0.19000664
293, 351783829, 0.816713, -0.111987494, 0.5334908, 0.18927917
294, 351800496, 0.812618, -0.11531912, 0.5396913, 0.18731552
295, 351817163, 0.80862194, -0.11794648, 0.546043, 0.18454409
296, 351833830, 0.8046438, -0.11985344, 0.5525068, 0.18143839
297, 351850497, 0.8004155, -0.12168766, 0.55913043, 0.17860639
298, 351867164, 0.79581505, -0.123851486, 0.5659587, 0.17615363
299, 351883831, 0.79117084, -0.12636422, 0.57269126, 0.17350967
300, 351900498, 0.7866569, -0.12842123, 0.57932657, 0.17046922
301, 351917165, 0.78227574, -0.12869006, 0.586291, 0.16657263
302, 351933832, 0.7778503, -0.12755033, 0.5936598, 0.16201337
303, 351950499, 0.77343875, -0.1262782, 0.60084337, 0.15758741
304, 351967166, 0.76892704, -0.1259155, 0.60759723, 0.15402083
305, 351983833, 0.7643101, -0.12686065, 0.61381507, 0.15155058
306, 352000500, 0.7596517, -0.12867293, 0.6196415, 0.14972286
307, 352017167, 0.75494766, -0.13066843, 0.6253901, 0.1478765
308, 352033834, 0.75043094, -0.13247082, 0.6308447, 0.1460823
309, 352050501, 0.74606705, -0.13443892, 0.6358799, 0.14480028
310, 352067168, 0.7417235, -0.13674414, 0.6406118, 0.1440971
311, 352083835, 0.7376078, -0.1392253, 0.64491045, 0.14367242
312, 352100502, 0.73373646, -0.14139499, 0.64894515, 0.1432083
313, 352117169, 0.7300893, -0.14381224, 0.65254676, 0.14307486
314, 352133836, 0.72639394, -0.14698781, 0.6558537, 0.14353558
315, 352150503, 0.7229376, -0.15020207, 0.6588186, 0.14407893
316, 352167170, 0.7197525, -0.15302937, 0.6616288, 0.14417365
317, 352183837, 0.7169538, -0.15561958, 0.66405964, 0.14416955
318, 352200504, 0.714482, -0.15788898, 0.6661874, 0.14415537
319, 352217171, 0.7121288, -0.15949519, 0.6683664, 0.14394633
320, 352233838, 0.7097569, -0.16080625, 0.67060494, 0.14378968
321, 352250505, 0.70758307, -0.16232844, 0.67244935, 0.14417951
322, 352267172, 0.7057275, -0.16399409, 0.6739132, 0.14455366
323, 352283839, 0.70408756, -0.16559768, 0.67526084, 0.14443411
324, 352300506, 0.7024162, -0.1667454, 0.67680585, 0.14401919
325, 352317173, 0.7010259, -0.16751277, 0.67815757, 0.1435425
326, 352333840, 0.69994396, -0.16793573, 0.6793072, 0.14289111
327, 352350507, 0.69880944, -0.16825883, 0.6805606, 0.14209773
328, 352367174, 0.6978106, -0.16874613, 0.68157077, 0.14158687
329, 352383841, 0.69706166, -0.1691271, 0.6823532, 0.1410505
330, 352400508, 0.6965485, -0.16920507, 0.68302643, 0.14023167
331, 352417175, 0.6962499, -0.16918035, 0.68348604, 0.13950288
332, 352433842, 0.6958695, -0.16950013, 0.68383795, 0.13928893
333, 352450509, 0.6952913, -0.17010416, 0.6842558, 0.13938673
334, 352467176, 0.6948791, -0.17060624, 0.68454975, 0.13938536
335, 352483843, 0.6946661, -0.17095017, 0.684681, 0.13938159
336, 352500510, 0.69450045, -0.17134197, 0.6847252, 0.13950844
337, 352517177, 0.6942341, -0.17204897, 0.6847569, 0.13980873
338, 352533844, 0.6940316, -0.17302324, 0.684627, 0.1402466
339, 352550511, 0.6939258, -0.17384483, 0.6844489, 0.14062332
340, 352567178, 0.6939081, -0.17422576, 0.68434846, 0.1407272
341, 352583845, 0.69397104, -0.17431352, 0.68423706, 0.14084996
342, 352600512, 0.69402385, -0.17447671, 0.68409127, 0.14109585
343, 352617179, 0.69393075, -0.17483829, 0.683974, 0.14167316
344, 352633846, 0.69377464, -0.17526604, 0.6838783, 0.14236987
345, 352650513, 0.6938251, -0.17555541, 0.6836529, 0.14284861
346, 352667180, 0.6940847, -0.17562895, 0.6833383, 0.14300233
347, 352683847, 0.69435316, -0.17566179, 0.68302137, 0.14317326
348, 352700514, 0.69452363, -0.17587094, 0.6827261, 0.14349742
349, 352717181, 0.6946602, -0.17612392, 0.6824749, 0.14372183
350, 352733848, 0.69485134, -0.17635803, 0.68219674, 0.14383015
351, 352750515, 0.6950819, -0.17655542, 0.68186396, 0.14405176
352, 352767182, 0.69526774, -0.17663231, 0.6815929, 0.14434369
353, 352783849, 0.69544727, -0.17667256, 0.6813351, 0.14464624
354, 352800516, 0.6956681, -0.17666659, 0.68107784, 0.14480259
355, 352817183, 0.6959693, -0.17661291, 0.68079036, 0.14477299
356, 352833850, 0.69619846, -0.17672929, 0.68046594, 0.14505449
357, 352850517, 0.6962361, -0.17710812, 0.68019366, 0.1456871
358, 352867184, 0.696218, -0.1776707, 0.679882, 0.14654109
359, 352883851, 0.6962425, -0.17821209, 0.67956996, 0.14721224
360, 352900518, 0.6963744, -0.17844644, 0.6793062, 0.14752267
361, 352917185, 0.69651914, -0.17845441, 0.67913014, 0.14763996
362, 352933852, 0.69660807, -0.17841002, 0.6790322, 0.14772423
363, 352950519, 0.69663376, -0.17848028, 0.67897743, 0.14776984
364, 352967186, 0.69674045, -0.17850092, 0.67887336, 0.14772008
365, 352983853, 0.6968318, -0.1784527, 0.6788031, 0.14767028
366, 353000520, 0.6968682, -0.17822492, 0.6788753, 0.14744185
367, 353017187, 0.6969266, -0.17788999, 0.6789726, 0.14712173
368, 353033854, 0.69693047, -0.17754407, 0.67909503, 0.14695619
369, 353050521, 0.6969607, -0.1771614, 0.6792012, 0.14678416
370, 353067188, 0.697003, -0.17684598, 0.6792706, 0.1466415
371, 353083855, 0.69700474, -0.17671368, 0.67929345, 0.14668715
372, 353100522, 0.69700843, -0.17671174, 0.67926204, 0.14681749
373, 353117189, 0.6970412, -0.1766853, 0.6792119, 0.14692597
374, 353133856, 0.6971156, -0.17656817, 0.67917, 0.14690728
375, 353150523, 0.69716144, -0.17644583, 0.6791527, 0.14691629
376, 353167190, 0.6971489, -0.17632183, 0.67922115, 0.1468088
377, 353183857, 0.6972616, -0.17602393, 0.6792287, 0.14659585
378, 353200524, 0.6974072, -0.17579599, 0.6791301, 0.14663382
379, 353217191, 0.6976323, -0.17561075, 0.6789283, 0.14671886
380, 353233858, 0.69786984, -0.17542683, 0.6787428, 0.1466676
381, 353250525, 0.69843477, -0.17530136, 0.6781913, 0.14668027
382, 353267192, 0.69947374, -0.1754318, 0.67701316, 0.14701541
383, 353283859, 0.70079905, -0.1758489, 0.67543286, 0.14747372
384, 353300526, 0.7023841, -0.17627136, 0.6735771, 0.14791557
385, 353317193, 0.70444506, -0.17639993, 0.6713373, 0.14814405
386, 353333860, 0.70698845, -0.17661661, 0.66842103, 0.14895445
387, 353350527, 0.7096704, -0.1776862, 0.6648282, 0.15099409
388, 353367194, 0.7126516, -0.17958684, 0.66036683, 0.15424703
389, 353383861, 0.7162984, -0.1816698, 0.65494376, 0.15799195
390, 353400528, 0.7206552, -0.18331613, 0.64878666, 0.16163915
391, 353417195, 0.7255869, -0.18394832, 0.6423592, 0.1645038
392, 353433862, 0.73106235, -0.18358554, 0.6356353, 0.16676912
393, 353450529, 0.73690087, -0.18285663, 0.62840325, 0.1692634
394, 353467196, 0.7426219, -0.18270801, 0.6206135, 0.17311691
395, 353483863, 0.748549, -0.1827034, 0.6121515, 0.17766432
396, 353500530, 0.75495595, -0.18196116, 0.60337865, 0.18128952
397, 353517197, 0.76193935, -0.17916425, 0.59473085, 0.18342267
398, 353533864, 0.7695703, -0.1733378, 0.58653116, 0.18356754
399, 353550531, 0.7775187, -0.16537993, 0.5785674, 0.18268596
400, 353567198, 0.785375, -0.1566535, 0.57064325, 0.18169248
401, 353583865, 0.7931614, -0.14803776, 0.56238663, 0.18083528
402, 353600532, 0.80077726, -0.1401922, 0.5536154, 0.18058774
403, 353617199, 0.8081544, -0.1328202, 0.5445578, 0.18083663
404, 353633866, 0.815289, -0.12568648, 0.53541684, 0.18120624
405, 353650533, 0.82223946, -0.11863267, 0.5261789, 0.18161665
406, 353667200, 0.82910734, -0.11114322, 0.51688826, 0.1818105
407, 353683867, 0.8358266, -0.10345861, 0.50749683, 0.18203637
408, 353700534, 0.8422794, -0.09626144, 0.49794933, 0.18260817
409, 353717201, 0.8484961, -0.089417726, 0.4882662, 0.18345317
410, 353733868, 0.8545079, -0.08284953, 0.47848502, 0.18440332
411, 353750535, 0.86022127, -0.076511785, 0.46878818, 0.18548125
412, 353767202, 0.86566484, -0.07003656, 0.45920065, 0.18669249
413, 353783869, 0.87094617, -0.06394216, 0.4495282, 0.18785349
414, 353800536, 0.8760147, -0.0579731, 0.43990442, 0.18900189
415, 353817203, 0.8809078, -0.051518515, 0.43045, 0.18989554
416, 353833870, 0.8856536, -0.044834472, 0.42101806, 0.19066134
417, 353850537, 0.8901727, -0.03855384, 0.41148207, 0.19180383
418, 353867204, 0.8943965, -0.033110864, 0.4018805, 0.19352248
419, 353883871, 0.8984633, -0.027806936, 0.39230138, 0.19516739
420, 353900538, 0.9024277, -0.022045474, 0.3828923, 0.19629565
421, 353917205, 0.9061599, -0.016174452, 0.37367353, 0.19743662
422, 353933872, 0.90966064, -0.010016196, 0.3646584, 0.19859874
423, 353950539, 0.9130416, -0.0036288241, 0.35581014, 0.19935238
424, 353967206, 0.91620356, 0.003235867, 0.34727585, 0.1999004
425, 353983873, 0.91926605, 0.010421648, 0.33888066, 0.20000337
426, 354000540, 0.9221035, 0.017785113, 0.33073312, 0.20006147
427, 354017207, 0.9247903, 0.025003275, 0.3226786, 0.20004083
428, 354033874, 0.92735654, 0.031510375, 0.31468812, 0.1999708
429, 354050541, 0.9297858, 0.0374729, 0.30682483, 0.19988213
430, 354067208, 0.9320834, 0.043578926, 0.2990037, 0.19979548
431, 354083875, 0.9342733, 0.049772527, 0.29095545, 0.20000352
432, 354100542, 0.93633735, 0.055440716, 0.2827573, 0.20061648
433, 354117209, 0.93824774, 0.06052005, 0.27469638, 0.20142102
434, 354133876, 0.9400505, 0.06555788, 0.2667205, 0.20215721
435, 354150543, 0.9417891, 0.07059093, 0.25864974, 0.20285633
436, 354167210, 0.94338524, 0.07531033, 0.2506007, 0.20384333
437, 354183877, 0.9448753, 0.07948336, 0.2425954, 0.20503859
438, 354200544, 0.9462343, 0.08365249, 0.23483635, 0.20614266
439, 354217211, 0.9474825, 0.08818649, 0.22730611, 0.20695885
440, 354233878, 0.94861984, 0.09268226, 0.21977788, 0.20791422
441, 354250545, 0.949639, 0.09664224, 0.21223696, 0.20928876
442, 354267212, 0.95056885, 0.099982545, 0.2049652, 0.21074079
443, 354283879, 0.95134056, 0.10354989, 0.19814356, 0.2120565
444, 354300546, 0.95209885, 0.1078772, 0.19130819, 0.21277162
445, 354317213, 0.95280254, 0.11208064, 0.18461159, 0.21336362
446, 354333880, 0.9533809, 0.11563671, 0.17816022, 0.21436432
447, 354350547, 0.9538796, 0.11932315, 0.17184508, 0.21527915
448, 354367214, 0.95431894, 0.12336776, 0.16565491, 0.21590391
449, 354383881, 0.95468575, 0.12744954, 0.15951525, 0.21653377
450, 354400548, 0.95501035, 0.13111436, 0.15350033, 0.21726015
451, 354417215, 0.9553574, 0.13416678, 0.14763126, 0.21793725
452, 354433882, 0.9556299, 0.13707162, 0.14199047, 0.21868175
453, 354450549, 0.9557606, 0.14025691, 0.13649708, 0.21958728
454, 354467216, 0.9558724, 0.14327964, 0.13094006, 0.2205308
455, 354483883, 0.95607835, 0.14539678, 0.12532002, 0.22151504
456, 354500550, 0.9563252, 0.14675696, 0.11971448, 0.22265022
457, 354517217, 0.9564829, 0.148186, 0.11424258, 0.2238972
458, 354533884, 0.9565695, 0.14963672, 0.10870713, 0.22531444
459, 354550551, 0.9566864, 0.15060128, 0.10313769, 0.22678901
460, 354567218, 0.9568981, 0.15062869, 0.097695366, 0.22828251
461, 354583885, 0.95716083, 0.15039988, 0.09241669, 0.22952692
462, 354600552, 0.95736694, 0.15041758, 0.087402046, 0.23061699
463, 354617219, 0.9575634, 0.15002169, 0.08249358, 0.23186341
464, 354633886, 0.95779145, 0.14901982, 0.07781065, 0.23318252
465, 354650553, 0.957951, 0.14841285, 0.07351631, 0.23430538
466, 354667220, 0.9579931, 0.14850625, 0.06945282, 0.23531128
467, 354683887, 0.9580067, 0.14824979, 0.06550587, 0.23654649
468, 354700554, 0.95808524, 0.14683853, 0.061784364, 0.23810446
469, 354717221, 0.95829463, 0.14469023, 0.058023117, 0.23951918
470, 354733888, 0.9585043, 0.14228751, 0.05434342, 0.24097843
471, 354750555, 0.95861554, 0.13977163, 0.05070498, 0.24279462
472, 354767222, 0.958623, 0.13739806, 0.047395613, 0.24478033
473, 354783889, 0.9584754, 0.1361394, 0.044769485, 0.24654979
474, 354800556, 0.95813507, 0.13655701, 0.042868305, 0.24797569
475, 354817223, 0.9576296, 0.1381259, 0.041576497, 0.2492753
476, 354833890, 0.9571132, 0.14004256, 0.04085278, 0.25030717
477, 354850557, 0.95668113, 0.14175878, 0.040436614, 0.25105938
478, 354867224, 0.9563413, 0.1431138, 0.03996661, 0.25165924
479, 354883891, 0.95611984, 0.14375825, 0.039449275, 0.25221452
480, 354900558, 0.9560942, 0.14327258, 0.03897355, 0.25266236
481, 354917225, 0.95618963, 0.14198203, 0.03837051, 0.25312126
482, 354933892, 0.9562072, 0.14096601, 0.03777774, 0.25371134
483, 354950559, 0.9561892, 0.14007044, 0.037279096, 0.25434825
484, 354967226, 0.9561324, 0.13939111, 0.03713317, 0.25495547
485, 354983893, 0.9560356, 0.13915208, 0.037214186, 0.2554366
486, 355000560, 0.9558471, 0.13929704, 0.037315052, 0.25604752
487, 355017227, 0.95566005, 0.13924341, 0.037197616, 0.256791
488, 355033894, 0.955524, 0.13855158, 0.03711706, 0.25768092
489, 355050561, 0.9554435, 0.13773958, 0.037155066, 0.2584087
490, 355067228, 0.95529515, 0.13806337, 0.037460413, 0.25874016
491, 355083895, 0.95509756, 0.13928272, 0.037954465, 0.2587447
492, 355100562, 0.9549372, 0.14016128, 0.038465127, 0.25878608
493, 355117229, 0.95488816, 0.14012371, 0.03892638, 0.25891837
494, 355133896, 0.9549243, 0.13972609, 0.039281167, 0.25894678
495, 355150563, 0.9549229, 0.13950332, 0.03947307, 0.25904286
496, 355167230, 0.9548944, 0.1390399, 0.039661974, 0.2593676
497, 355183897, 0.9549223, 0.13817127, 0.03994099, 0.25968572
498, 355200564, 0.95490146, 0.13806605, 0.040373575, 0.2597523
499, 355217231, 0.95479935, 0.13884205, 0.040884383, 0.2596337
500, 355233898, 0.9546874, 0.13950853, 0.041407596, 0.25960523
501, 355250565, 0.9546651, 0.13929194, 0.041903585, 0.25972402
502, 355267232, 0.9546875, 0.1387962, 0.04227245, 0.25984734
503, 355283899, 0.95466596, 0.13892698, 0.042534143, 0.25981387
504, 355300566, 0.9546022, 0.13934556, 0.04287508, 0.2597683
505, 355317233, 0.9546047, 0.1392651, 0.04315966, 0.25975496
506, 355333900, 0.9546631, 0.13874806, 0.043373805, 0.25978112
507, 355350567, 0.9546828, 0.13858648, 0.04361719, 0.2597544
508, 355367234, 0.95459956, 0.1390362, 0.043833308, 0.2597833
509, 355383901, 0.95453197, 0.13945307, 0.04398952, 0.25978234
510, 355400568, 0.954533, 0.13948783, 0.044066582, 0.25974637
511, 355417235, 0.95456606, 0.13927744, 0.044089995, 0.25973377
512, 355433902, 0.9545416, 0.13937244, 0.044128496, 0.25976634
513, 355450569, 0.95452785, 0.1395056, 0.044101402, 0.25974968
514, 355467236, 0.95454186, 0.13934128, 0.04399724, 0.2598043
515, 355483903, 0.9545662, 0.13909757, 0.0439117, 0.25985977
516, 355500570, 0.95454335, 0.13922223, 0.04391409, 0.2598764
517, 355517237, 0.9544514, 0.13980426, 0.044009082, 0.2598857
518, 355533904, 0.9543844, 0.14034009, 0.044073682, 0.2598322
519, 355550571, 0.9543862, 0.14038467, 0.044001, 0.25981385
520, 355567238, 0.9544319, 0.14018464, 0.043807965, 0.25978675
521, 355583905, 0.95451534, 0.13981675, 0.04356362, 0.25971955
522, 355600572, 0.9545792, 0.1394374, 0.043305483, 0.25973222
523, 355617239, 0.9546558, 0.1392015, 0.043124825, 0.25960684
524, 355633906, 0.9547768, 0.13893834, 0.04299983, 0.2593231
525, 355650573, 0.95487785, 0.13847056, 0.04288545, 0.25922006
526, 355667240, 0.9549178, 0.13792886, 0.042778917, 0.25937948
527, 355683907, 0.9549073, 0.13766983, 0.04275636, 0.25955975
528, 355700574, 0.9548976, 0.13774663, 0.042900495, 0.25953054
529, 355717241, 0.9548987, 0.13778597, 0.043080527, 0.25947568
530, 355733908, 0.9548864, 0.13754602, 0.043273862, 0.25961602
531, 355750575, 0.95486987, 0.13708322, 0.043552704, 0.2598752
532, 355767242, 0.9549285, 0.136273, 0.043766484, 0.2600496
533, 355783909, 0.9549907, 0.13544294, 0.043932766, 0.26022694
534, 355800576, 0.95497924, 0.13503571, 0.044323016, 0.26041448
535, 355817243, 0.95488465, 0.13524665, 0.044982046, 0.2605389
536, 355833910, 0.95483476, 0.13550182, 0.045716163, 0.26046163
537, 355850577, 0.95484346, 0.13498843, 0.046333, 0.2605869
538, 355867244, 0.9548536, 0.13416074, 0.046959005, 0.26086527
539, 355883911, 0.9548282, 0.13375701, 0.04774329, 0.26102233
540, 355900578, 0.95479155, 0.1336486, 0.048687946, 0.26103824
541, 355917245, 0.95479566, 0.13320905, 0.049675297, 0.26106182
542, 355933912, 0.9547594, 0.13250956, 0.050888803, 0.26131663
543, 355950579, 0.9547423, 0.13190806, 0.052291133, 0.26140597
544, 355967246, 0.95471406, 0.13138884, 0.05383987, 0.2614562
545, 355983913, 0.9547772, 0.13062432, 0.055466194, 0.26126912
546, 356000580, 0.95474863, 0.1293648, 0.057324156, 0.26159868
547, 356017247, 0.9548383, 0.12756239, 0.059307776, 0.26171458
548, 356033914, 0.95490664, 0.12571433, 0.061558846, 0.26183942
549, 356050581, 0.95490986, 0.12435356, 0.064248025, 0.26183122
550, 356067248, 0.95491064, 0.12303437, 0.0672023, 0.26170987
551, 356083915, 0.9548827, 0.12145763, 0.07037484, 0.26171464
552, 356100582, 0.9548548, 0.11932996, 0.073734, 0.26187062
553, 356117249, 0.95492923, 0.11650165, 0.07729504, 0.261846
554, 356133916, 0.95501715, 0.11337406, 0.08121497, 0.26171094
555, 356150583, 0.95511264, 0.1102774, 0.085421935, 0.26134622
556, 356167250, 0.9550352, 0.10723303, 0.08995065, 0.26137695
557, 356183917, 0.9548896, 0.10390939, 0.09490754, 0.26149806
558, 356200584, 0.9547158, 0.100347094, 0.100446805, 0.26145467
559, 356217251, 0.95449126, 0.09713704, 0.10622097, 0.26120502
560, 356233918, 0.9541369, 0.094131574, 0.11217194, 0.26111192
561, 356250585, 0.9537534, 0.08995148, 0.11814806, 0.26135048
562, 356267252, 0.9533453, 0.08422287, 0.12432391, 0.26188368
563, 356283919, 0.95289963, 0.07857554, 0.13082942, 0.26209152
564, 356300586, 0.95231676, 0.07434056, 0.13789645, 0.26182243
565, 356317253, 0.9515042, 0.07098645, 0.14535984, 0.2616706
566, 356333920, 0.9505814, 0.06733662, 0.15299283, 0.2616377
567, 356350587, 0.94972587, 0.06261743, 0.16057757, 0.26137084
568, 356367254, 0.9488065, 0.057244524, 0.16818845, 0.26115495
569, 356383921, 0.9476759, 0.052683454, 0.17609018, 0.2610118
570, 356400588, 0.94638044, 0.04891837, 0.18439405, 0.2607103
571, 356417255, 0.94507474, 0.044863075, 0.19249879, 0.26031816
572, 356433922, 0.9437352, 0.039702043, 0.20048438, 0.25998837
573, 356450589, 0.9423586, 0.03405225, 0.208435, 0.2595296
574, 356467256, 0.9408481, 0.02884393, 0.21673866, 0.2588383
575, 356483923, 0.9390132, 0.02456857, 0.225621, 0.25835237
576, 356500590, 0.9370318, 0.021130782, 0.23456343, 0.25788578
577, 356517257, 0.9350383, 0.016952736, 0.24335252, 0.2572849
578, 356533924, 0.9329749, 0.012153709, 0.25198838, 0.25673354
579, 356550591, 0.93077505, 0.0071813255, 0.26078308, 0.2561227
580, 356567258, 0.9284307, 0.0020197728, 0.2695977, 0.25559685
581, 356583925, 0.9260151, -0.0038352157, 0.2781508, 0.2551738
582, 356600592, 0.9235555, -0.010741621, 0.28628284, 0.25489634
583, 356617259, 0.92097193, -0.01784215, 0.29440075, 0.25459918
584, 356633926, 0.91828644, -0.023987047, 0.30283448, 0.25390202
585, 356650593, 0.9154971, -0.029199205, 0.3115819, 0.2528422
586, 356667260, 0.91257805, -0.03384092, 0.32052094, 0.25163972
587, 356683927, 0.90953267, -0.038305905, 0.32959926, 0.2502946
588, 356700594, 0.9063782, -0.042257793, 0.33883294, 0.24876751
589, 356717261, 0.9032075, -0.045188304, 0.34828794, 0.24671906
590, 356733928, 0.90001076, -0.048030056, 0.35764602, 0.244465
591, 356750595, 0.89656, -0.051416352, 0.36688423, 0.2427602
592, 356767262, 0.8929584, -0.055206094, 0.3759555, 0.24132009
593, 356783929, 0.88939404, -0.059502266, 0.38468775, 0.23969395
594, 356800596, 0.8857939, -0.06404739, 0.39320686, 0.23802446
595, 356817263, 0.8820487, -0.068425156, 0.40172276, 0.23648891
596, 356833930, 0.87810683, -0.07296911, 0.41012067, 0.23538314
597, 356850597, 0.8739898, -0.07720221, 0.4186055, 0.23441699
598, 356867264, 0.8699279, -0.08080523, 0.4270793, 0.23302263
599, 356883931, 0.8659866, -0.08409172, 0.4353946, 0.23114419
600, 356900598, 0.8620939, -0.08759268, 0.44336206, 0.22924177
601, 356917265, 0.8580493, -0.092082016, 0.45090553, 0.22794035
602, 356933932, 0.8538967, -0.097271234, 0.458075, 0.22708203
603, 356950599, 0.84968555, -0.10274006, 0.46504855, 0.22629389
604, 356967266, 0.84538215, -0.10779705, 0.47202647, 0.22561012
605, 356983933, 0.8412291, -0.112029836, 0.47882184, 0.22475035
606, 357000600, 0.83734375, -0.11638574, 0.4850952, 0.22359009
607, 357017267, 0.8334493, -0.1216033, 0.49076715, 0.22298555
608, 357033934, 0.82945144, -0.12692292, 0.49627063, 0.22274774
609, 357050601, 0.8254856, -0.13170172, 0.5018331, 0.22224309
610, 357067268, 0.82173795, -0.13557877, 0.50740564, 0.22114497
611, 357083935, 0.81829506, -0.13887729, 0.5127154, 0.219612
612, 357100602, 0.8148311, -0.14236942, 0.51780415, 0.2183129
613, 357117269, 0.81132656, -0.14581566, 0.52285695, 0.21704316
614, 357133936, 0.80789256, -0.14861788, 0.5280467, 0.21538152
615, 357150603, 0.80464154, -0.15051924, 0.5333259, 0.21321248
616, 357167270, 0.8015172, -0.15212306, 0.5384964, 0.21083362
617, 357183937, 0.7984005, -0.1542585, 0.5432817, 0.20882116
618, 357200604, 0.7951646, -0.1568272, 0.54783595, 0.20735116
619, 357217271, 0.791758, -0.15967327, 0.55228305, 0.20641561
620, 357233938, 0.78808457, -0.16251273, 0.5568498, 0.20598784
621, 357250605, 0.7842046, -0.16497457, 0.56153834, 0.20611073
622, 357267272, 0.7803067, -0.16718213, 0.5660505, 0.20678163
623, 357283939, 0.7764968, -0.17006764, 0.5700199, 0.20786369
624, 357300606, 0.7726746, -0.17400149, 0.5734884, 0.20930491
625, 357317273, 0.7688829, -0.17802994, 0.5768741, 0.21057267
626, 357333940, 0.7653329, -0.18125682, 0.5804499, 0.21092601
627, 357350607, 0.7618967, -0.1834647, 0.5844365, 0.21044725
628, 357367274, 0.75848424, -0.18513179, 0.5885564, 0.20983176
629, 357383941, 0.7551186, -0.18634373, 0.5927563, 0.20907421
630, 357400608, 0.75181645, -0.18707983, 0.59700733, 0.2082197
631, 357417275, 0.74854857, -0.18738803, 0.60126877, 0.20745277
632, 357433942, 0.7452953, -0.18753244, 0.60550827, 0.20670393
633, 357450609, 0.7422883, -0.18774705, 0.6094669, 0.20569202
634, 357467276, 0.7396684, -0.18801577, 0.6129507, 0.20452943
635, 357483943, 0.73718894, -0.18852414, 0.6160449, 0.20371503
636, 357500610, 0.7346089, -0.18924847, 0.61898685, 0.20344609
637, 357517277, 0.7319042, -0.19018564, 0.6219351, 0.2033288
638, 357533944, 0.7294227, -0.19107771, 0.6247382, 0.20281579
639, 357550611, 0.7274311, -0.19160423, 0.6271777, 0.20194055
640, 357567278, 0.7255885, -0.1923221, 0.6292596, 0.20141079
641, 357583945, 0.7237602, -0.19344732, 0.6309594, 0.2015931
642, 357600612, 0.7219114, -0.19523686, 0.63224566, 0.2024647
643, 357617279, 0.72008187, -0.19782946, 0.63309866, 0.20379375
644, 357633946, 0.7185404, -0.20060806, 0.6335055, 0.20524816
645, 357650613, 0.71729803, -0.20278965, 0.63386357, 0.20634182
646, 357667280, 0.7161526, -0.20429131, 0.6344426, 0.2070583
647, 357683947, 0.71500385, -0.20548433, 0.6350649, 0.20793825
648, 357700614, 0.71387863, -0.20660847, 0.6355818, 0.20910764
649, 357717281, 0.7127737, -0.20770566, 0.63608164, 0.21026734
650, 357733948, 0.71187896, -0.20880792, 0.6363662, 0.21134296
651, 357750615, 0.7112959, -0.20979509, 0.6363805, 0.21228328
652, 357767282, 0.710852, -0.21071488, 0.6362777, 0.2131652
653, 357783949, 0.7104196, -0.2117998, 0.63600236, 0.2143499
654, 357800616, 0.70997304, -0.21308309, 0.6355476, 0.2159011
655, 357817283, 0.7095697, -0.21453942, 0.6349241, 0.21761245
656, 357833950, 0.7092541, -0.21591905, 0.6343237, 0.21902363
657, 357850617, 0.7091088, -0.21683289, 0.6338373, 0.21999648
658, 357867284, 0.70891005, -0.21750017, 0.6335252, 0.22087641
659, 357883951, 0.7085962, -0.21821797, 0.63329977, 0.22181937
660, 357900618, 0.7082763, -0.21899736, 0.6330611, 0.22275293
661, 357917285, 0.70802146, -0.21969664, 0.63283944, 0.22350313
662, 357933952, 0.7079007, -0.22004813, 0.6327185, 0.22388132
663, 357950619, 0.7078549, -0.2200443, 0.63275075, 0.22393857
664, 357967286, 0.7077966, -0.21998902, 0.6328472, 0.22390477
665, 357983953, 0.70769674, -0.22003889, 0.63291085, 0.22399133
666, 358000620, 0.7075611, -0.2201168, 0.6329884, 0.22412404
667, 358017287, 0.70740944, -0.22015345, 0.6331435, 0.22412884
668, 358033954, 0.70724076, -0.22014299, 0.63340485, 0.22393285
669, 358050621, 0.7071439, -0.2200446, 0.63363624, 0.22368036
670, 358067288, 0.7069711, -0.21996832, 0.6339199, 0.22349878
671, 358083955, 0.70674217, -0.2199269, 0.6342427, 0.22334747
672, 358100622, 0.7065363, -0.21985132, 0.63458693, 0.2230955
673, 358117289, 0.7064219, -0.21966422, 0.63491815, 0.22269908
674, 358133956, 0.7063127, -0.21956153, 0.6352354, 0.22224161
675, 358150623, 0.70623565, -0.21966383, 0.6354157, 0.22187012
676, 358167290, 0.70615435, -0.21984553, 0.6355731, 0.22149709
677, 358183957, 0.7060749, -0.2200651, 0.6357273, 0.22108933
678, 358200624, 0.7059831, -0.2201199, 0.63598454, 0.22058739
679, 358217291, 0.7058442, -0.22009635, 0.6363081, 0.22012171
680, 358233958, 0.705732, -0.21993184, 0.6366514, 0.21965288
681, 358250625, 0.7056393, -0.21968937, 0.6369573, 0.21930622
682, 358267292, 0.7054806, -0.21962418, 0.6371784, 0.2192401
683, 358283959, 0.70534945, -0.2197099, 0.63728195, 0.21927519
684, 358300626, 0.7052695, -0.21986555, 0.6373412, 0.21920384
685, 358317293, 0.7052158, -0.22004186, 0.6374136, 0.2189888
686, 358333960, 0.70515853, -0.22005565, 0.6375438, 0.21878086
687, 358350627, 0.70511335, -0.22000405, 0.6376662, 0.21862154
688, 358367294, 0.7051916, -0.21983355, 0.6377715, 0.21823375
689, 358383961, 0.70546263, -0.21959834, 0.63776064, 0.2176245
690, 358400628, 0.70577455, -0.21954004, 0.6376388, 0.21702819
691, 358417295, 0.7059438, -0.21989672, 0.6374389, 0.2167042
692, 358433962, 0.70607114, -0.22061299, 0.63709605, 0.2165693
693, 358450629, 0.70625365, -0.22141242, 0.6366486, 0.21647434
694, 358467296, 0.70646685, -0.22205469, 0.6361569, 0.21656626
695, 358483963, 0.70666057, -0.22258554, 0.63565737, 0.2168557
696, 358500630, 0.7068957, -0.22309297, 0.63504, 0.21737584
697, 358517297, 0.7072608, -0.22355236, 0.6341718, 0.218249
698, 358533964, 0.70766073, -0.22392061, 0.63317704, 0.21945965
699, 358550631, 0.7081465, -0.22394446, 0.63223946, 0.22056943
700, 358567298, 0.70877343, -0.223477, 0.6314575, 0.2212686
701, 358583965, 0.70963365, -0.22269912, 0.6305873, 0.22177652
702, 358600632, 0.71073586, -0.22190577, 0.62944514, 0.22228669
703, 358617299, 0.7120358, -0.22134283, 0.6278971, 0.22306502
704, 358633966, 0.71326655, -0.22134548, 0.6260599, 0.22428986
705, 358650633, 0.71438026, -0.22181407, 0.62408406, 0.2257843
706, 358667300, 0.7157783, -0.22239377, 0.6218152, 0.22704291
707, 358683967, 0.7176304, -0.22304782, 0.61906207, 0.2280761
708, 358700634, 0.7198648, -0.22368538, 0.6159479, 0.22884
709, 358717301, 0.72244185, -0.22427586, 0.61241376, 0.22962506
710, 358733968, 0.7253745, -0.22447674, 0.6086726, 0.23013017
711, 358750635, 0.7286794, -0.22408263, 0.6047529, 0.23040707
712, 358767302, 0.7324498, -0.22316618, 0.60054386, 0.23035033
713, 358783969, 0.7367537, -0.22221936, 0.59573066, 0.23003842
714, 358800636, 0.74132705, -0.2215204, 0.5902147, 0.23023847
715, 358817303, 0.74598867, -0.22067022, 0.5843471, 0.23096308
716, 358833970, 0.7509587, -0.21924762, 0.5782302, 0.23160626
717, 358850637, 0.7565437, -0.21663372, 0.5719262, 0.23154321
718, 358867304, 0.7630551, -0.2128728, 0.5650786, 0.23047413
719, 358883971, 0.7702225, -0.20798497, 0.557905, 0.22856422
720, 358900638, 0.77765685, -0.20167986, 0.55077934, 0.22631268
721, 358917305, 0.78538, -0.19414598, 0.54349524, 0.22382694
722, 358933972, 0.79333, -0.18647121, 0.5355987, 0.22133715
723, 358950639, 0.80141807, -0.17867292, 0.527128, 0.2189551
724, 358967306, 0.8096619, -0.17058462, 0.5180861, 0.21664608
725, 358983973, 0.8179443, -0.16210578, 0.5087031, 0.2142662
726, 359000640, 0.8261638, -0.15326345, 0.49899408, 0.21205881
727, 359017307, 0.83427477, -0.14446604, 0.48882666, 0.210152
728, 359033974, 0.842236, -0.13572863, 0.47829852, 0.20843938
729, 359050641, 0.8500454, -0.12737621, 0.46730232, 0.20694622
730, 359067308, 0.85756576, -0.119189575, 0.4561641, 0.20564348
731, 359083975, 0.864825, -0.110762075, 0.4450153, 0.20437972
732, 359100642, 0.87195885, -0.10186714, 0.4338437, 0.20270796
733, 359117309, 0.87888116, -0.092672415, 0.42266747, 0.20082837
734, 359133976, 0.88529104, -0.08321049, 0.41189206, 0.19920078
735, 359150643, 0.89143604, -0.07361645, 0.40110967, 0.1975693
736, 359167310, 0.89734465, -0.06483465, 0.39013413, 0.19586892
737, 359183977, 0.90282637, -0.056531597, 0.37929818, 0.19452955
738, 359200644, 0.9078654, -0.048586827, 0.36873627, 0.19352919
739, 359217311, 0.912657, -0.040994912, 0.35811818, 0.19268665
740, 359233978, 0.91713935, -0.03408517, 0.34756997, 0.19206467
741, 359250645, 0.92126864, -0.027619878, 0.337363, 0.19153991
742, 359267312, 0.9250377, -0.021131285, 0.3276419, 0.19107519
743, 359283979, 0.9285091, -0.014251649, 0.31827942, 0.1906984
744, 359300646, 0.9318081, -0.007525333, 0.308948, 0.1903372
745, 359317313, 0.93495864, -0.0014197874, 0.2997388, 0.18975577
746, 359333980, 0.93799543, 0.004880039, 0.2906538, 0.18884188
747, 359350647, 0.940767, 0.010988293, 0.28174365, 0.1883013
748, 359367314, 0.94326425, 0.016200291, 0.27289134, 0.18846877
749, 359383981, 0.9456272, 0.01974043, 0.26400805, 0.18894257
750, 359400648, 0.9478721, 0.02267136, 0.25524735, 0.1894027
751, 359417315, 0.9500073, 0.02677019, 0.2468183, 0.18934189
752, 359433982, 0.95191777, 0.032149285, 0.2390078, 0.18892989
753, 359450649, 0.95354545, 0.038152713, 0.2318538, 0.18851915
754, 359467316, 0.95498407, 0.04416085, 0.22512592, 0.18807912
755, 359483983, 0.95623994, 0.04984021, 0.21862248, 0.18795103
756, 359500650, 0.9572784, 0.05515438, 0.21228732, 0.18844171
757, 359517317, 0.9581417, 0.0600547, 0.20605002, 0.18947712
758, 359533984, 0.9591728, 0.063713126, 0.19940923, 0.19016875
759, 359550651, 0.96013236, 0.06705952, 0.1927769, 0.19101304
760, 359567318, 0.9608712, 0.07104575, 0.18656863, 0.19201912
761, 359583985, 0.961464, 0.07553589, 0.18062477, 0.19301838
762, 359600652, 0.9619398, 0.08005584, 0.17491446, 0.19408253
763, 359617319, 0.9623738, 0.084552266, 0.1692593, 0.19503655
764, 359633986, 0.96277016, 0.08895514, 0.16360143, 0.19594707
765, 359650653, 0.9631329, 0.09281159, 0.15793571, 0.19702113
766, 359667320, 0.96354324, 0.095503874, 0.15220782, 0.1982337
767, 359683987, 0.9640025, 0.09721273, 0.14644474, 0.19950618
768, 359700654, 0.96434754, 0.099528, 0.14091878, 0.20067373
769, 359717321, 0.9645373, 0.103202924, 0.13566269, 0.20152618
770, 359733988, 0.96467054, 0.10691266, 0.1305359, 0.20233862
771, 359750655, 0.9648227, 0.109791145, 0.12540811, 0.20331243
772, 359767322, 0.9649554, 0.112714216, 0.12035114, 0.20413785
773, 359783989, 0.9650068, 0.11607147, 0.115378216, 0.20488358
774, 359800656, 0.9649948, 0.119115405, 0.11042756, 0.20591825
775, 359817323, 0.9650345, 0.12124599, 0.10541837, 0.20711084
776, 359833990, 0.9652334, 0.122457944, 0.10034348, 0.2079903
777, 359850657, 0.96554774, 0.12271703, 0.09527303, 0.20876157
778, 359867324, 0.9657963, 0.122723676, 0.09030198, 0.20981415
779, 359883991, 0.965944, 0.123079136, 0.08553735, 0.21092002
780, 359900658, 0.9660815, 0.12349644, 0.08105641, 0.21181418
781, 359917325, 0.96617824, 0.12393324, 0.077000365, 0.21262936
782, 359933992, 0.96624684, 0.124309465, 0.073128045, 0.21346338
783, 359950659, 0.9662373, 0.12473236, 0.069496594, 0.21447068
784, 359967326, 0.9662676, 0.124441095, 0.066217944, 0.21553849
785, 359983993, 0.9664371, 0.122519, 0.06312316, 0.2168037
786, 360000660, 0.9665802, 0.120335415, 0.06068127, 0.21808217
787, 360017327, 0.9665838, 0.11963624, 0.05914345, 0.21887246
788, 360033994, 0.9664973, 0.120013386, 0.058248434, 0.21928719
789, 360050661, 0.9663281, 0.12034637, 0.057892196, 0.21994367
790, 360067328, 0.9660904, 0.120555475, 0.058020413, 0.22083765
791, 360083995, 0.9658099, 0.121368304, 0.058433916, 0.22150983
792, 360100662, 0.96546376, 0.12249401, 0.05910957, 0.22221883
793, 360117329, 0.96514773, 0.12310356, 0.059894565, 0.2230424
794, 360133996, 0.9648479, 0.123783685, 0.060771182, 0.22372568
795, 360150663, 0.96452874, 0.12516017, 0.06172238, 0.22407508
796, 360167330, 0.9642328, 0.12647049, 0.06274034, 0.22433022
797, 360183997, 0.96404004, 0.12671137, 0.063604586, 0.2247793
798, 360200664, 0.96397007, 0.1258714, 0.06417368, 0.22538863
799, 360217331, 0.96398693, 0.124566615, 0.06457934, 0.22592445
800, 360233998, 0.96396226, 0.123665005, 0.065015286, 0.22639966
801, 360250665, 0.96386665, 0.12344833, 0.06558542, 0.2267603
802, 360267332, 0.9637973, 0.123026, 0.066246934, 0.2270922
803, 360283999, 0.9637352, 0.122471824, 0.06701263, 0.2274303
804, 360300666, 0.96363574, 0.12235714, 0.06785214, 0.22766411
805, 360317333, 0.9635065, 0.12258676, 0.0687665, 0.22781385
806, 360334000, 0.96340364, 0.12254273, 0.06958108, 0.22802448
807, 360350667, 0.9633297, 0.12213621, 0.07031833, 0.22832888
808, 360367334, 0.96328413, 0.12152563, 0.07103954, 0.22862361
809, 360384001, 0.9632666, 0.120833166, 0.0717768, 0.22883417
810, 360400668, 0.9632757, 0.12009727, 0.07257614, 0.22893126
811, 360417335, 0.9632946, 0.119486555, 0.07339705, 0.22890967
812, 360434002, 0.9633098, 0.11874419, 0.07411993, 0.22899862
813, 360450669, 0.9633239, 0.11779687, 0.07474814, 0.22922452
814, 360467336, 0.96338224, 0.11665374, 0.07533203, 0.22937252
815, 360484003, 0.96344453, 0.11584693, 0.07590687, 0.2293303
816, 360500670, 0.9634637, 0.11558462, 0.07652882, 0.22917537
817, 360517337, 0.9635062, 0.11506099, 0.07699523, 0.2291042
818, 360534004, 0.9635949, 0.114029385, 0.077378646, 0.2291172
819, 360550671, 0.9637148, 0.11307664, 0.0776942, 0.22897922
820, 360567338, 0.96379805, 0.112766944, 0.07796992, 0.22868705
821, 360584005, 0.9638706, 0.112489335, 0.07819989, 0.22843917
822, 360600672, 0.9639642, 0.1116966, 0.07832304, 0.22839119
823, 360617339, 0.9640796, 0.110790625, 0.07838327, 0.2283246
824, 360634006, 0.9641634, 0.11067058, 0.078453384, 0.2280045
825, 360650673, 0.9642019, 0.111020885, 0.078563295, 0.22763318
826, 360667340, 0.9642328, 0.11118583, 0.07868083, 0.22738092
827, 360684007, 0.96433103, 0.11098115, 0.07873972, 0.22704414
828, 360700674, 0.96447766, 0.11042281, 0.07866547, 0.22671954
829, 360717341, 0.964608, 0.10985223, 0.07858768, 0.2264684
830, 360734008, 0.96473086, 0.10950075, 0.078574196, 0.22611953
831, 360750675, 0.9648487, 0.109390505, 0.07867304, 0.22563533
832, 360767342, 0.9649354, 0.109404214, 0.07882379, 0.22520529
833, 360784009, 0.9649779, 0.10941777, 0.07902881, 0.22494441
834, 360800676, 0.96503246, 0.10933182, 0.07925637, 0.22467196
835, 360817343, 0.965088, 0.109336436, 0.07957757, 0.22431724
836, 360834010, 0.965136, 0.10950978, 0.07996512, 0.22388843
837, 360850677, 0.96519744, 0.10946338, 0.08037782, 0.22349823
838, 360867344, 0.96525955, 0.10909678, 0.08075067, 0.22327362
839, 360884011, 0.9653232, 0.108604334, 0.08113488, 0.2231001
840, 360900678, 0.96535677, 0.108403616, 0.08162596, 0.22287291
841, 360917345, 0.9653353, 0.1087827, 0.08222091, 0.22256184
842, 360934012, 0.96530193, 0.10933055, 0.08283633, 0.22221035
843, 360950679, 0.9652605, 0.109807044, 0.08341989, 0.2219364
844, 360967346, 0.96525544, 0.110050805, 0.083971724, 0.2216293
845, 360984013, 0.9652863, 0.10995005, 0.08445473, 0.2213612
846, 361000680, 0.9653381, 0.10954108, 0.08481386, 0.22120057
847, 361017347, 0.96537536, 0.10894443, 0.08513166, 0.22121117
848, 361034014, 0.96539277, 0.108539395, 0.08542257, 0.22122215
849, 361050681, 0.9653745, 0.10860037, 0.08576718, 0.2211378
850, 361067348, 0.96534795, 0.108835064, 0.086173765, 0.22098073
851, 361084015, 0.96529734, 0.10911526, 0.08670161, 0.22085701
852, 361100682, 0.96526587, 0.10900842, 0.087156706, 0.22086819
853, 361117349, 0.96521056, 0.10894473, 0.08747992, 0.22101389
854, 361134016, 0.9651423, 0.10905416, 0.08783879, 0.22111563
855, 361150683, 0.9650974, 0.10909435, 0.08815906, 0.22116376
856, 361167350, 0.9650535, 0.10890145, 0.08855638, 0.2212918
857, 361184017, 0.9649816, 0.10853619, 0.088957846, 0.22162364
858, 361200684, 0.9648671, 0.10849022, 0.089352004, 0.22198567
859, 361217351, 0.964738, 0.108881675, 0.0897141, 0.22220854
860, 361234018, 0.9646164, 0.10924996, 0.090052254, 0.22241965
861, 361250685, 0.9645, 0.10930959, 0.09042354, 0.22274381
862, 361267352, 0.9643657, 0.109311834, 0.090895995, 0.22313145
863, 361284019, 0.9642494, 0.10949381, 0.09136594, 0.2233532
864, 361300686, 0.96415126, 0.1095387, 0.09171323, 0.22361249
865, 361317353, 0.9640562, 0.10929494, 0.09205405, 0.22400044
866, 361334020, 0.963956, 0.10894712, 0.09244235, 0.2244416
867, 361350687, 0.96383154, 0.10889663, 0.09286541, 0.22482565
868, 361367354, 0.9636772, 0.10902179, 0.093232565, 0.22527382
869, 361384021, 0.9635109, 0.109148204, 0.09361739, 0.2257643
870, 361400688, 0.9633668, 0.10925161, 0.09401616, 0.22616287
871, 361417355, 0.96322817, 0.1094562, 0.09449102, 0.22645573
872, 361434022, 0.963106, 0.10956476, 0.094892815, 0.22675481
873, 361450689, 0.96296, 0.10933797, 0.09527436, 0.22732382
874, 361467356, 0.9628349, 0.109108, 0.09558401, 0.22783406
875, 361484023, 0.96273595, 0.10919011, 0.09588718, 0.22808544
876, 361500690, 0.9626168, 0.109573625, 0.096294634, 0.22823218
877, 361517357, 0.96247524, 0.11001414, 0.09668158, 0.2284537
878, 361534024, 0.96232516, 0.11017922, 0.09701301, 0.22886555
879, 361550691, 0.9622033, 0.11012694, 0.097226836, 0.22931191
880, 361567358, 0.962109, 0.11013999, 0.097376496, 0.22963756
881, 361584025, 0.96203005, 0.11018584, 0.09754617, 0.2298741
882, 361600692, 0.96192646, 0.11010443, 0.0978278, 0.23022671
883, 361617359, 0.96181285, 0.109874584, 0.098114155, 0.23068868
884, 361634026, 0.9617123, 0.109526336, 0.09840957, 0.23114747
885, 361650693, 0.96161026, 0.10931579, 0.098785706, 0.23151097
886, 361667360, 0.9614997, 0.10920962, 0.09924363, 0.23182443
887, 361684027, 0.9613532, 0.10927554, 0.09970551, 0.232202
888, 361700694, 0.9611933, 0.109339036, 0.10021771, 0.23261331
889, 361717361, 0.9610572, 0.109284826, 0.10071583, 0.23298565
890, 361734028, 0.96095514, 0.109114766, 0.10118016, 0.23328495
891, 361750695, 0.9608676, 0.10881056, 0.10160298, 0.23360392
892, 361767362, 0.9607824, 0.10831446, 0.101991765, 0.23401493
893, 361784029, 0.96068394, 0.10787153, 0.1023817, 0.23445293
894, 361800696, 0.96059513, 0.10755087, 0.10282225, 0.23477124
895, 361817363, 0.9605052, 0.107366905, 0.10340835, 0.23496564
896, 361834030, 0.96040684, 0.107284606, 0.10398628, 0.23515037
897, 361850697, 0.9602935, 0.10714243, 0.104550004, 0.23542832
898, 361867364, 0.96020544, 0.10669545, 0.10506077, 0.23576204
899, 361884031, 0.9601253, 0.106264226, 0.10548517, 0.23609337
900, 361900698, 0.96003854, 0.10597415, 0.10594631, 0.23637077
901, 361917365, 0.95994484, 0.105776824, 0.10640277, 0.23663418
902, 361934032, 0.9598403, 0.10556857, 0.10686027, 0.23694524
903, 361950699, 0.95972544, 0.10521026, 0.10725776, 0.23738924
904, 361967366, 0.9595864, 0.104876116, 0.10768804, 0.2379046
905, 361984033, 0.95944977, 0.104867436, 0.10811694, 0.23826404
906, 362000700, 0.9593189, 0.10508614, 0.10850813, 0.23851708
907, 362017367, 0.959202, 0.10511831, 0.10884065, 0.2388214
908, 362034034, 0.9590855, 0.10504112, 0.10913007, 0.23919058
