DeviceTag:,Xsens DOT 5,,,,,,,,,,,,,,,,,
FirmwareVersion:,1.3.0,,,,,,,,,,,,,,,,,
AppVersion:,2020.1.1,,,,,,,,,,,,,,,,,
Measurement Mode:,Sensor fusion Mode - Orientation (Quaternion),,,,,,,,,,,,,,,,,
StartTime:,2020-08-11 15:42:21.284 +0200,,,,,,,,,,,,,,,,,
© Xsens Technologies B. V. 2005-2020,,,,,,,,,,,,,,,,,,,
PacketCounter,SampleTimeFine,Quat_W,Quat_X,Quat_Y,Quat_Z
1, 290050260, 0.99565136, 0.07969095, 0.047903106, -0.0057322774
2, 290066927, 0.9957324, 0.07886203, 0.047629237, -0.005407875
3, 290083594, 0.99577534, 0.07861024, 0.04715118, -0.0053672213
4, 290100261, 0.9957728, 0.07861955, 0.0471891, -0.005359692
5, 290116928, 0.9957394, 0.07897814, 0.047304258, -0.0052950145
6, 290133595, 0.99572754, 0.079178356, 0.047210213, -0.0053569484
7, 290150262, 0.9957298, 0.07924711, 0.04706645, -0.005188825
8, 290166929, 0.9957225, 0.0794341, 0.046943147, -0.004852569
9, 290183596, 0.99571025, 0.07965468, 0.046827387, -0.0048490874
10, 290200263, 0.99571294, 0.079719655, 0.04668565, -0.0045870747
11, 290216930, 0.9957188, 0.079747126, 0.04651433, -0.0045711272
12, 290233597, 0.99573934, 0.0795433, 0.04643988, -0.0044172825
13, 290250264, 0.99576, 0.07929178, 0.04643836, -0.0043115914
14, 290266931, 0.99575734, 0.07934662, 0.046418037, -0.004114821
15, 290283598, 0.99572724, 0.07983085, 0.04621431, -0.0043491516
16, 290300265, 0.9957012, 0.08027089, 0.04603816, -0.0040231594
17, 290316932, 0.9956951, 0.08040022, 0.045970082, -0.0037420527
18, 290333599, 0.9957061, 0.08029837, 0.04585993, -0.004312325
19, 290350266, 0.9957202, 0.08020691, 0.045687407, -0.004582505
20, 290366933, 0.99571127, 0.08044406, 0.045489766, -0.0043224655
21, 290383600, 0.9956875, 0.08087018, 0.045265634, -0.0041994075
22, 290400267, 0.9956631, 0.08128389, 0.045056436, -0.0042357123
23, 290416934, 0.99564683, 0.08159068, 0.044833574, -0.004526221
24, 290433601, 0.99564815, 0.08163834, 0.044697467, -0.004693458
25, 290450268, 0.9956461, 0.08173737, 0.044567883, -0.00465827
26, 290466935, 0.9956315, 0.08199115, 0.04440949, -0.0048225466
27, 290483602, 0.99561846, 0.08220909, 0.044299796, -0.004814585
28, 290500269, 0.9956235, 0.08218967, 0.044235162, -0.004685135
29, 290516936, 0.9956307, 0.08209458, 0.044266135, -0.004537624
30, 290533603, 0.99561983, 0.082205586, 0.04432146, -0.0043715895
31, 290550270, 0.9955784, 0.08269343, 0.0443473, -0.0043562017
32, 290566937, 0.9955288, 0.08329137, 0.04434356, -0.0043144217
33, 290583604, 0.9954908, 0.08372131, 0.044391938, -0.004288909
34, 290600271, 0.99546766, 0.083935395, 0.044516206, -0.004191484
35, 290616938, 0.9954515, 0.084059194, 0.044653594, -0.0040589864
36, 290633605, 0.9954216, 0.084422454, 0.044645615, -0.003944327
37, 290650272, 0.9953719, 0.085018635, 0.044599753, -0.0041921223
38, 290666939, 0.9953444, 0.08532212, 0.044624425, -0.0042921742
39, 290683606, 0.9953452, 0.085276715, 0.044695392, -0.004290174
40, 290700273, 0.9953552, 0.08516632, 0.044681784, -0.004276374
41, 290716940, 0.99534965, 0.08529015, 0.04456667, -0.004330875
42, 290733607, 0.995329, 0.08556907, 0.044504434, -0.0041938797
43, 290750274, 0.9953193, 0.085687876, 0.044506274, -0.0040473123
44, 290766941, 0.99532336, 0.08568531, 0.044436544, -0.0038638483
45, 290783608, 0.99531764, 0.08581516, 0.044298306, -0.0040398194
46, 290800275, 0.99531984, 0.08585075, 0.04416003, -0.004252463
47, 290816942, 0.9953364, 0.08568525, 0.044121675, -0.004115128
48, 290833609, 0.9953643, 0.08542148, 0.04401962, -0.003952612
49, 290850276, 0.99537, 0.08543094, 0.043853015, -0.0041555446
50, 290866943, 0.9953683, 0.08550541, 0.043729696, -0.004310427
51, 290883610, 0.9953752, 0.08546208, 0.043649416, -0.004389613
52, 290900277, 0.995377, 0.085495904, 0.043496735, -0.0048164506
53, 290916944, 0.9953824, 0.0854913, 0.04336031, -0.005001477
54, 290933611, 0.9953938, 0.08539062, 0.04329184, -0.0050474703
55, 290950278, 0.9954084, 0.08523811, 0.043252006, -0.005100017
56, 290966945, 0.9954069, 0.0852936, 0.043160625, -0.0052327
57, 290983612, 0.9954037, 0.08536478, 0.043092407, -0.0052400734
58, 291000279, 0.9954087, 0.08527061, 0.043115087, -0.0056251897
59, 291016946, 0.9954206, 0.08508228, 0.04321667, -0.005600123
60, 291033613, 0.9954021, 0.085312665, 0.043184984, -0.0056194165
61, 291050280, 0.99537426, 0.08564778, 0.043181878, -0.0054760417
62, 291066947, 0.9953696, 0.08567699, 0.043243974, -0.005369048
63, 291083614, 0.995396, 0.08524993, 0.04349937, -0.005209761
64, 291100281, 0.99541885, 0.08487622, 0.043718435, -0.005115599
65, 291116948, 0.9954165, 0.08482923, 0.043861113, -0.0051430296
66, 291133615, 0.9954084, 0.08484941, 0.04398183, -0.0053194426
67, 291150282, 0.995402, 0.08481902, 0.04421182, -0.005106963
68, 291166949, 0.99540126, 0.084709145, 0.0444625, -0.004888194
69, 291183616, 0.995399, 0.08466214, 0.04460005, -0.004904961
70, 291200283, 0.99540585, 0.0845297, 0.044699967, -0.004888472
71, 291216950, 0.9954292, 0.08419685, 0.04482459, -0.0047417586
72, 291233617, 0.99544513, 0.08395314, 0.044969752, -0.0043392153
73, 291250284, 0.99544275, 0.0839767, 0.04499829, -0.0041026133
74, 291266951, 0.9954159, 0.08431919, 0.044958927, -0.0040233117
75, 291283618, 0.9954094, 0.08436402, 0.044998948, -0.004237484
76, 291300285, 0.9954305, 0.084048875, 0.045180093, -0.00358024
77, 291316952, 0.9954458, 0.0838547, 0.045214012, -0.0034714525
78, 291333619, 0.9954291, 0.08407445, 0.045161016, -0.0035933224
79, 291350286, 0.9953934, 0.08450598, 0.045127235, -0.0037727372
80, 291366953, 0.99537456, 0.08466309, 0.04522278, -0.004083933
81, 291383620, 0.99539447, 0.084359206, 0.045365024, -0.0039376677
82, 291400287, 0.9954275, 0.0839183, 0.045468036, -0.0038083245
83, 291416954, 0.99546885, 0.08335562, 0.04559804, -0.003814582
84, 291433621, 0.9955125, 0.082702145, 0.04584896, -0.0036399756
85, 291450288, 0.9955372, 0.08228678, 0.04608462, -0.0033352377
86, 291466955, 0.9955318, 0.08227499, 0.046235014, -0.0031187616
87, 291483622, 0.9955024, 0.08255516, 0.04639931, -0.0026211278
88, 291500289, 0.99546766, 0.082862146, 0.04658955, -0.0027387086
89, 291516956, 0.99544585, 0.08298818, 0.04684953, -0.0024512275
90, 291533623, 0.9954351, 0.08298736, 0.04706368, -0.0026634652
91, 291550290, 0.99543273, 0.082899675, 0.04725764, -0.0028741923
92, 291566957, 0.99543625, 0.08269285, 0.047527734, -0.0031224852
93, 291583624, 0.9954312, 0.082581475, 0.04782305, -0.0032086188
94, 291600291, 0.99540466, 0.08278916, 0.048001513, -0.0033892924
95, 291616958, 0.99537206, 0.083107896, 0.048109945, -0.0036185912
96, 291633625, 0.9953607, 0.08315577, 0.048259806, -0.0036627005
97, 291650292, 0.99536234, 0.08299543, 0.048519015, -0.0034042506
98, 291666959, 0.9953718, 0.082701094, 0.04885131, -0.0030489536
99, 291683626, 0.99536264, 0.082684256, 0.04901934, -0.0037159715
100, 291700293, 0.99537337, 0.08239886, 0.049254417, -0.0040642894
101, 291716960, 0.99542296, 0.08157947, 0.04961792, -0.004012307
102, 291733627, 0.99547803, 0.08067065, 0.05001867, -0.0037589981
103, 291750294, 0.99549747, 0.08028777, 0.050246954, -0.003745766
104, 291766961, 0.99549216, 0.08026821, 0.05038677, -0.0036863089
105, 291783628, 0.9954851, 0.08024794, 0.050555125, -0.0037079973
106, 291800295, 0.9954889, 0.08007519, 0.050755136, -0.0037177114
107, 291816962, 0.9954843, 0.08008594, 0.050835744, -0.0036378768
108, 291833629, 0.9954679, 0.08029271, 0.05082837, -0.003658407
109, 291850296, 0.9954552, 0.08040772, 0.050882496, -0.0038091491
110, 291866963, 0.99546635, 0.08017751, 0.05101975, -0.0039274506
111, 291883630, 0.9954851, 0.07986499, 0.05115961, -0.0036940097
112, 291900297, 0.99548507, 0.079875596, 0.05114474, -0.0037067079
113, 291916964, 0.9954628, 0.0801736, 0.051098548, -0.0038833744
114, 291933631, 0.9954529, 0.08027147, 0.05112099, -0.004077992
115, 291950298, 0.9954417, 0.08036853, 0.051191345, -0.0040402147
116, 291966965, 0.9954235, 0.08060007, 0.05116035, -0.0042984113
117, 291983632, 0.99541354, 0.080723286, 0.05114954, -0.004412716
118, 292000299, 0.9954147, 0.08066372, 0.051197376, -0.004692427
119, 292016966, 0.99541074, 0.080612965, 0.0513428, -0.0047860513
120, 292033633, 0.9953927, 0.08080376, 0.051399525, -0.004735098
121, 292050300, 0.99536484, 0.08116128, 0.05135819, -0.0049192673
122, 292066967, 0.99535894, 0.08122309, 0.05137568, -0.0048889066
123, 292083634, 0.9953619, 0.081176534, 0.05139185, -0.004911377
124, 292100301, 0.9953606, 0.08121287, 0.051342167, -0.0050669815
125, 292116968, 0.9953611, 0.081234336, 0.051298894, -0.00507345
126, 292133635, 0.9953603, 0.08128133, 0.05124042, -0.0050610816
127, 292150302, 0.995361, 0.081279755, 0.051215928, -0.005209209
128, 292166969, 0.99536836, 0.08122698, 0.051143326, -0.005336701
129, 292183636, 0.99535114, 0.08145107, 0.05111506, -0.0054131276
130, 292200303, 0.9953309, 0.08166323, 0.05113909, -0.0056837266
131, 292216970, 0.99531466, 0.08178802, 0.051254142, -0.005706423
132, 292233637, 0.99530756, 0.08177027, 0.051412724, -0.0057688
133, 292250304, 0.99528915, 0.08194032, 0.051496077, -0.005788415
134, 292266971, 0.9952477, 0.08241312, 0.051538248, -0.0058399634
135, 292283638, 0.9952057, 0.082820885, 0.051674046, -0.0060276864
136, 292300305, 0.9951752, 0.083028816, 0.051921185, -0.0060814223
137, 292316972, 0.99516463, 0.083020575, 0.052123647, -0.00618167
138, 292333639, 0.9951508, 0.08309143, 0.052281503, -0.006123991
139, 292350306, 0.99512315, 0.08330995, 0.052446537, -0.006227462
140, 292366973, 0.99508536, 0.08359227, 0.05267541, -0.00655535
141, 292383640, 0.99503726, 0.083928324, 0.053027242, -0.006717397
142, 292400307, 0.9949784, 0.08436785, 0.05341524, -0.006852314
143, 292416974, 0.994908, 0.08489898, 0.05384827, -0.00711823
144, 292433641, 0.994823, 0.085578695, 0.054339238, -0.0071257595
145, 292450308, 0.994723, 0.086317636, 0.054963913, -0.007384715
146, 292466975, 0.9946298, 0.08694976, 0.05563481, -0.007504003
147, 292483642, 0.994548, 0.087424204, 0.056327246, -0.007652041
148, 292500309, 0.99449086, 0.08753159, 0.057151664, -0.007741618
149, 292516976, 0.9944177, 0.08774816, 0.05806244, -0.007904832
150, 292533643, 0.9943149, 0.088225886, 0.05907675, -0.008005423
151, 292550310, 0.9941986, 0.088828005, 0.060087223, -0.008281337
152, 292566977, 0.9940981, 0.08920749, 0.06117769, -0.00827055
153, 292583644, 0.9940316, 0.08910896, 0.06239921, -0.008190886
154, 292600311, 0.99395996, 0.08894661, 0.06370601, -0.008584026
155, 292616978, 0.9938589, 0.08910709, 0.06502426, -0.008743527
156, 292633645, 0.9937351, 0.08943762, 0.06642556, -0.0089093335
157, 292650312, 0.99361897, 0.08958359, 0.06790684, -0.009214647
158, 292666979, 0.99349755, 0.08964601, 0.069533095, -0.0095606055
159, 292683646, 0.9933885, 0.08956029, 0.07117079, -0.009656208
160, 292700313, 0.9932731, 0.089451045, 0.07288245, -0.009766769
161, 292716980, 0.9931476, 0.08934027, 0.07469215, -0.009866373
162, 292733647, 0.9930102, 0.08923733, 0.076636754, -0.009712449
163, 292750314, 0.9928471, 0.089372054, 0.078550495, -0.00987166
164, 292766981, 0.99267656, 0.089533, 0.080493376, -0.009901086
165, 292783648, 0.9925094, 0.089482635, 0.08257808, -0.009935554
166, 292800315, 0.9923311, 0.08930907, 0.08488265, -0.009891896
167, 292816982, 0.9921325, 0.08925459, 0.08726379, -0.009579691
168, 292833649, 0.99192196, 0.08925464, 0.08962112, -0.009618831
169, 292850316, 0.99170893, 0.08916774, 0.09201396, -0.009796729
170, 292866983, 0.99148875, 0.08896365, 0.094559014, -0.009715852
171, 292883650, 0.99125266, 0.08878844, 0.09715738, -0.009768805
172, 292900317, 0.99100906, 0.088679336, 0.09972293, -0.009605426
173, 292916984, 0.9907692, 0.08842639, 0.102307975, -0.009520394
174, 292933651, 0.9905229, 0.08806491, 0.10498349, -0.009359964
175, 292950318, 0.99023724, 0.08792606, 0.10775863, -0.0093490025
176, 292966985, 0.98986965, 0.08854924, 0.110590056, -0.009325959
177, 292983652, 0.98940665, 0.09013006, 0.113401376, -0.009560635
178, 293000319, 0.9888558, 0.092439845, 0.11629028, -0.009782373
179, 293016986, 0.9882635, 0.094784155, 0.11936563, -0.010167125
180, 293033653, 0.98766905, 0.09687451, 0.122531235, -0.010548307
181, 293050320, 0.98707473, 0.098963946, 0.1256076, -0.010609455
182, 293066987, 0.9865046, 0.10055785, 0.128763, -0.010818114
183, 293083654, 0.98597986, 0.10135211, 0.13211358, -0.01084589
184, 293100321, 0.98552364, 0.10136724, 0.13545023, -0.011007795
185, 293116988, 0.9851047, 0.10104852, 0.13869458, -0.011041732
186, 293133655, 0.9847273, 0.100207016, 0.14195198, -0.010966212
187, 293150322, 0.98435795, 0.099051125, 0.14529271, -0.010886971
188, 293166989, 0.98395413, 0.098124646, 0.1486004, -0.011123434
189, 293183656, 0.9834778, 0.0983192, 0.1515517, -0.0117072
190, 293200323, 0.98290086, 0.09990488, 0.15416595, -0.012565475
191, 293216990, 0.98229414, 0.10184599, 0.15666917, -0.013436599
192, 293233657, 0.98171496, 0.10337945, 0.15920526, -0.014218487
193, 293250324, 0.98120815, 0.10443729, 0.16157347, -0.014755217
194, 293266991, 0.98076767, 0.10514294, 0.16375135, -0.0150113795
195, 293283658, 0.98038524, 0.10532282, 0.16590144, -0.0151307285
196, 293300325, 0.9800276, 0.10507029, 0.16814695, -0.015262089
197, 293316992, 0.97968197, 0.10457945, 0.17045514, -0.015220232
198, 293333659, 0.97932434, 0.1042174, 0.17273691, -0.014993194
199, 293350326, 0.97894716, 0.1038584, 0.17508475, -0.0148738725
200, 293366993, 0.97852874, 0.10380149, 0.1774489, -0.014782067
201, 293383660, 0.97802716, 0.104476385, 0.17980565, -0.014752419
202, 293400327, 0.9775037, 0.10500755, 0.18233025, -0.014682663
203, 293416994, 0.97694963, 0.105617516, 0.18493715, -0.014580375
204, 293433661, 0.97632396, 0.106671795, 0.18760517, -0.01473977
205, 293450328, 0.9756589, 0.10781228, 0.19037077, -0.015011224
206, 293466995, 0.9750744, 0.10825915, 0.19310765, -0.014809776
207, 293483662, 0.97453463, 0.10805388, 0.19596346, -0.014319953
208, 293500329, 0.97395724, 0.10792535, 0.19889738, -0.014123023
209, 293516996, 0.9732377, 0.10907102, 0.20175843, -0.014340779
210, 293533663, 0.9724519, 0.11095475, 0.20448723, -0.014548736
211, 293550330, 0.97169346, 0.11248582, 0.20723733, -0.014555046
212, 293566997, 0.97100216, 0.11300238, 0.21017808, -0.014507901
213, 293583664, 0.9702776, 0.113315, 0.21331297, -0.0147915995
214, 293600331, 0.969411, 0.11440827, 0.2165851, -0.015622361
215, 293616998, 0.96840405, 0.116193935, 0.22002956, -0.016718492
216, 293633665, 0.9673599, 0.11793274, 0.22358489, -0.017791297
217, 293650332, 0.966374, 0.118767425, 0.22731249, -0.018563734
218, 293666999, 0.96550184, 0.11861796, 0.23103563, -0.01893172
219, 293683666, 0.9647024, 0.11811224, 0.23461004, -0.018896202
220, 293700333, 0.9639226, 0.117184766, 0.23827125, -0.018655099
221, 293717000, 0.96310204, 0.1158411, 0.24223644, -0.018354509
222, 293733667, 0.96222514, 0.11442449, 0.24637893, -0.01809301
223, 293750334, 0.96130484, 0.11316767, 0.25053456, -0.01785112
224, 293767001, 0.96037585, 0.11185481, 0.254678, -0.017492086
225, 293783668, 0.9593664, 0.1106117, 0.2590012, -0.017316673
226, 293800335, 0.95824486, 0.109511636, 0.26357636, -0.017372156
227, 293817002, 0.9569709, 0.10869651, 0.268485, -0.017549677
228, 293833669, 0.95557654, 0.10802427, 0.27364868, -0.017908944
229, 293850336, 0.95410115, 0.10678804, 0.27920035, -0.018298578
230, 293867003, 0.9526165, 0.105026364, 0.28487837, -0.018328153
231, 293883670, 0.951152, 0.10333808, 0.2903658, -0.01785637
232, 293900337, 0.94967973, 0.10161819, 0.2957714, -0.017362477
233, 293917004, 0.94812685, 0.09969181, 0.3013886, -0.016788624
234, 293933671, 0.94643635, 0.098140016, 0.30718455, -0.016272143
235, 293950338, 0.9446435, 0.09682537, 0.3130883, -0.015789242
236, 293967005, 0.9428486, 0.09539674, 0.31890538, -0.01533806
237, 293983672, 0.94101137, 0.093739346, 0.3247969, -0.014758316
238, 294000339, 0.9391062, 0.09216084, 0.33072722, -0.014333596
239, 294017006, 0.9370634, 0.09115318, 0.3367594, -0.01402797
240, 294033673, 0.9348638, 0.0906018, 0.34297076, -0.013867856
241, 294050340, 0.93252736, 0.09027999, 0.34934822, -0.014082256
242, 294067007, 0.930111, 0.08949748, 0.35590863, -0.014591448
243, 294083674, 0.9276838, 0.0879589, 0.3625602, -0.01470677
244, 294100341, 0.9252052, 0.08608727, 0.36930433, -0.014105419
245, 294117008, 0.9226191, 0.0839673, 0.3762323, -0.013146871
246, 294133675, 0.9199448, 0.08198593, 0.38318416, -0.012245397
247, 294150342, 0.9172361, 0.08025956, 0.38999605, -0.011816356
248, 294167009, 0.9144339, 0.07859446, 0.3968693, -0.011335279
249, 294183676, 0.9115621, 0.07681399, 0.40378484, -0.010602331
250, 294200343, 0.90858656, 0.07496498, 0.41079664, -0.009858015
251, 294217010, 0.90550184, 0.07354874, 0.4178103, -0.009567675
252, 294233677, 0.9023822, 0.07252146, 0.42467713, -0.009827266
253, 294250344, 0.89915675, 0.070676655, 0.43176737, -0.009955249
254, 294267011, 0.8958592, 0.06717953, 0.43912914, -0.009432136
255, 294283678, 0.8924309, 0.06301602, 0.4466752, -0.008811393
256, 294300345, 0.8889034, 0.05925223, 0.4541651, -0.008609918
257, 294317012, 0.88539845, 0.05646663, 0.46130615, -0.008828694
258, 294333679, 0.881962, 0.054004397, 0.46813235, -0.008881762
259, 294350346, 0.8786537, 0.051239144, 0.474629, -0.008347262
260, 294367013, 0.87541544, 0.04834611, 0.4808837, -0.007852687
261, 294383680, 0.8722532, 0.045471776, 0.48687837, -0.0075061037
262, 294400347, 0.8691438, 0.042768594, 0.49265355, -0.007250745
263, 294417014, 0.86605734, 0.03986739, 0.49830654, -0.006799062
264, 294433681, 0.8630214, 0.036729164, 0.5037927, -0.00616719
265, 294450348, 0.86002904, 0.033779643, 0.50909495, -0.005637463
266, 294467015, 0.85709417, 0.031197397, 0.51418847, -0.005143213
267, 294483682, 0.8541537, 0.028884375, 0.51919776, -0.004586585
268, 294500349, 0.8511885, 0.026557455, 0.5241713, -0.0041669575
269, 294517016, 0.8482353, 0.024141127, 0.5290566, -0.003672109
270, 294533683, 0.84526575, 0.02173515, 0.5338938, -0.003282764
271, 294550350, 0.84224445, 0.019198691, 0.5387466, -0.0028741315
272, 294567017, 0.83905554, 0.016311347, 0.54379666, -0.0022532486
273, 294583684, 0.8357131, 0.012842962, 0.549015, -0.0012162317
274, 294600351, 0.8322049, 0.009300693, 0.5543905, -1.5880735E-4
275, 294617018, 0.8286636, 0.0058174613, 0.5597169, 3.5195312E-4
276, 294633685, 0.8251916, 0.0016309946, 0.5648493, 0.0011823846
277, 294650352, 0.821687, -0.003685784, 0.5699178, 0.003292568
278, 294667019, 0.8179775, -0.009690625, 0.57513356, 0.0063631544
279, 294683686, 0.8141704, -0.015584875, 0.5803388, 0.009532143
280, 294700353, 0.8105774, -0.020395504, 0.58515054, 0.012136561
281, 294717020, 0.80715287, -0.023835188, 0.58969384, 0.014054898
282, 294733687, 0.8037989, -0.026652917, 0.59409696, 0.015686266
283, 294750354, 0.80048573, -0.029389502, 0.59838134, 0.017287128
284, 294767021, 0.7972463, -0.03175834, 0.6025248, 0.018809281
285, 294783688, 0.7940907, -0.033809517, 0.6065182, 0.02032249
286, 294800355, 0.7909016, -0.035837054, 0.61049694, 0.021994496
287, 294817022, 0.78766775, -0.03792678, 0.6144803, 0.023566155
288, 294833689, 0.7845588, -0.039984405, 0.61826855, 0.024768919
289, 294850356, 0.7815884, -0.041706074, 0.6218646, 0.025783926
290, 294867023, 0.7786059, -0.043408524, 0.6254215, 0.02714285
291, 294883690, 0.77562636, -0.045379903, 0.62889427, 0.028930567
292, 294900357, 0.7727399, -0.04691345, 0.6322562, 0.03041399
293, 294917024, 0.7699616, -0.047618423, 0.6355504, 0.031111669
294, 294933691, 0.76739866, -0.04795219, 0.63859534, 0.031569645
295, 294950358, 0.76499784, -0.048503134, 0.64139944, 0.032142732
296, 294967025, 0.7626683, -0.04943184, 0.6440483, 0.033106934
297, 294983692, 0.76031595, -0.050444458, 0.6466779, 0.034403592
298, 295000359, 0.75782377, -0.050411105, 0.64956766, 0.034996375
299, 295017026, 0.75545776, -0.04921725, 0.65242934, 0.034617558
300, 295033693, 0.75354934, -0.046949804, 0.65486264, 0.03339232
301, 295050360, 0.7516878, -0.0442526, 0.6572595, 0.03190847
302, 295067027, 0.7496888, -0.04195836, 0.65973836, 0.030865904
303, 295083694, 0.7476704, -0.040007178, 0.66219753, 0.029729148
304, 295100361, 0.74578786, -0.038242146, 0.6644767, 0.028457034
305, 295117028, 0.74420935, -0.03680592, 0.6663841, 0.027032811
306, 295133695, 0.74278647, -0.03619384, 0.6680485, 0.025885709
307, 295150362, 0.74131036, -0.036181632, 0.669722, 0.024964191
308, 295167029, 0.7397961, -0.036755998, 0.67139024, 0.024220085
309, 295183696, 0.7384053, -0.037922654, 0.6728654, 0.023919515
310, 295200363, 0.7371039, -0.039517827, 0.6741947, 0.024047475
311, 295217030, 0.7357125, -0.0401352, 0.675692, 0.023603374
312, 295233697, 0.73404896, -0.039016068, 0.6776286, 0.021672541
313, 295250364, 0.73285687, -0.036337815, 0.6791448, 0.019056432
314, 295267031, 0.7319097, -0.033669997, 0.68036413, 0.01672514
315, 295283698, 0.73088765, -0.03218174, 0.6815579, 0.015704956
316, 295300365, 0.7297255, -0.031436484, 0.68284315, 0.015425665
317, 295317032, 0.7289089, -0.031193433, 0.68372786, 0.015340149
318, 295333699, 0.72840357, -0.03108777, 0.6842725, 0.0152621195
319, 295350366, 0.72796506, -0.03135336, 0.68472487, 0.01536196
320, 295367033, 0.7274691, -0.032274872, 0.6851968, 0.01589869
321, 295383700, 0.7267611, -0.033012424, 0.68590677, 0.016145155
322, 295400367, 0.72584736, -0.03290626, 0.6868947, 0.015437121
323, 295417034, 0.72520053, -0.03206389, 0.68764305, 0.014245223
324, 295433701, 0.7247464, -0.03097436, 0.6881953, 0.013056676
325, 295450368, 0.72419035, -0.029741023, 0.68885, 0.01223197
326, 295467035, 0.7237028, -0.029371368, 0.6893793, 0.012158285
327, 295483702, 0.72339565, -0.029252885, 0.6897057, 0.012214957
328, 295500369, 0.72316587, -0.029250674, 0.689949, 0.012069959
329, 295517036, 0.72301584, -0.02927702, 0.69010615, 0.012017544
330, 295533703, 0.7228918, -0.029509278, 0.6902204, 0.012347734
331, 295550370, 0.72277343, -0.029918429, 0.69031763, 0.012850303
332, 295567037, 0.7226842, -0.030454468, 0.6903778, 0.013368033
333, 295583704, 0.7226075, -0.030807119, 0.69043505, 0.01373536
334, 295600371, 0.72254854, -0.031112367, 0.69047475, 0.014143471
335, 295617038, 0.7224345, -0.031500302, 0.6905664, 0.014637807
336, 295633705, 0.72224677, -0.03198503, 0.6907296, 0.015141248
337, 295650372, 0.7220811, -0.032348346, 0.6908767, 0.015540055
338, 295667039, 0.7219693, -0.032437094, 0.69098383, 0.01578663
339, 295683706, 0.72186935, -0.03238612, 0.6910871, 0.01594107
340, 295700373, 0.72173166, -0.032442987, 0.6912242, 0.016114883
341, 295717040, 0.7215443, -0.032433785, 0.6914204, 0.016108599
342, 295733707, 0.72143996, -0.031970154, 0.69155777, 0.015804317
343, 295750374, 0.721456, -0.03133155, 0.6915766, 0.015523093
344, 295767041, 0.721524, -0.030864524, 0.6915277, 0.015488601
345, 295783708, 0.7215845, -0.03071119, 0.6914648, 0.015766975
346, 295800375, 0.7217287, -0.030634178, 0.6913113, 0.016048856
347, 295817042, 0.7218808, -0.030680243, 0.6911475, 0.016171955
348, 295833709, 0.72210556, -0.030846065, 0.69089943, 0.016427083
349, 295850376, 0.7223146, -0.031147873, 0.69065213, 0.01705035
350, 295867043, 0.7225065, -0.03148331, 0.6904176, 0.01778908
351, 295883710, 0.72269344, -0.031839605, 0.6901879, 0.018457672
352, 295900377, 0.72293067, -0.032242946, 0.6899036, 0.019089641
353, 295917044, 0.7232289, -0.032539688, 0.68956095, 0.019658513
354, 295933711, 0.7235384, -0.032767065, 0.6892118, 0.020127088
355, 295950378, 0.724, -0.03312929, 0.6886986, 0.020503702
356, 295967045, 0.7245224, -0.033560626, 0.68812025, 0.020763965
357, 295983712, 0.7250492, -0.033981998, 0.68753725, 0.021000292
358, 296000379, 0.72568715, -0.0343195, 0.686838, 0.021295875
359, 296017046, 0.7265214, -0.034351412, 0.68594605, 0.021547452
360, 296033713, 0.7275171, -0.034170236, 0.684888, 0.021892574
361, 296050380, 0.7285727, -0.0339446, 0.6837646, 0.022256872
362, 296067047, 0.7296871, -0.03369928, 0.6825821, 0.022418085
363, 296083714, 0.7308238, -0.03362111, 0.681364, 0.022565158
364, 296100381, 0.7319987, -0.03367471, 0.6800878, 0.022899952
365, 296117048, 0.7331707, -0.033988133, 0.67878574, 0.023568626
366, 296133715, 0.73442227, -0.03451683, 0.6773772, 0.024337532
367, 296150382, 0.7358325, -0.03530233, 0.6757786, 0.02504281
368, 296167049, 0.7373752, -0.036395196, 0.6740064, 0.025852192
369, 296183716, 0.73894846, -0.037709404, 0.67217207, 0.026788125
370, 296200383, 0.7405661, -0.039161246, 0.6702693, 0.027695376
371, 296217050, 0.74237233, -0.040706072, 0.66812944, 0.028800106
372, 296233717, 0.74429214, -0.042629056, 0.66580623, 0.030229514
373, 296250384, 0.7462207, -0.045246404, 0.66337746, 0.032211583
374, 296267051, 0.7480031, -0.048490986, 0.6610029, 0.03485732
375, 296283718, 0.7497934, -0.05241202, 0.65848416, 0.038224593
376, 296300385, 0.75157195, -0.05672723, 0.6558874, 0.04163139
377, 296317052, 0.75346166, -0.06148362, 0.6530274, 0.04549905
378, 296333719, 0.75538737, -0.066735655, 0.6499605, 0.04987584
379, 296350386, 0.7574431, -0.07177993, 0.6466978, 0.053940307
380, 296367053, 0.7597458, -0.07577296, 0.6432543, 0.057171836
381, 296383720, 0.76235104, -0.07887252, 0.63958067, 0.05946647
382, 296400387, 0.76525587, -0.08132231, 0.63565195, 0.060962673
383, 296417054, 0.76831573, -0.08317868, 0.63161975, 0.06187453
384, 296433721, 0.77154994, -0.084446736, 0.6274468, 0.06236816
385, 296450388, 0.7750118, -0.0848187, 0.62312883, 0.06223222
386, 296467055, 0.7787095, -0.084400654, 0.6186298, 0.061521083
387, 296483722, 0.7826228, -0.083619215, 0.6138981, 0.060317956
388, 296500389, 0.7866427, -0.08289359, 0.6089697, 0.058972042
389, 296517056, 0.7906622, -0.082447015, 0.6039021, 0.057949413
390, 296533723, 0.79466575, -0.08204653, 0.59873307, 0.057389393
391, 296550390, 0.79871047, -0.081625625, 0.59342384, 0.056982838
392, 296567057, 0.8028478, -0.081173785, 0.5879215, 0.05651762
393, 296583724, 0.80716026, -0.08055925, 0.58212477, 0.055974532
394, 296600391, 0.8115829, -0.07966495, 0.57612073, 0.055420484
395, 296617058, 0.8160537, -0.07857117, 0.5699874, 0.05474656
396, 296633725, 0.82060945, -0.07737433, 0.56366205, 0.053836327
397, 296650392, 0.8252381, -0.076180845, 0.5571392, 0.052671496
398, 296667059, 0.8299328, -0.075007446, 0.5503762, 0.051688418
399, 296683726, 0.8346454, -0.07386728, 0.5434123, 0.051123567
400, 296700393, 0.83936495, -0.07282655, 0.53628355, 0.05062136
401, 296717060, 0.84413856, -0.071804866, 0.528945, 0.049910646
402, 296733727, 0.84896857, -0.07074581, 0.521368, 0.049219344
403, 296750394, 0.8538544, -0.06944766, 0.51356214, 0.048614003
404, 296767061, 0.8586861, -0.06808386, 0.5056912, 0.047949158
405, 296783728, 0.86342216, -0.06646399, 0.49787277, 0.046983756
406, 296800395, 0.86819535, -0.06442221, 0.4899137, 0.045506492
407, 296817062, 0.87298095, -0.06211013, 0.4817836, 0.043940917
408, 296833729, 0.87768096, -0.05982822, 0.4735924, 0.042503934
409, 296850396, 0.88221544, -0.057932768, 0.46544838, 0.04119791
410, 296867063, 0.88658845, -0.056403104, 0.45736548, 0.039954204
411, 296883730, 0.8908992, -0.055034924, 0.44918117, 0.038805682
412, 296900397, 0.8951094, -0.05408607, 0.4409226, 0.037961423
413, 296917064, 0.89910066, -0.054019235, 0.43277618, 0.03747492
414, 296933731, 0.90291035, -0.05424704, 0.42479524, 0.036861997
415, 296950398, 0.9066775, -0.05409609, 0.4168006, 0.035870787
416, 296967065, 0.91038674, -0.053547934, 0.40879554, 0.034851022
417, 296983732, 0.91402715, -0.053028163, 0.40073606, 0.033951655
418, 297000399, 0.91750675, -0.052863833, 0.39279726, 0.03311821
419, 297017066, 0.9208415, -0.052692924, 0.38502184, 0.032134995
420, 297033733, 0.9241317, -0.051932428, 0.37725878, 0.030968836
421, 297050400, 0.92734486, -0.050785203, 0.36953992, 0.029875243
422, 297067067, 0.93043166, -0.0498001, 0.3619058, 0.02899548
423, 297083734, 0.93335575, -0.049203992, 0.35444435, 0.02819858
424, 297100401, 0.93615854, -0.048727002, 0.34711125, 0.027319834
425, 297117068, 0.938947, -0.04774974, 0.33971494, 0.026303593
426, 297133735, 0.941728, -0.046222836, 0.33223057, 0.025186716
427, 297150402, 0.94440347, -0.044771574, 0.32483485, 0.024076728
428, 297167069, 0.94682425, -0.04437579, 0.31780267, 0.023579704
429, 297183736, 0.9491231, -0.044254813, 0.31090376, 0.02335775
430, 297200403, 0.9514361, -0.04358847, 0.30388483, 0.02287879
431, 297217070, 0.9537355, -0.04244196, 0.29681358, 0.022110194
432, 297233737, 0.9559193, -0.041044217, 0.28996468, 0.021305855
433, 297250404, 0.9580084, -0.03961223, 0.2832459, 0.020551875
434, 297267071, 0.96007544, -0.0382842, 0.27639672, 0.01985526
435, 297283738, 0.9620662, -0.037256464, 0.26956505, 0.019369729
436, 297300405, 0.96390796, -0.0367394, 0.26299444, 0.019112648
437, 297317072, 0.9656459, -0.03624781, 0.2566228, 0.018937306
438, 297333739, 0.9673819, -0.035293713, 0.25015777, 0.018639397
439, 297350406, 0.9691113, -0.033650327, 0.24363695, 0.018213151
440, 297367073, 0.97074926, -0.031793937, 0.23731484, 0.017794989
441, 297383740, 0.9722991, -0.03008232, 0.23113649, 0.017472291
442, 297400407, 0.9738254, -0.02851213, 0.22483991, 0.01725968
443, 297417074, 0.97529864, -0.027247472, 0.21852228, 0.017260073
444, 297433741, 0.9766412, -0.026699651, 0.21249093, 0.017514039
445, 297450408, 0.9778334, -0.026953049, 0.206867, 0.01792607
446, 297467075, 0.9789909, -0.027095465, 0.20127186, 0.018229118
447, 297483742, 0.9801625, -0.026795987, 0.19551085, 0.018406713
448, 297500409, 0.98128563, -0.026229007, 0.18985918, 0.018545708
449, 297517076, 0.98232144, -0.02558459, 0.18450023, 0.018692106
450, 297533743, 0.9833259, -0.02482424, 0.17916857, 0.018769976
451, 297550410, 0.9843325, -0.023723664, 0.17370535, 0.018788764
452, 297567077, 0.9853075, -0.0225015, 0.16824505, 0.018877093
453, 297583744, 0.9862242, -0.021228299, 0.16292289, 0.019165028
454, 297600411, 0.9871105, -0.01993479, 0.15759976, 0.0194377
455, 297617078, 0.98798764, -0.01857947, 0.15214191, 0.019689405
456, 297633745, 0.9888384, -0.017302463, 0.1466405, 0.019895095
457, 297650412, 0.9896228, -0.016379716, 0.14132057, 0.0201653
458, 297667079, 0.9903558, -0.015587977, 0.13614051, 0.020443546
459, 297683746, 0.9910715, -0.014501802, 0.13093364, 0.020571124
460, 297700413, 0.9917683, -0.013045232, 0.1257165, 0.020507561
461, 297717080, 0.99242795, -0.0113681825, 0.120583035, 0.020427566
462, 297733747, 0.99304056, -0.009518454, 0.11559819, 0.020419488
463, 297750414, 0.99363256, -0.007474072, 0.110560104, 0.020365095
464, 297767081, 0.9942026, -0.005431926, 0.10546324, 0.020227011
465, 297783748, 0.99472916, -0.0040510804, 0.1004592, 0.020129852
466, 297800415, 0.99520034, -0.0032941506, 0.09567845, 0.020269606
467, 297817082, 0.9956338, -0.002644255, 0.09102887, 0.020485206
468, 297833749, 0.99605, -0.0015579353, 0.086346164, 0.0206449
469, 297850416, 0.99644387, -1.5520299E-4, 0.08166284, 0.020750664
470, 297867083, 0.9968083, 0.001334548, 0.07702756, 0.020932576
471, 297883750, 0.99713516, 0.0028112293, 0.07253473, 0.021264495
472, 297900417, 0.99743503, 0.004750658, 0.068051554, 0.02167437
473, 297917084, 0.9977163, 0.0070532695, 0.06347693, 0.021975633
474, 297933751, 0.9979695, 0.0092165815, 0.058983747, 0.022195226
475, 297950418, 0.99818677, 0.010954816, 0.05469981, 0.022607606
476, 297967085, 0.9983758, 0.01259292, 0.050553214, 0.023051267
477, 297983752, 0.9985429, 0.014275368, 0.046500325, 0.023359107
478, 298000419, 0.9986924, 0.01599123, 0.04251555, 0.023452535
479, 298017086, 0.9988229, 0.017558355, 0.03856933, 0.023599248
480, 298033753, 0.99893224, 0.018931814, 0.034728132, 0.02386559
481, 298050420, 0.9990215, 0.020370658, 0.03096747, 0.02412305
482, 298067087, 0.9990927, 0.021923928, 0.027288862, 0.02425024
483, 298083754, 0.9991473, 0.023574978, 0.023695696, 0.024228027
484, 298100421, 0.99918723, 0.025153782, 0.020054493, 0.024286909
485, 298117088, 0.9992158, 0.02634621, 0.016474318, 0.02454206
486, 298133755, 0.9992416, 0.026931023, 0.01310332, 0.024875019
487, 298150422, 0.99926835, 0.02717092, 0.009845525, 0.025049383
488, 298167089, 0.99928045, 0.02761245, 0.006572325, 0.025153592
489, 298183756, 0.9992708, 0.028421603, 0.0032158373, 0.025285387
490, 298200423, 0.99924076, 0.029446885, -1.12611924E-4, 0.025505355
491, 298217090, 0.99921167, 0.0301012, -0.0031256294, 0.025690075
492, 298233757, 0.9991795, 0.03057066, -0.005940208, 0.025891151
493, 298250424, 0.9991277, 0.03133926, -0.008839435, 0.026138408
494, 298267091, 0.99905664, 0.03236381, -0.011837759, 0.02642179
495, 298283758, 0.99898577, 0.03318949, -0.01453927, 0.0267286
496, 298300425, 0.99890274, 0.034174275, -0.017167615, 0.027030554
497, 298317092, 0.9987929, 0.035666507, -0.019877983, 0.027296076
498, 298333759, 0.99868274, 0.03691283, -0.022560598, 0.027590806
499, 298350426, 0.99858767, 0.0375721, -0.025018584, 0.028017398
500, 298367093, 0.99848443, 0.038303345, -0.02736112, 0.028509162
501, 298383760, 0.9983412, 0.039909463, -0.029806307, 0.028865581
502, 298400427, 0.99816877, 0.041983884, -0.03240292, 0.02908725
503, 298417094, 0.99801296, 0.043543875, -0.034804553, 0.029372267
504, 298433761, 0.99787784, 0.044507924, -0.03707587, 0.0297299
505, 298450428, 0.9977405, 0.045393024, -0.039427128, 0.029976752
506, 298467095, 0.9976151, 0.04597265, -0.041672964, 0.030228566
507, 298483762, 0.9975173, 0.04602374, -0.043728426, 0.03047441
508, 298500429, 0.9974338, 0.045836713, -0.04561097, 0.030730268
509, 298517096, 0.9973704, 0.045391276, -0.047434047, 0.030687515
510, 298533763, 0.9973345, 0.044527926, -0.04903197, 0.030610843
511, 298550430, 0.9973156, 0.043511115, -0.05032992, 0.030582864
512, 298567097, 0.9973065, 0.04270017, -0.05127189, 0.03045386
513, 298583764, 0.99729, 0.042163342, -0.052051034, 0.030414945
514, 298600431, 0.99725336, 0.04204687, -0.05270089, 0.030662408
515, 298617098, 0.9972284, 0.04215233, -0.053038586, 0.030747456
516, 298633765, 0.99722815, 0.0421594, -0.053103305, 0.030634757
517, 298650432, 0.9972315, 0.04226256, -0.05296416, 0.030623445
518, 298667099, 0.99723583, 0.042343844, -0.05273486, 0.030764403
519, 298683766, 0.9972713, 0.042184405, -0.052141074, 0.03084619
520, 298700433, 0.99732983, 0.042018034, -0.05116669, 0.030812994
521, 298717100, 0.99739003, 0.04199697, -0.0500587, 0.030711528
522, 298733767, 0.9974476, 0.041888703, -0.04899917, 0.030700967
523, 298750434, 0.9975399, 0.041251983, -0.047660068, 0.030677281
524, 298767101, 0.9976497, 0.040351994, -0.046114065, 0.030658526
525, 298783768, 0.9977397, 0.039825626, -0.044617087, 0.03063687
526, 298800435, 0.9978004, 0.039769772, -0.043249093, 0.03069466
527, 298817102, 0.9978663, 0.039684102, -0.041755855, 0.030727345
528, 298833769, 0.99793905, 0.03946509, -0.040239986, 0.030668873
529, 298850436, 0.9979949, 0.039413355, -0.038880028, 0.030675774
530, 298867103, 0.9980378, 0.039396416, -0.037687305, 0.030787647
531, 298883770, 0.9980811, 0.039226446, -0.036580984, 0.030940432
532, 298900437, 0.9981234, 0.039042722, -0.0355317, 0.031025056
533, 298917104, 0.9981564, 0.03905444, -0.034496363, 0.031117218
534, 298933771, 0.99818677, 0.039060943, -0.03351145, 0.031208094
535, 298950438, 0.99821365, 0.039045453, -0.032652996, 0.031283114
536, 298967105, 0.9982504, 0.038746994, -0.031858213, 0.031297274
537, 298983772, 0.9982883, 0.03840904, -0.03107811, 0.031291235
538, 299000439, 0.99831474, 0.03824015, -0.03040319, 0.03131719
539, 299017106, 0.99831945, 0.038454626, -0.029848978, 0.031438455
540, 299033773, 0.9983202, 0.038874865, -0.029261878, 0.03145052
541, 299050440, 0.99833333, 0.038971454, -0.028755328, 0.031385478
542, 299067107, 0.99833906, 0.038918722, -0.028480709, 0.03151491
543, 299083774, 0.998352, 0.038655814, -0.028195035, 0.03168776
544, 299100441, 0.9983769, 0.038216792, -0.027830504, 0.031751808
545, 299117108, 0.9984036, 0.03779615, -0.027493445, 0.031715944
546, 299133775, 0.99842423, 0.03733439, -0.027217817, 0.031848937
547, 299150442, 0.99844944, 0.036829226, -0.026872804, 0.031940304
548, 299167109, 0.99847716, 0.036504757, -0.026441408, 0.03180283
549, 299183776, 0.9984916, 0.036547787, -0.0260484, 0.03162375
550, 299200443, 0.9985182, 0.036250565, -0.025572749, 0.031516246
551, 299217110, 0.99856657, 0.035400957, -0.024939403, 0.03145365
552, 299233777, 0.9986157, 0.03463361, -0.02430052, 0.031247735
553, 299250444, 0.9986496, 0.03418559, -0.02362827, 0.031176226
554, 299267111, 0.99867916, 0.03382323, -0.02290656, 0.03116061
555, 299283778, 0.99869907, 0.033546045, -0.02225196, 0.031298082
556, 299300445, 0.9987187, 0.033496447, -0.021484496, 0.031262003
557, 299317112, 0.99873257, 0.033591513, -0.020742523, 0.031217882
558, 299333779, 0.99874675, 0.033808883, -0.020109955, 0.030937888
559, 299350446, 0.99875426, 0.03405005, -0.019479012, 0.030833816
560, 299367113, 0.99877113, 0.03396188, -0.018871421, 0.03076548
561, 299383780, 0.99879223, 0.033726756, -0.018315038, 0.030679058
562, 299400447, 0.9988033, 0.03365603, -0.017815072, 0.030689403
563, 299417114, 0.998819, 0.033602335, -0.017308878, 0.030522231
564, 299433781, 0.9988401, 0.033337504, -0.016870275, 0.030370932
565, 299450448, 0.9988549, 0.033084944, -0.016524073, 0.030352244
566, 299467115, 0.9988645, 0.032998197, -0.01621243, 0.030292694
567, 299483782, 0.9988597, 0.03321108, -0.015903484, 0.030383054
568, 299500449, 0.99885106, 0.033682875, -0.015601776, 0.030299775
569, 299517116, 0.9988434, 0.03410654, -0.015254221, 0.03026473
570, 299533783, 0.9988392, 0.034460135, -0.01484916, 0.030203069
571, 299550450, 0.99883884, 0.034757547, -0.014436079, 0.0300692
572, 299567117, 0.9988449, 0.03511865, -0.0140330875, 0.029636795
573, 299583784, 0.9988483, 0.03528611, -0.013696389, 0.029477691
574, 299600451, 0.9988586, 0.035090197, -0.013369271, 0.029519418
575, 299617118, 0.9988739, 0.03468682, -0.012970273, 0.029652622
576, 299633785, 0.9988813, 0.034492385, -0.012631051, 0.02977767
577, 299650452, 0.9988746, 0.034702912, -0.012465675, 0.029826296
578, 299667119, 0.9988598, 0.035078358, -0.012375347, 0.02992029
579, 299683786, 0.99884677, 0.03540225, -0.012275152, 0.03001624
580, 299700453, 0.9988415, 0.035588298, -0.012186443, 0.030007644
581, 299717120, 0.9988416, 0.035652477, -0.012169277, 0.029933106
582, 299733787, 0.998848, 0.035466112, -0.012167874, 0.029939746
583, 299750454, 0.9988558, 0.035089854, -0.012093456, 0.030154038
584, 299767121, 0.9988651, 0.03490197, -0.012054678, 0.030078087
585, 299783788, 0.9988589, 0.035155714, -0.012155523, 0.029952522
586, 299800455, 0.99883777, 0.03578356, -0.012352259, 0.029831734
587, 299817122, 0.9988248, 0.036113452, -0.012498483, 0.029806288
588, 299833789, 0.9988219, 0.0359612, -0.012576592, 0.030053198
589, 299850456, 0.99882376, 0.035822973, -0.012698696, 0.030104833
590, 299867123, 0.99882036, 0.035970002, -0.012871455, 0.02997022
591, 299883790, 0.9988126, 0.036162917, -0.013078023, 0.029906144
592, 299900457, 0.99881357, 0.036233805, -0.013210335, 0.029731788
593, 299917124, 0.9988156, 0.036193516, -0.013326458, 0.029656874
594, 299933791, 0.99882025, 0.036155965, -0.013408001, 0.029508194
595, 299950458, 0.9988205, 0.036181536, -0.013549905, 0.0294079
596, 299967125, 0.9988088, 0.036300857, -0.013710233, 0.029585455
597, 299983792, 0.9988119, 0.036392473, -0.01384535, 0.029302867
598, 300000459, 0.99879944, 0.03652231, -0.013916939, 0.02952763
599, 300017126, 0.9987961, 0.036605805, -0.013962085, 0.029514963
600, 300033793, 0.9987977, 0.036454476, -0.013968107, 0.029646922
601, 300050460, 0.99879116, 0.03640595, -0.013949491, 0.02993338
602, 300067127, 0.9987846, 0.036484744, -0.013924388, 0.03006605
603, 300083794, 0.9987825, 0.036479678, -0.01385752, 0.030172568
604, 300100461, 0.9987831, 0.0363265, -0.013652057, 0.030432984
605, 300117128, 0.9987719, 0.036393277, -0.013474741, 0.03079576
606, 300133795, 0.9987442, 0.036780562, -0.013410257, 0.03125985
607, 300150462, 0.9987213, 0.037077595, -0.013310216, 0.031683408
608, 300167129, 0.99871504, 0.036976773, -0.013120247, 0.03207335
609, 300183796, 0.99869376, 0.037034888, -0.012949928, 0.03273112
610, 300200463, 0.9986565, 0.03737376, -0.012813057, 0.03352413
611, 300217130, 0.998612, 0.037664242, -0.012685688, 0.034560427
612, 300233797, 0.9985633, 0.037889805, -0.0125120655, 0.035761725
613, 300250464, 0.9985089, 0.03829539, -0.012415304, 0.03686962
614, 300267131, 0.9984525, 0.038893998, -0.012452696, 0.037742924
615, 300283798, 0.99840313, 0.039397676, -0.012435459, 0.038523525
616, 300300465, 0.9983333, 0.039907467, -0.012426628, 0.03979414
617, 300317132, 0.99823207, 0.040432706, -0.012378463, 0.041769233
618, 300333799, 0.99814576, 0.0411427, -0.0125154685, 0.043076318
619, 300350466, 0.99801666, 0.041814063, -0.012651164, 0.045321666
620, 300367133, 0.9978451, 0.042651553, -0.012660155, 0.048225116
621, 300383800, 0.9976334, 0.043896887, -0.012603608, 0.051398028
622, 300400467, 0.9973989, 0.045366153, -0.012533475, 0.054588024
623, 300417134, 0.9971797, 0.046162143, -0.012442361, 0.05785055
624, 300433801, 0.99697435, 0.04583874, -0.012325168, 0.061554432
625, 300450468, 0.9967592, 0.044976037, -0.012468673, 0.065517396
626, 300467135, 0.99647367, 0.044549625, -0.012786714, 0.06994173
627, 300483802, 0.9961038, 0.044833038, -0.01317795, 0.07478821
628, 300500469, 0.99568385, 0.045516912, -0.013543271, 0.0797387
629, 300517136, 0.9952422, 0.04587814, -0.013949873, 0.084814295
630, 300533803, 0.9947609, 0.045946218, -0.014481963, 0.09016503
631, 300550470, 0.9942234, 0.04604519, -0.015106715, 0.09576741
632, 300567137, 0.9936633, 0.04612358, -0.015705403, 0.101286404
633, 300583804, 0.9930602, 0.04609739, -0.01624559, 0.10697025
634, 300600471, 0.99235743, 0.04624568, -0.016777966, 0.11316599
635, 300617138, 0.9915779, 0.04704222, -0.017222172, 0.11942946
636, 300633805, 0.99079204, 0.04784357, -0.017681317, 0.12541658
637, 300650472, 0.98994696, 0.048411246, -0.018187907, 0.13164505
638, 300667139, 0.9889686, 0.04915913, -0.01870113, 0.1384719
639, 300683806, 0.98787624, 0.05026093, -0.018998193, 0.14564687
640, 300700473, 0.9866565, 0.05163666, -0.019138737, 0.15321906
641, 300717140, 0.9852209, 0.053321965, -0.019163715, 0.16164577
642, 300733807, 0.9835234, 0.055271316, -0.019202149, 0.17104949
643, 300750474, 0.98161364, 0.057078294, -0.019116158, 0.18113841
644, 300767141, 0.97965443, 0.058292132, -0.018874846, 0.19111018
645, 300783808, 0.9775795, 0.05826517, -0.018386433, 0.20150766
646, 300800475, 0.9752586, 0.058283243, -0.017752212, 0.21250471
647, 300817142, 0.9730483, 0.05793688, -0.016797302, 0.22257201
648, 300833809, 0.9710143, 0.055194963, -0.01592229, 0.23201501
649, 300850476, 0.9688681, 0.052013826, -0.015366982, 0.24156344
650, 300867143, 0.96650076, 0.050113764, -0.01465675, 0.25129637
651, 300883810, 0.9639419, 0.049830195, -0.013469875, 0.26105833
652, 300900477, 0.9613598, 0.050834917, -0.0120869875, 0.27029034
653, 300917144, 0.95876724, 0.052420348, -0.01074103, 0.2791089
654, 300933811, 0.95612425, 0.054142933, -0.009361135, 0.28776225
655, 300950478, 0.9535149, 0.055058055, -0.007885587, 0.29616812
656, 300967145, 0.9508978, 0.055568103, -0.0064827935, 0.30440646
657, 300983812, 0.9481454, 0.05658768, -0.005012352, 0.3127186
658, 301000479, 0.9453528, 0.057672814, -0.0037351467, 0.32088566
659, 301017146, 0.9425754, 0.057201955, -0.002829134, 0.32904622
660, 301033813, 0.93967205, 0.055814344, -0.0023124614, 0.33748442
661, 301050480, 0.9365997, 0.05524405, -0.0016454763, 0.34601456
662, 301067147, 0.9335019, 0.055951294, -9.213756E-4, 0.3541786
663, 301083814, 0.9302578, 0.05725517, -1.7025194E-4, 0.36241114
664, 301100481, 0.9267573, 0.059008718, 7.087083E-4, 0.3709964
665, 301117148, 0.9231136, 0.061238945, 0.0018225879, 0.37961528
666, 301133815, 0.9194118, 0.06420841, 0.0032156764, 0.3880058
667, 301150482, 0.9155555, 0.067897335, 0.0046696314, 0.39639124
668, 301167149, 0.9114579, 0.0718813, 0.006280861, 0.4050159
669, 301183816, 0.9072565, 0.07599497, 0.008312539, 0.41357097
670, 301200483, 0.9031812, 0.0799653, 0.010488668, 0.4216146
671, 301217150, 0.8992697, 0.083230406, 0.0123569295, 0.42922464
672, 301233817, 0.89532894, 0.08554964, 0.013857774, 0.4368924
673, 301250484, 0.8913936, 0.08634279, 0.014979423, 0.4446769
674, 301267151, 0.88751525, 0.085895166, 0.015736574, 0.45242786
675, 301283818, 0.8836286, 0.08553142, 0.016574347, 0.4600108
676, 301300485, 0.8797662, 0.08543985, 0.017324844, 0.46734473
677, 301317152, 0.87591, 0.08507093, 0.018072274, 0.47457138
678, 301333819, 0.8720498, 0.08478109, 0.018912133, 0.48164672
679, 301350486, 0.86817706, 0.085127495, 0.020003779, 0.48848888
680, 301367153, 0.8643494, 0.08577649, 0.021135869, 0.4950713
681, 301383820, 0.8605302, 0.085871175, 0.02197877, 0.5016282
682, 301400487, 0.85672444, 0.08499905, 0.022376988, 0.5082299
683, 301417154, 0.8528676, 0.083743975, 0.02266714, 0.51486856
684, 301433821, 0.8490433, 0.08269895, 0.023155415, 0.5212963
685, 301450488, 0.8453757, 0.08226779, 0.023762267, 0.5272637
686, 301467155, 0.84168816, 0.0821985, 0.024369663, 0.5331138
687, 301483822, 0.8377367, 0.08200236, 0.025017926, 0.539302
688, 301500489, 0.83373255, 0.08099044, 0.025351444, 0.54560775
689, 301517156, 0.82992417, 0.07954598, 0.025376406, 0.5515925
690, 301533823, 0.8260854, 0.078393616, 0.025491266, 0.55748284
691, 301550490, 0.8219874, 0.0779678, 0.02605379, 0.56354123
692, 301567157, 0.81773305, 0.07755582, 0.02672355, 0.5697222
693, 301583824, 0.81361, 0.07646362, 0.026903234, 0.57573265
694, 301600491, 0.80959666, 0.07493765, 0.026718745, 0.5815698
695, 301617158, 0.80532503, 0.07412058, 0.027031051, 0.5875602
696, 301633825, 0.8008698, 0.07400966, 0.02803536, 0.59358543
697, 301650492, 0.79649866, 0.074135356, 0.02927849, 0.59936345
698, 301667159, 0.79228234, 0.074162826, 0.030429456, 0.6048656
699, 301683826, 0.7879778, 0.07410948, 0.031590916, 0.61041033
700, 301700493, 0.7836396, 0.07359596, 0.032730382, 0.61597174
701, 301717160, 0.779442, 0.07254693, 0.033594646, 0.621352
702, 301733827, 0.77532786, 0.07118864, 0.034220885, 0.62660027
703, 301750494, 0.7710572, 0.07000146, 0.03501844, 0.6319368
704, 301767161, 0.76673883, 0.06896509, 0.03597186, 0.63722926
705, 301783828, 0.7625174, 0.06814372, 0.036984276, 0.64230496
706, 301800495, 0.7583606, 0.06775888, 0.038221244, 0.6471761
707, 301817162, 0.75414467, 0.067587644, 0.03960387, 0.6520192
708, 301833829, 0.74994737, 0.06709064, 0.040753625, 0.6568232
709, 301850496, 0.7459465, 0.06592396, 0.041462976, 0.66143656
710, 301867163, 0.7421038, 0.06443757, 0.041775197, 0.66587126
711, 301883830, 0.7382711, 0.062930286, 0.04221446, 0.6702337
712, 301900497, 0.7346365, 0.061420918, 0.04267602, 0.6743257
713, 301917164, 0.73135364, 0.059947528, 0.043151498, 0.6779866
714, 301933831, 0.7283192, 0.05888647, 0.04385636, 0.68129295
715, 301950498, 0.72518486, 0.058305845, 0.044858668, 0.68461293
716, 301967165, 0.72207016, 0.057905745, 0.0461858, 0.6878431
717, 301983832, 0.71916693, 0.057696622, 0.047807965, 0.69078505
718, 302000499, 0.7163976, 0.058019336, 0.0494823, 0.6935125
719, 302017166, 0.71340114, 0.05873906, 0.051438663, 0.69639236
720, 302033833, 0.710203, 0.05928717, 0.05340334, 0.6994602
721, 302050500, 0.70727813, 0.059452284, 0.05518314, 0.702266
722, 302067167, 0.70466876, 0.059475, 0.056573443, 0.7047722
723, 302083834, 0.7020305, 0.059311733, 0.057773713, 0.707317
724, 302100501, 0.699541, 0.058675062, 0.05878121, 0.70974946
725, 302117168, 0.69753265, 0.05776213, 0.059683215, 0.7117229
726, 302133835, 0.6957548, 0.05686161, 0.060418706, 0.71347135
727, 302150502, 0.6938804, 0.05567127, 0.061016165, 0.71533746
728, 302167169, 0.69214773, 0.053762686, 0.06114439, 0.71714866
729, 302183836, 0.6908209, 0.051709678, 0.06116295, 0.7185762
730, 302200503, 0.68978107, 0.05040121, 0.061433148, 0.7196442
731, 302217170, 0.68869793, 0.050024126, 0.0623606, 0.7206273
732, 302233837, 0.6876466, 0.049917653, 0.06352648, 0.7215364
733, 302250504, 0.68692553, 0.04965929, 0.06453516, 0.7221513
734, 302267171, 0.6865689, 0.049545974, 0.06538343, 0.7224216
735, 302283838, 0.6862148, 0.049546678, 0.06625572, 0.72267854
736, 302300505, 0.6859194, 0.04928711, 0.066924214, 0.72291505
737, 302317172, 0.6859268, 0.048944533, 0.067422554, 0.722885
738, 302333839, 0.68618214, 0.04892052, 0.06785279, 0.72260404
739, 302350506, 0.68633634, 0.049313214, 0.06861015, 0.7223594
740, 302367173, 0.6864452, 0.049595818, 0.0694391, 0.7221573
741, 302383840, 0.6867598, 0.049833156, 0.07018737, 0.72176933
742, 302400507, 0.68727773, 0.05029408, 0.07087789, 0.72117686
743, 302417174, 0.6877913, 0.05104399, 0.071449116, 0.72057784
744, 302433841, 0.68821925, 0.0516227, 0.0719092, 0.7200823
745, 302450508, 0.68872017, 0.05181485, 0.07216237, 0.7195639
746, 302467175, 0.6892846, 0.052005406, 0.07232871, 0.71899265
747, 302483842, 0.68985415, 0.05240834, 0.07264892, 0.7183847
748, 302500509, 0.6902558, 0.0529754, 0.0732375, 0.7178974
749, 302517176, 0.69061035, 0.053367898, 0.07367268, 0.71748275
750, 302533843, 0.690953, 0.05352543, 0.07384733, 0.71712315
751, 302550510, 0.6912085, 0.053791557, 0.07412844, 0.71682787
752, 302567177, 0.6913733, 0.054087304, 0.07451803, 0.71660626
753, 302583844, 0.691643, 0.05421844, 0.074798785, 0.7163067
754, 302600511, 0.6920472, 0.054079022, 0.074770525, 0.7159298
755, 302617178, 0.69252264, 0.053632826, 0.07457719, 0.71552354
756, 302633845, 0.69304067, 0.052699063, 0.074124046, 0.71513826
757, 302650512, 0.6936884, 0.05153835, 0.07346229, 0.714663
758, 302667179, 0.69449437, 0.05038379, 0.07268613, 0.7140417
759, 302683846, 0.6954454, 0.0493815, 0.0721606, 0.713239
760, 302700513, 0.69662404, 0.048571028, 0.071732245, 0.71218705
761, 302717180, 0.6979338, 0.04795212, 0.07132834, 0.71098584
762, 302733847, 0.6992363, 0.04753345, 0.07094292, 0.7097718
763, 302750514, 0.7005573, 0.047294445, 0.07079919, 0.70849836
764, 302767181, 0.701996, 0.047434513, 0.0710058, 0.7070429
765, 302783848, 0.7035319, 0.04799017, 0.071437344, 0.70543337
766, 302800515, 0.7051009, 0.04853226, 0.0718397, 0.7037871
767, 302817182, 0.706759, 0.04865636, 0.07190702, 0.70210636
768, 302833849, 0.70858896, 0.048241105, 0.07149573, 0.7003302
769, 302850516, 0.7105126, 0.047614288, 0.070951976, 0.6984772
770, 302867183, 0.7126192, 0.047122218, 0.07052669, 0.69640446
771, 302883850, 0.7148954, 0.046864465, 0.070212744, 0.6941168
772, 302900517, 0.7173585, 0.046690412, 0.06989148, 0.6916152
773, 302917184, 0.72013843, 0.04654983, 0.06959281, 0.6887599
774, 302933851, 0.7232524, 0.046073895, 0.069096096, 0.68557173
775, 302950518, 0.7266334, 0.044913895, 0.06809613, 0.6821651
776, 302967185, 0.7302958, 0.042814977, 0.066198274, 0.67856646
777, 302983852, 0.7341615, 0.040089894, 0.06344519, 0.6748141
778, 303000519, 0.73791873, 0.037340473, 0.060415912, 0.6711419
779, 303017186, 0.7416195, 0.034998782, 0.057736006, 0.66741425
780, 303033853, 0.74541134, 0.033919524, 0.056004148, 0.66338134
781, 303050520, 0.74940896, 0.034187574, 0.055055242, 0.6589279
782, 303067187, 0.753504, 0.03549798, 0.054746687, 0.65419745
783, 303083854, 0.75771666, 0.03700397, 0.054607734, 0.649241
784, 303100521, 0.76201004, 0.03799933, 0.05428859, 0.64416546
785, 303117188, 0.76641434, 0.038060937, 0.053285826, 0.6389998
786, 303133855, 0.77092105, 0.037355192, 0.051832616, 0.63371795
787, 303150522, 0.7756072, 0.036291394, 0.050247554, 0.6281652
788, 303167189, 0.780457, 0.035401214, 0.048772275, 0.62229806
789, 303183856, 0.7854021, 0.03507161, 0.047550876, 0.6161591
790, 303200523, 0.79031533, 0.03532995, 0.04678679, 0.60988873
791, 303217190, 0.79532576, 0.03596911, 0.0465357, 0.6033219
792, 303233857, 0.80057615, 0.03699223, 0.04629289, 0.5962938
793, 303250524, 0.8057111, 0.038057644, 0.04587567, 0.58930176
794, 303267191, 0.8106107, 0.038461756, 0.045344397, 0.5825588
795, 303283858, 0.8157858, 0.037853844, 0.04454804, 0.575392
796, 303300525, 0.821406, 0.036940724, 0.043177243, 0.567506
797, 303317192, 0.82678956, 0.036506563, 0.041929975, 0.559757
798, 303333859, 0.8317906, 0.0358762, 0.040567003, 0.55244124
799, 303350526, 0.8367562, 0.03478899, 0.038957153, 0.5450789
800, 303367193, 0.84176624, 0.034230348, 0.037712067, 0.537434
801, 303383860, 0.84678054, 0.034886643, 0.037088964, 0.5294994
802, 303400527, 0.851741, 0.036405843, 0.036823183, 0.5213978
803, 303417194, 0.8566326, 0.03783938, 0.03652946, 0.51323897
804, 303433861, 0.8615016, 0.038317725, 0.035989773, 0.50502616
805, 303450528, 0.86646545, 0.03779455, 0.034864154, 0.49658147
806, 303467195, 0.8713067, 0.036816355, 0.033365425, 0.4882169
807, 303483862, 0.87586296, 0.035811886, 0.032040074, 0.4801612
808, 303500529, 0.8804453, 0.0347841, 0.030853698, 0.4718625
809, 303517196, 0.8851525, 0.03399914, 0.029717034, 0.4631045
810, 303533863, 0.88976395, 0.033424668, 0.028438602, 0.45430604
811, 303550530, 0.89416766, 0.032454614, 0.026943222, 0.4457406
812, 303567197, 0.89837617, 0.031003967, 0.025433049, 0.4373923
813, 303583864, 0.902489, 0.029885652, 0.024235316, 0.42899066
814, 303600531, 0.90657175, 0.029663468, 0.02333318, 0.4203609
815, 303617198, 0.91053814, 0.029915743, 0.022351686, 0.411735
816, 303633865, 0.9142671, 0.029957762, 0.021400549, 0.40343565
817, 303650532, 0.9179601, 0.029567437, 0.020536372, 0.39503554
818, 303667199, 0.9217358, 0.029212702, 0.019523527, 0.3862232
819, 303683866, 0.92533445, 0.029131424, 0.018302476, 0.3775877
820, 303700533, 0.92864645, 0.028989317, 0.017252214, 0.3694287
821, 303717200, 0.9319277, 0.028535996, 0.016293291, 0.36115244
822, 303733867, 0.9353004, 0.028005334, 0.015476392, 0.35240462
823, 303750534, 0.93863094, 0.027776616, 0.014404732, 0.34350064
824, 303767201, 0.94176227, 0.027665816, 0.01318283, 0.3348795
825, 303783868, 0.94471157, 0.027057044, 0.011990789, 0.3265637
826, 303800535, 0.94758016, 0.026403476, 0.010969052, 0.31823614
827, 303817202, 0.9503509, 0.02630359, 0.009798274, 0.30991173
828, 303833869, 0.9528548, 0.02686448, 0.008590903, 0.3021122
829, 303850536, 0.95523643, 0.02707561, 0.007538128, 0.29450488
830, 303867203, 0.95767766, 0.026636606, 0.006500828, 0.28653347
831, 303883870, 0.96010894, 0.02636168, 0.00541109, 0.27832758
832, 303900537, 0.9623716, 0.026640937, 0.004226403, 0.27039438
833, 303917204, 0.96450263, 0.0264741, 0.003084541, 0.26272452
834, 303933871, 0.9666318, 0.025375934, 0.0020069133, 0.25490138
835, 303950538, 0.96872115, 0.023913458, 0.0010267, 0.24699423
836, 303967205, 0.9707307, 0.02290813, 2.9222418E-5, 0.23907489
837, 303983872, 0.9726989, 0.022299351, -9.818734E-4, 0.2309944
838, 304000539, 0.97465146, 0.021612935, -0.0018243265, 0.22267415
839, 304017206, 0.97655433, 0.020959793, -0.0023949405, 0.21423452
840, 304033873, 0.978406, 0.020427298, -0.002810672, 0.20566079
841, 304050540, 0.9801463, 0.01966555, -0.0035571975, 0.19726488
842, 304067207, 0.9817631, 0.018283438, -0.004357568, 0.18917638
843, 304083874, 0.98330927, 0.016342083, -0.004991707, 0.18113735
844, 304100541, 0.9847981, 0.014505013, -0.005469929, 0.1730103
845, 304117208, 0.9862072, 0.013626448, -0.005951676, 0.16484605
846, 304133875, 0.98753065, 0.013703833, -0.0062272055, 0.15670575
847, 304150542, 0.98881376, 0.014125874, -0.006353209, 0.14834844
848, 304167209, 0.9900513, 0.014907987, -0.0064767813, 0.13976394
849, 304183876, 0.9911939, 0.015559894, -0.0068065412, 0.13132519
850, 304200543, 0.99225414, 0.01580252, -0.007028609, 0.12301347
851, 304217210, 0.99329567, 0.015401878, -0.007003849, 0.11435565
852, 304233877, 0.9943126, 0.014883045, -0.006837306, 0.105232224
853, 304250544, 0.9952318, 0.014373023, -0.0068993387, 0.09622459
854, 304267211, 0.9960573, 0.013428338, -0.0070695085, 0.087403275
855, 304283878, 0.99682593, 0.012059081, -0.0072033834, 0.07836237
856, 304300545, 0.997536, 0.011031498, -0.0072078407, 0.06890454
857, 304317212, 0.9981642, 0.010767266, -0.007396777, 0.0591392
858, 304333879, 0.99868757, 0.010614988, -0.007876029, 0.049478527
859, 304350546, 0.9991271, 0.009519246, -0.008309882, 0.039813392
860, 304367213, 0.99948424, 0.008111327, -0.008573378, 0.029861886
861, 304383880, 0.9997392, 0.0075383144, -0.008739859, 0.019691212
862, 304400547, 0.99987704, 0.008370645, -0.009139489, 0.009589156
863, 304417214, 0.99990046, 0.010170364, -0.009751238, -4.6447036E-4
864, 304433881, 0.99981964, 0.01200526, -0.010051553, -0.010743181
865, 304450548, 0.9996197, 0.014250364, -0.01023696, -0.021268487
866, 304467215, 0.9992823, 0.017097224, -0.010927758, -0.031982638
867, 304483882, 0.9988251, 0.020045066, -0.011957221, -0.042466667
868, 304500549, 0.99827194, 0.02180108, -0.012337288, -0.053154156
869, 304517216, 0.99762297, 0.02248958, -0.012261539, -0.06396922
870, 304533883, 0.9968685, 0.023239415, -0.0120978765, -0.07460874
871, 304550550, 0.99600124, 0.024867188, -0.0122292, -0.08493113
872, 304567217, 0.99499744, 0.027472908, -0.012401019, -0.09524431
873, 304583884, 0.99382156, 0.031342037, -0.01257139, -0.10572776
874, 304600551, 0.99253005, 0.035533413, -0.013175734, -0.115964934
875, 304617218, 0.991228, 0.03908321, -0.01446139, -0.1254207
876, 304633885, 0.98995024, 0.04047134, -0.015152, -0.1346515
877, 304650552, 0.9886439, 0.039829087, -0.015101326, -0.14411402
878, 304667219, 0.98728496, 0.03883928, -0.014856943, -0.15342465
879, 304683886, 0.9858532, 0.038690228, -0.015066561, -0.16238622
880, 304700553, 0.9843237, 0.039109603, -0.015607785, -0.1712711
881, 304717220, 0.9826374, 0.040007148, -0.016303182, -0.18043678
882, 304733887, 0.98082346, 0.041170184, -0.017055817, -0.189735
883, 304750554, 0.9789849, 0.041959576, -0.018132772, -0.1987434
884, 304767221, 0.9771215, 0.041877337, -0.019141346, -0.20763752
885, 304783888, 0.97520024, 0.04087219, -0.019746656, -0.21661916
886, 304800555, 0.97312075, 0.040072024, -0.020237766, -0.22587715
887, 304817222, 0.9709124, 0.0393949, -0.020634811, -0.23526904
888, 304833889, 0.9686832, 0.038555592, -0.021152511, -0.24437484
889, 304850556, 0.9663982, 0.037377067, -0.02146409, -0.25341046
890, 304867223, 0.9639767, 0.03633188, -0.021676168, -0.26260033
891, 304883890, 0.9614194, 0.0355307, -0.021971107, -0.2718961
892, 304900557, 0.95888215, 0.03480265, -0.02253293, -0.28075978
893, 304917224, 0.9562655, 0.033556968, -0.023055783, -0.28965202
894, 304933891, 0.95357466, 0.031840343, -0.023229757, -0.29856616
895, 304950558, 0.95079947, 0.030626554, -0.023517618, -0.30739108
896, 304967225, 0.94792026, 0.030074688, -0.02430011, -0.31615174
897, 304983892, 0.9449635, 0.029669736, -0.025512129, -0.32482702
898, 305000559, 0.9419511, 0.028597806, -0.026611613, -0.3334699
899, 305017226, 0.93883705, 0.027079422, -0.026838265, -0.34224427
900, 305033893, 0.93564963, 0.02541525, -0.026939314, -0.35098165
901, 305050560, 0.9323378, 0.024183787, -0.027463838, -0.35973188
902, 305067227, 0.92884356, 0.023083745, -0.027839072, -0.36870298
903, 305083894, 0.92526126, 0.022064274, -0.027781162, -0.37766764
904, 305100561, 0.9216142, 0.02124679, -0.027766202, -0.38652894
905, 305117228, 0.9179784, 0.02096856, -0.028616533, -0.3950405
906, 305133895, 0.9143088, 0.02058435, -0.029487474, -0.40341824
907, 305150562, 0.91063964, 0.01984076, -0.029921109, -0.41163856
908, 305167229, 0.9069449, 0.019311326, -0.030309543, -0.41971335
909, 305183896, 0.90316427, 0.019542724, -0.031533543, -0.42768914
910, 305200563, 0.8992275, 0.020060323, -0.032787766, -0.43578917
911, 305217230, 0.8952051, 0.020296058, -0.03340724, -0.44393662
912, 305233897, 0.89114076, 0.020597322, -0.03376041, -0.45200008
913, 305250564, 0.8871206, 0.021071453, -0.034743406, -0.45974538
914, 305267231, 0.8830514, 0.021831807, -0.036245007, -0.4673646
915, 305283898, 0.87878746, 0.022013657, -0.037257064, -0.47524723
916, 305300565, 0.87429047, 0.021439675, -0.037494563, -0.48347744
917, 305317232, 0.8695276, 0.01981837, -0.037077643, -0.49209166
918, 305333899, 0.86462015, 0.016483031, -0.036246244, -0.50084597
919, 305350566, 0.8596575, 0.011220637, -0.03389784, -0.50962126
920, 305367233, 0.85453856, 0.004531952, -0.029961815, -0.5185031
921, 305383900, 0.84930956, -0.0016131834, -0.02609698, -0.52724713
922, 305400567, 0.8442591, -0.00582321, -0.023672406, -0.53538054
923, 305417234, 0.83914953, -0.0078626955, -0.022739274, -0.5433684
924, 305433901, 0.8341551, -0.008110352, -0.022675408, -0.5510039
925, 305450568, 0.829212, -0.0061763767, -0.024000796, -0.5583846
926, 305467235, 0.8243906, -0.0033393127, -0.026599526, -0.5653861
927, 305483902, 0.81984365, -0.0010554232, -0.028642178, -0.57186985
928, 305500569, 0.8154204, -3.4403056E-4, -0.028946916, -0.5781447
929, 305517236, 0.81111974, -6.0082122E-5, -0.028535618, -0.58418345
930, 305533903, 0.8069052, 6.257319E-4, -0.028704219, -0.58998257
931, 305550570, 0.80278456, 0.0021493966, -0.029453877, -0.59553725
932, 305567237, 0.798696, 0.005393032, -0.030941244, -0.6009144
933, 305583904, 0.7946434, 0.01056728, -0.03406097, -0.6060279
934, 305600571, 0.7908969, 0.015766634, -0.03752395, -0.61059415
935, 305617238, 0.78758436, 0.019987624, -0.039733734, -0.6145994
936, 305633905, 0.78413266, 0.023061464, -0.040517744, -0.61883956
937, 305650572, 0.78048456, 0.025435211, -0.04056303, -0.6233389
938, 305667239, 0.7770932, 0.027341386, -0.040693868, -0.6274731
939, 305683906, 0.7740714, 0.029543504, -0.041275933, -0.6310603
940, 305700573, 0.7707938, 0.031329118, -0.041229863, -0.6349768
941, 305717240, 0.7674563, 0.032719083, -0.040996227, -0.6389519
942, 305733907, 0.7643252, 0.034151528, -0.04135078, -0.6425969
943, 305750574, 0.7612535, 0.035337374, -0.04165632, -0.6461494
944, 305767241, 0.7581751, 0.03625613, -0.04186521, -0.64969456
945, 305783908, 0.7551067, 0.037710655, -0.043022055, -0.6531009
946, 305800575, 0.75200766, 0.039422613, -0.044641014, -0.65645826
947, 305817242, 0.7490464, 0.040562857, -0.046118427, -0.6596644
948, 305833909, 0.7464286, 0.0408289, -0.047034714, -0.6625443
949, 305850576, 0.74377227, 0.04063143, -0.047290962, -0.6655189
950, 305867243, 0.7411965, 0.04045725, -0.047550343, -0.66837853
951, 305883910, 0.73888135, 0.04084763, -0.04895185, -0.6708125
952, 305900577, 0.7367764, 0.041619178, -0.0507656, -0.672942
953, 305917244, 0.7344546, 0.04194238, -0.051560506, -0.67539525
954, 305933911, 0.7323312, 0.041386526, -0.05135151, -0.6777471
955, 305950578, 0.7305205, 0.040910084, -0.051398885, -0.67972386
956, 305967245, 0.7287736, 0.04069368, -0.051770814, -0.681581
957, 305983912, 0.7270361, 0.04067041, -0.05207206, -0.6834125
958, 306000579, 0.7255743, 0.040727008, -0.051998846, -0.6849666
959, 306017246, 0.7244524, 0.041560594, -0.052593462, -0.6860576
960, 306033913, 0.7233425, 0.04277334, -0.053197034, -0.68710697
961, 306050580, 0.7224147, 0.043653037, -0.053382806, -0.6880129
962, 306067247, 0.72183335, 0.044126477, -0.053185087, -0.68860763
963, 306083914, 0.72154516, 0.044818897, -0.053376652, -0.6888503
964, 306100581, 0.72137856, 0.04577847, -0.0537437, -0.68893313
965, 306117248, 0.72129416, 0.046854436, -0.05368482, -0.6889539
966, 306133915, 0.72127444, 0.047857944, -0.05320389, -0.6889426
967, 306150582, 0.7214975, 0.048842683, -0.0526662, -0.68868124
968, 306167249, 0.72207963, 0.0497485, -0.051876355, -0.6880661
969, 306183916, 0.7226187, 0.050885636, -0.051380653, -0.68745387
970, 306200583, 0.7230496, 0.05184561, -0.051075615, -0.6869516
971, 306217250, 0.7236776, 0.052500837, -0.050747108, -0.68626446
972, 306233917, 0.72450846, 0.052679073, -0.0500449, -0.68542516
973, 306250584, 0.7252771, 0.052531082, -0.049230058, -0.68468237
974, 306267251, 0.7260255, 0.05237659, -0.04850781, -0.6839521
975, 306283918, 0.726966, 0.052433975, -0.048370995, -0.6829578
976, 306300585, 0.7278328, 0.05278805, -0.048783984, -0.6819772
977, 306317252, 0.7286455, 0.053178966, -0.049337316, -0.6810385
978, 306333919, 0.72951674, 0.053241946, -0.049468137, -0.68009084
979, 306350586, 0.7306309, 0.053141367, -0.04960172, -0.678892
980, 306367253, 0.7318873, 0.05331001, -0.050074406, -0.6774892
981, 306383920, 0.73294175, 0.05368418, -0.050295062, -0.67630243
982, 306400587, 0.73414326, 0.05357691, -0.04940461, -0.67507195
983, 306417254, 0.73577476, 0.05345102, -0.048294377, -0.673384
984, 306433921, 0.7376423, 0.053473175, -0.04742341, -0.671398
985, 306450588, 0.73972255, 0.053595275, -0.046745423, -0.66914326
986, 306467255, 0.7421055, 0.053614974, -0.04590947, -0.6665561
987, 306483922, 0.7447749, 0.05342303, -0.044741977, -0.66366744
988, 306500589, 0.7475873, 0.05333016, -0.043605827, -0.6605813
989, 306517256, 0.75063854, 0.053244215, -0.04246865, -0.65719336
990, 306533923, 0.75405395, 0.053027604, -0.041166503, -0.65337276
991, 306550590, 0.7576701, 0.052681625, -0.039539378, -0.64930534
992, 306567257, 0.76128215, 0.052465823, -0.03804058, -0.64517426
993, 306583924, 0.76512456, 0.052466154, -0.036846306, -0.64068264
994, 306600591, 0.7693081, 0.052567016, -0.0359025, -0.6356985
995, 306617258, 0.7735084, 0.052887753, -0.035051703, -0.63060176
996, 306633925, 0.7776848, 0.053343203, -0.03410299, -0.62545794
997, 306650592, 0.7819495, 0.05379974, -0.033031393, -0.62013686
998, 306667259, 0.78648216, 0.05413136, -0.032023054, -0.6144021
999, 306683926, 0.79115975, 0.054369107, -0.031082638, -0.6083947
1000, 306700593, 0.7956827, 0.054360274, -0.029734671, -0.6025361
1001, 306717260, 0.8001481, 0.05407839, -0.027790707, -0.5967126
1002, 306733927, 0.8046039, 0.05362835, -0.02567465, -0.5908276
1003, 306750594, 0.80915755, 0.053278215, -0.02385443, -0.58468485
1004, 306767261, 0.8136963, 0.053124677, -0.022264777, -0.5784289
1005, 306783928, 0.8180888, 0.053648185, -0.021090653, -0.57219535
1006, 306800595, 0.82236415, 0.0547174, -0.020380672, -0.56595755
1007, 306817262, 0.8267796, 0.055572387, -0.01970932, -0.5594272
1008, 306833929, 0.8314151, 0.05560436, -0.018254468, -0.55256134
1009, 306850596, 0.83589995, 0.054985948, -0.01608066, -0.5458836
1010, 306867263, 0.8402735, 0.05437394, -0.013825359, -0.5392518
1011, 306883930, 0.8447132, 0.05400875, -0.011967153, -0.5323527
1012, 306900597, 0.8492239, 0.0534636, -0.010168621, -0.52522063
1013, 306917264, 0.8536784, 0.05265171, -0.008176868, -0.5180674
1014, 306933931, 0.85807645, 0.051767275, -0.006173443, -0.5108685
1015, 306950598, 0.8625292, 0.051087324, -0.00452085, -0.5034013
1016, 306967265, 0.86706287, 0.05038689, -0.0029440601, -0.4956355
1017, 306983932, 0.8716197, 0.04959731, -0.0014178484, -0.48766488
1018, 307000599, 0.8760674, 0.048971493, -1.9040931E-4, -0.4796953
1019, 307017266, 0.8803931, 0.04820323, 0.0010814671, -0.47178736
1020, 307033933, 0.88473594, 0.047167707, 0.0025720452, -0.4636924
1021, 307050600, 0.8891037, 0.04564327, 0.0045773676, -0.4554013
1022, 307067267, 0.8936204, 0.04314773, 0.0071436185, -0.44668737
1023, 307083934, 0.8983277, 0.04019628, 0.009726498, -0.4373748
1024, 307100601, 0.9030057, 0.03785738, 0.011802323, -0.4277942
1025, 307117268, 0.90746444, 0.036716327, 0.012933531, -0.41832095
1026, 307133935, 0.9117235, 0.036403675, 0.013479166, -0.40896606
1027, 307150602, 0.9159483, 0.035771903, 0.014175743, -0.39944747
1028, 307167269, 0.92018294, 0.03468884, 0.015128757, -0.3896548
1029, 307183936, 0.92434406, 0.034008827, 0.015859758, -0.37970993
1030, 307200603, 0.92831653, 0.034330796, 0.016001688, -0.36985594
1031, 307217270, 0.93217534, 0.034733217, 0.01592741, -0.35998482
1032, 307233937, 0.93601567, 0.034512684, 0.015865576, -0.34990227
1033, 307250604, 0.93979853, 0.033720337, 0.016201792, -0.3396749
1034, 307267271, 0.9434333, 0.03348093, 0.016338982, -0.32946223
1035, 307283938, 0.9468559, 0.0342263, 0.015850436, -0.31943846
1036, 307300605, 0.95008844, 0.03543381, 0.015256154, -0.30958608
1037, 307317272, 0.9532364, 0.036079876, 0.014988916, -0.2996894
1038, 307333939, 0.9563076, 0.0362495, 0.015101527, -0.28971288
1039, 307350606, 0.9592448, 0.03608316, 0.015431115, -0.27983794
1040, 307367273, 0.962127, 0.03583091, 0.0156015055, -0.2697853
1041, 307383940, 0.9649037, 0.035989802, 0.01558734, -0.2596587
1042, 307400607, 0.96754426, 0.036474034, 0.015714198, -0.24956158
1043, 307417274, 0.9700298, 0.036771365, 0.016003713, -0.23965357
1044, 307433941, 0.9724325, 0.036917254, 0.016309319, -0.22966507
1045, 307450608, 0.9747049, 0.03711698, 0.016758433, -0.21975382
1046, 307467275, 0.9767848, 0.036882974, 0.01755906, -0.21029183
1047, 307483942, 0.9787742, 0.036174532, 0.01883943, -0.20084187
1048, 307500609, 0.9806672, 0.035880722, 0.019984167, -0.1913236
1049, 307517276, 0.9823852, 0.036383267, 0.020844087, -0.18210143
1050, 307533943, 0.9839857, 0.03676976, 0.021915417, -0.17303088
1051, 307550610, 0.98551434, 0.037165612, 0.023200305, -0.16383456
1052, 307567277, 0.9869005, 0.03812919, 0.02416766, -0.15488504
1053, 307583944, 0.98814666, 0.03973583, 0.024979854, -0.14616145
1054, 307600611, 0.98928267, 0.041359227, 0.02589473, -0.13761893
1055, 307617278, 0.99033475, 0.0425487, 0.027185325, -0.12918077
1056, 307633945, 0.99130416, 0.04323787, 0.028703613, -0.120923914
1057, 307650612, 0.9922061, 0.04363198, 0.029984418, -0.11280152
1058, 307667279, 0.9930486, 0.043665834, 0.031138856, -0.10477501
1059, 307683946, 0.9938469, 0.042830974, 0.032626305, -0.09679481
1060, 307700613, 0.99457383, 0.041832466, 0.03413029, -0.08892671
1061, 307717280, 0.9951847, 0.04143728, 0.03553364, -0.08140917
1062, 307733947, 0.99569273, 0.04154875, 0.036784332, -0.07427443
1063, 307750614, 0.99609804, 0.04264582, 0.03789301, -0.067334466
1064, 307767281, 0.99639493, 0.045721628, 0.038510777, -0.060194064
1065, 307783948, 0.99656606, 0.050528042, 0.038830776, -0.052869357
1066, 307800615, 0.9967161, 0.054377213, 0.039574437, -0.045098387
1067, 307817282, 0.99689436, 0.05659624, 0.04061001, -0.036731146
1068, 307833949, 0.9971058, 0.056801792, 0.04182084, -0.028361315
1069, 307850616, 0.9973861, 0.05412433, 0.04347963, -0.020025266
1070, 307867283, 0.99768984, 0.048857458, 0.045625128, -0.012094555
1071, 307883950, 0.99797803, 0.04154174, 0.04786299, -0.0048064394
1072, 307900617, 0.99816686, 0.034903836, 0.04941587, 0.0015816526
1073, 307917284, 0.998221, 0.031516522, 0.050025206, 0.0076837116
1074, 307933951, 0.99815595, 0.03272829, 0.049521416, 0.012684714
1075, 307950618, 0.99798346, 0.037499495, 0.04842544, 0.016664183
1076, 307967285, 0.9977625, 0.04301314, 0.047089178, 0.020064503
1077, 307983952, 0.99757296, 0.04698485, 0.04582029, 0.023261737
1078, 308000619, 0.99746037, 0.048591185, 0.0449567, 0.026274376
1079, 308017286, 0.9974123, 0.048628338, 0.044386517, 0.028872866
1080, 308033953, 0.99735796, 0.048995927, 0.043920357, 0.030781034
1081, 308050620, 0.99728256, 0.050218813, 0.04339027, 0.031981904
1082, 308067287, 0.9972101, 0.051562622, 0.042868353, 0.03279809
1083, 308083954, 0.99716246, 0.052515972, 0.04251378, 0.03319372
1084, 308100621, 0.9971388, 0.05298836, 0.042321704, 0.03339858
1085, 308117288, 0.9971388, 0.05291234, 0.041984413, 0.033945598
1086, 308133955, 0.9971367, 0.0527537, 0.041499116, 0.0348388
1087, 308150622, 0.99712634, 0.052918635, 0.040986653, 0.035483852
1088, 308167289, 0.997092, 0.05374374, 0.04055647, 0.03570331
1089, 308183956, 0.9970397, 0.05504473, 0.04009245, 0.035703685
1090, 308200623, 0.9969963, 0.056114182, 0.03951474, 0.03589819
1091, 308217290, 0.9969875, 0.05647877, 0.039006513, 0.036128316
1092, 308233957, 0.9970283, 0.05604804, 0.03855696, 0.03614768
1093, 308250624, 0.9970685, 0.055841863, 0.03816981, 0.035765275
1094, 308267291, 0.99707425, 0.05638078, 0.03774488, 0.035207752
1095, 308283958, 0.99707353, 0.056773156, 0.037368145, 0.0349988
1096, 308300625, 0.99709064, 0.05668739, 0.037199058, 0.03482819
1097, 308317292, 0.9970956, 0.05708387, 0.03694414, 0.034310482
1098, 308333959, 0.99704635, 0.058716673, 0.036455087, 0.03349394
1099, 308350626, 0.9969551, 0.061038066, 0.03581269, 0.032743856
1100, 308367293, 0.99686885, 0.06308706, 0.03529671, 0.032038976
1101, 308383960, 0.9967803, 0.06526918, 0.0347977, 0.030953133
1102, 308400627, 0.99667084, 0.067849785, 0.03419487, 0.0295672
1103, 308417294, 0.99655473, 0.07045151, 0.033464555, 0.028201627
1104, 308433961, 0.9964465, 0.07277983, 0.032812074, 0.026852056
1105, 308450628, 0.99632204, 0.075312264, 0.032211844, 0.02516066
1106, 308467295, 0.9961502, 0.07843147, 0.031548653, 0.02320018
1107, 308483962, 0.9959664, 0.08155862, 0.030701166, 0.021369725
1108, 308500629, 0.99585456, 0.08351874, 0.03003727, 0.019910121
1109, 308517296, 0.9958538, 0.08391615, 0.029662283, 0.018803937
1110, 308533963, 0.9959282, 0.08330991, 0.029420277, 0.017917743
1111, 308550630, 0.99601656, 0.08250312, 0.029068979, 0.017300766
1112, 308567297, 0.99609816, 0.081743374, 0.028665137, 0.016883068
1113, 308583964, 0.99614924, 0.081386276, 0.028297797, 0.01619668
1114, 308600631, 0.9961765, 0.08135194, 0.027938835, 0.015293999
1115, 308617298, 0.9961832, 0.08152987, 0.02749264, 0.014706728
1116, 308633965, 0.99618804, 0.08159393, 0.027255438, 0.01446146
1117, 308650632, 0.99619323, 0.08160367, 0.02713534, 0.014280244
1118, 308667299, 0.9961662, 0.08203534, 0.026948322, 0.014037449
1119, 308683966, 0.99611473, 0.08278582, 0.026734043, 0.013704502
1120, 308700633, 0.99609107, 0.083180696, 0.026506351, 0.013458926
1121, 308717300, 0.9961055, 0.08303198, 0.026565924, 0.013196422
1122, 308733967, 0.9961208, 0.08283853, 0.026798882, 0.012769411
1123, 308750634, 0.996103, 0.08305795, 0.027039465, 0.012220461
1124, 308767301, 0.99605715, 0.083607405, 0.027347246, 0.01150276
1125, 308783968, 0.99598944, 0.08443813, 0.027581312, 0.010721649
1126, 308800635, 0.9958874, 0.08569358, 0.02768826, 0.009916995
1127, 308817302, 0.9957825, 0.08693976, 0.027842304, 0.009154636
1128, 308833969, 0.99572444, 0.08757799, 0.028092477, 0.008607435
1129, 308850636, 0.9956956, 0.08785087, 0.028411007, 0.008084517
1130, 308867303, 0.9956447, 0.08840087, 0.028643072, 0.0075409366
1131, 308883970, 0.99555206, 0.08943018, 0.028770607, 0.0071256575
1132, 308900637, 0.9954417, 0.09063179, 0.028920254, 0.0067494093
1133, 308917304, 0.99532807, 0.09182192, 0.029159332, 0.0063867797
1134, 308933971, 0.9951958, 0.0931971, 0.02941129, 0.0058997935
1135, 308950638, 0.9950259, 0.094951786, 0.029646035, 0.0053790407
1136, 308967305, 0.9948235, 0.096949965, 0.030040165, 0.0049731466
1137, 308983972, 0.9946245, 0.09884411, 0.030506078, 0.004646129
1138, 309000639, 0.9944382, 0.10055441, 0.031025754, 0.004372132
1139, 309017306, 0.9942638, 0.10212766, 0.031519376, 0.004006623
1140, 309033973, 0.99411637, 0.10339038, 0.032070678, 0.0038428237
1141, 309050640, 0.99401355, 0.104206935, 0.032620724, 0.0037654224
1142, 309067307, 0.9939635, 0.104549624, 0.03305987, 0.0036443193
1143, 309083974, 0.9939076, 0.10491702, 0.0335739, 0.0036256933
1144, 309100641, 0.9938618, 0.1051767, 0.034100197, 0.0037497515
1145, 309117308, 0.99385476, 0.10499864, 0.034817997, 0.004000659
1146, 309133975, 0.9938721, 0.10457734, 0.035576582, 0.004035374
1147, 309150642, 0.99377877, 0.105275534, 0.03614391, 0.0038272194
1148, 309167309, 0.99351275, 0.10767987, 0.036416713, 0.003402193
1149, 309183976, 0.99313813, 0.11111053, 0.036374524, 0.0028977615
1150, 309200643, 0.9927782, 0.11434438, 0.03620588, 0.0024920153
1151, 309217310, 0.9925429, 0.11636624, 0.036237124, 0.002136086
1152, 309233977, 0.9924104, 0.11740129, 0.036546774, 0.0017524376
1153, 309250644, 0.99230283, 0.11816026, 0.037031863, 0.0014824056
1154, 309267311, 0.99215406, 0.119278535, 0.0374341, 0.0013497572
1155, 309283978, 0.991882, 0.1213751, 0.037904024, 0.0012784323
1156, 309300645, 0.9914914, 0.12433165, 0.03853396, 0.0013319679
1157, 309317312, 0.9910314, 0.12778313, 0.03907614, 0.0013025382
1158, 309333979, 0.9904675, 0.13198149, 0.03942264, 0.0010087204
1159, 309350646, 0.9897187, 0.13738294, 0.039784342, 5.8891636E-4
1160, 309367313, 0.9887504, 0.14410138, 0.040095102, 6.537163E-5
1161, 309383980, 0.9875968, 0.15173101, 0.040379085, -4.6520797E-4
1162, 309400647, 0.98637044, 0.15941644, 0.040735316, -7.843359E-4
1163, 309417314, 0.9851262, 0.16680627, 0.041245583, -0.0010012246
1164, 309433981, 0.98377544, 0.17447479, 0.041746818, -0.0014345723
1165, 309450648, 0.9821458, 0.18333414, 0.042130925, -0.0019064138
1166, 309467315, 0.9801847, 0.19347696, 0.0424249, -0.0022265099
1167, 309483982, 0.9780007, 0.20414841, 0.042796936, -0.0025801843
1168, 309500649, 0.9757443, 0.21459569, 0.043158974, -0.0030562545
1169, 309517316, 0.97343934, 0.22473937, 0.043548487, -0.0034214926
1170, 309533983, 0.971008, 0.23494397, 0.0439392, -0.0037865369
1171, 309550650, 0.9684572, 0.245189, 0.04421817, -0.0042359047
1172, 309567317, 0.9659183, 0.2549826, 0.044355154, -0.004322879
1173, 309583984, 0.96349174, 0.2639821, 0.04451557, -0.003946581
1174, 309600651, 0.9611777, 0.27224603, 0.044809025, -0.0034464805
1175, 309617318, 0.95863235, 0.281018, 0.045194898, -0.0032842227
1176, 309633985, 0.95571226, 0.29072812, 0.045608938, -0.0033584542
1177, 309650652, 0.9526122, 0.30064413, 0.046154242, -0.0036120967
1178, 309667319, 0.9498132, 0.30926415, 0.046834067, -0.004191908
1179, 309683986, 0.9474913, 0.31622207, 0.04737193, -0.0044783154
1180, 309700653, 0.9455666, 0.3218321, 0.048019942, -0.004732506
1181, 309717320, 0.9438833, 0.32661697, 0.048802037, -0.004936591
1182, 309733987, 0.94228274, 0.33108643, 0.049590196, -0.0051163165
1183, 309750654, 0.9407081, 0.33542165, 0.050345182, -0.0051324735
1184, 309767321, 0.9391479, 0.3396433, 0.051163465, -0.005119888
1185, 309783988, 0.93756086, 0.34390157, 0.051798075, -0.0053603696
1186, 309800655, 0.93597716, 0.34813207, 0.05212996, -0.0057992865
1187, 309817322, 0.93470395, 0.3514848, 0.05244393, -0.0060651875
1188, 309833989, 0.93374723, 0.35393187, 0.052964672, -0.006586331
1189, 309850656, 0.9327831, 0.35638374, 0.05344028, -0.007143144
1190, 309867323, 0.9318271, 0.35881737, 0.05377198, -0.0075758668
1191, 309883990, 0.9309346, 0.36107093, 0.054089174, -0.007950212
1192, 309900657, 0.92998105, 0.36345747, 0.054442704, -0.008388387
1193, 309917324, 0.92891955, 0.3661246, 0.054616783, -0.008858226
1194, 309933991, 0.92787206, 0.36875626, 0.05463642, -0.009342641
1195, 309950658, 0.9269245, 0.37112248, 0.05460613, -0.009879332
1196, 309967325, 0.92603004, 0.373332, 0.054629818, -0.010356327
1197, 309983992, 0.9252606, 0.37518916, 0.054837007, -0.010925459
1198, 310000659, 0.9245251, 0.37691793, 0.055199705, -0.011804171
1199, 310017326, 0.9238429, 0.37850562, 0.05554724, -0.0127496235
1200, 310033993, 0.92339337, 0.3795116, 0.055930566, -0.013696274
1201, 310050660, 0.922967, 0.38046333, 0.056229036, -0.014762071
1202, 310067327, 0.92248267, 0.38156596, 0.056404043, -0.01587064
1203, 310083994, 0.9220576, 0.3825132, 0.056628548, -0.016932672
1204, 310100661, 0.9217732, 0.3831026, 0.05691236, -0.018100409
1205, 310117328, 0.9216062, 0.38341665, 0.057111267, -0.019298486
1206, 310133995, 0.92150027, 0.38362697, 0.057032105, -0.020375675
1207, 310150662, 0.9214325, 0.3837729, 0.056767706, -0.021405904
1208, 310167329, 0.92130524, 0.38408044, 0.056348056, -0.022449879
1209, 310183996, 0.921121, 0.38455358, 0.055814292, -0.023229603
1210, 310200663, 0.9209768, 0.38496095, 0.055171445, -0.02373013
1211, 310217330, 0.9208286, 0.3854009, 0.054434456, -0.02404385
1212, 310233997, 0.920607, 0.38606972, 0.053350255, -0.024227498
1213, 310250664, 0.9204151, 0.38670033, 0.052036963, -0.024315178
1214, 310267331, 0.9203878, 0.38693005, 0.050844606, -0.024218084
1215, 310283998, 0.9204385, 0.3869833, 0.049610965, -0.023996327
1216, 310300665, 0.9203819, 0.38732204, 0.04816365, -0.023650678
1217, 310317332, 0.9204563, 0.3873347, 0.046843756, -0.023194864
1218, 310333999, 0.9206499, 0.3870301, 0.04576066, -0.022757482
1219, 310350666, 0.9206951, 0.38707155, 0.044718638, -0.022287939
1220, 310367333, 0.9206683, 0.38728648, 0.04365516, -0.021762673
1221, 310384000, 0.92076147, 0.3871937, 0.042749204, -0.021266442
1222, 310400667, 0.9209616, 0.3868323, 0.041921858, -0.020818636
1223, 310417334, 0.92119503, 0.38639224, 0.041081864, -0.020324897
1224, 310434001, 0.92136604, 0.38610166, 0.040276464, -0.019698188
1225, 310450668, 0.9217096, 0.3853834, 0.039599188, -0.019062836
1226, 310467335, 0.9220556, 0.38463438, 0.039052162, -0.018575218
1227, 310484002, 0.9222305, 0.38430518, 0.03840948, -0.018037902
1228, 310500669, 0.92246675, 0.3838306, 0.037774302, -0.017397173
1229, 310517336, 0.9226821, 0.38338652, 0.037263494, -0.016862165
1230, 310534003, 0.9228441, 0.38305396, 0.03689407, -0.016353726
1231, 310550670, 0.9229737, 0.38278356, 0.036700346, -0.015801173
1232, 310567337, 0.92301834, 0.3827043, 0.036633953, -0.01525856
1233, 310584004, 0.9229014, 0.38301235, 0.036579937, -0.014717232
1234, 310600671, 0.92294633, 0.38289016, 0.03688733, -0.014307627
1235, 310617338, 0.92300326, 0.3826967, 0.03755353, -0.014079259
1236, 310634005, 0.9229889, 0.38267055, 0.03824203, -0.013884644
1237, 310650672, 0.9229114, 0.38278848, 0.03896069, -0.01377826
1238, 310667339, 0.92283964, 0.38288337, 0.03969375, -0.013864165
1239, 310684006, 0.92278785, 0.38291204, 0.04053636, -0.014070905
1240, 310700673, 0.9229133, 0.38250107, 0.041522935, -0.014150628
1241, 310717340, 0.9231481, 0.3817864, 0.042867232, -0.014120506
1242, 310734007, 0.9232892, 0.3812668, 0.044442773, -0.014067373
1243, 310750674, 0.9232831, 0.38111085, 0.04584969, -0.01418283
1244, 310767341, 0.92314947, 0.38127398, 0.047106367, -0.014370207
1245, 310784008, 0.92289925, 0.38172436, 0.0482874, -0.014567165
1246, 310800675, 0.92270297, 0.38203946, 0.04946892, -0.014765838
1247, 310817342, 0.92269176, 0.3818913, 0.050742626, -0.014974938
1248, 310834009, 0.9228304, 0.3813631, 0.05212003, -0.015170973
1249, 310850676, 0.92293245, 0.38093215, 0.05343782, -0.015202755
1250, 310867343, 0.9229862, 0.38064843, 0.05455543, -0.015071924
1251, 310884010, 0.92297566, 0.3805323, 0.0555888, -0.014871437
1252, 310900677, 0.9228847, 0.38062066, 0.05653023, -0.01471381
1253, 310917344, 0.9227574, 0.3807985, 0.057438765, -0.014571952
1254, 310934011, 0.92250144, 0.38131467, 0.058196902, -0.014267966
1255, 310950678, 0.92234427, 0.38162276, 0.058746766, -0.013936644
1256, 310967345, 0.9223334, 0.38157994, 0.059284292, -0.013549867
1257, 310984012, 0.92235136, 0.38147312, 0.05977208, -0.013180314
1258, 311000679, 0.92239255, 0.3813028, 0.060285985, -0.012878933
1259, 311017346, 0.9224156, 0.38115385, 0.060931277, -0.012606837
1260, 311034013, 0.9224816, 0.38090152, 0.061563283, -0.0123346355
1261, 311050680, 0.9225945, 0.3805555, 0.062078346, -0.011970489
1262, 311067347, 0.92267984, 0.38028708, 0.0625426, -0.0114965765
1263, 311084014, 0.92268646, 0.38021895, 0.06296463, -0.010903438
1264, 311100681, 0.92265266, 0.38028893, 0.06315341, -0.010211929
1265, 311117348, 0.9226495, 0.3803165, 0.06314145, -0.009517678
1266, 311134015, 0.9226919, 0.38024223, 0.06306788, -0.008829103
1267, 311150682, 0.9227227, 0.38019505, 0.06299333, -0.008147206
1268, 311167349, 0.9227088, 0.3802526, 0.06294203, -0.007414919
1269, 311184016, 0.9225837, 0.38056388, 0.062973835, -0.0067112325
1270, 311200683, 0.9223299, 0.3811846, 0.062994935, -0.0061317678
1271, 311217350, 0.9220731, 0.38179514, 0.06310443, -0.0056097745
1272, 311234017, 0.9218394, 0.3823144, 0.06342232, -0.0050805826
1273, 311250684, 0.92171526, 0.3825572, 0.06380324, -0.0045190128
1274, 311267351, 0.92173505, 0.38245204, 0.06417992, -0.0040511526
1275, 311284018, 0.9219174, 0.38192064, 0.064745456, -0.0036333117
1276, 311300685, 0.92210585, 0.38129944, 0.065740354, -0.0031654367
1277, 311317352, 0.92219234, 0.3808685, 0.06703576, -0.0026291725
1278, 311334019, 0.9220413, 0.38097596, 0.0684998, -0.0022362778
1279, 311350686, 0.92170674, 0.38153848, 0.069864966, -0.00202847
1280, 311367353, 0.92127436, 0.38239256, 0.07089274, -0.0019586196
1281, 311384020, 0.9208375, 0.38329834, 0.07167474, -0.001939734
1282, 311400687, 0.920458, 0.38407454, 0.07238873, -0.0019299195
1283, 311417354, 0.9202221, 0.38451034, 0.073073275, -0.0018184567
1284, 311434021, 0.92021143, 0.38442826, 0.07364683, -0.0015246826
1285, 311450688, 0.92034876, 0.38401285, 0.07410389, -0.0011354168
1286, 311467355, 0.92050093, 0.38358665, 0.074423075, -7.7945204E-4
1287, 311484022, 0.92056453, 0.38338888, 0.074659534, -4.6526804E-4
1288, 311500689, 0.92050534, 0.3835345, 0.074642636, -2.1438254E-4
1289, 311517356, 0.92033976, 0.38399535, 0.07431331, -5.483278E-5
1290, 311534023, 0.92016536, 0.38448837, 0.07392186, -2.0002946E-5
1291, 311550690, 0.9200536, 0.38481662, 0.07360427, -3.326498E-5
1292, 311567357, 0.9200216, 0.3849425, 0.07334671, -9.82848E-6
1293, 311584024, 0.9199878, 0.38506624, 0.0731217, 4.1404506E-5
1294, 311600691, 0.9198759, 0.3853581, 0.072989844, 5.845027E-5
1295, 311617358, 0.9196221, 0.38596135, 0.07300211, 1.3615703E-5
1296, 311634025, 0.9192796, 0.3867737, 0.07301903, -6.968854E-5
1297, 311650692, 0.9189692, 0.38750166, 0.07306319, -8.760649E-5
1298, 311667359, 0.9186901, 0.3881371, 0.07320125, -6.6738576E-5
1299, 311684026, 0.91848016, 0.38860068, 0.07337665, -3.096182E-6
1300, 311700693, 0.9183278, 0.38893226, 0.07352488, -1.430884E-5
1301, 311717360, 0.91824114, 0.38911718, 0.07362967, -1.6882899E-4
1302, 311734027, 0.9181832, 0.3892427, 0.07368702, -4.0881312E-4
1303, 311750694, 0.9181656, 0.38929185, 0.073645055, -6.500406E-4
1304, 311767361, 0.9179968, 0.38971597, 0.073502496, -0.0010014153
1305, 311784028, 0.91772515, 0.39039493, 0.0732833, -0.0014785901
1306, 311800695, 0.9174708, 0.39102954, 0.07306963, -0.0021424042
1307, 311817362, 0.9172659, 0.3915152, 0.07301364, -0.0029115393
1308, 311834029, 0.9171194, 0.39186138, 0.0729629, -0.0036688242
1309, 311850696, 0.9170349, 0.3920726, 0.07285187, -0.004350121
1310, 311867363, 0.9169426, 0.392313, 0.07267471, -0.0050599542
1311, 311884030, 0.91691196, 0.39242262, 0.072422, -0.0056749303
1312, 311900697, 0.916924, 0.39244094, 0.072136916, -0.0060811844
1313, 311917364, 0.916861, 0.39264348, 0.07180202, -0.006444065
1314, 311934031, 0.91679406, 0.39284945, 0.07149845, -0.0067886803
1315, 311950698, 0.9166773, 0.39316785, 0.07120434, -0.0072084414
1316, 311967365, 0.9164444, 0.39379603, 0.070691265, -0.007592035
1317, 311984032, 0.91618323, 0.3945229, 0.06998589, -0.007893421
1318, 312000699, 0.9159336, 0.3952499, 0.06911117, -0.008199155
1319, 312017366, 0.9157769, 0.39576486, 0.068182185, -0.008622038
1320, 312034033, 0.91591364, 0.39560118, 0.06724846, -0.008941296
1321, 312050700, 0.91627246, 0.39493534, 0.06624991, -0.009056239
1322, 312067367, 0.91649437, 0.39460763, 0.06509633, -0.009249467
1323, 312084034, 0.9166327, 0.39446822, 0.063966155, -0.009375282
1324, 312100701, 0.91678923, 0.3942989, 0.062746875, -0.009431142
1325, 312117368, 0.91688174, 0.39426008, 0.061628077, -0.009439153
1326, 312134035, 0.9166937, 0.3948827, 0.06041046, -0.009544537
1327, 312150702, 0.9161797, 0.39627537, 0.059063382, -0.009604222
1328, 312167369, 0.91520816, 0.39875183, 0.057395563, -0.0098452065
1329, 312184036, 0.91389495, 0.40202728, 0.055326555, -0.010467137
1330, 312200703, 0.91241276, 0.40565628, 0.05314126, -0.011056783
1331, 312217370, 0.9110197, 0.40901977, 0.051140238, -0.01144274
1332, 312234037, 0.910237, 0.4109644, 0.0493893, -0.011735948
1333, 312250704, 0.9100999, 0.41144684, 0.04780358, -0.012022799
1334, 312267371, 0.91036135, 0.41101024, 0.046490215, -0.012315383
1335, 312284038, 0.9108904, 0.40996858, 0.045210216, -0.012687431
1336, 312300705, 0.9116921, 0.40830794, 0.04388387, -0.013285876
1337, 312317372, 0.91274476, 0.4060912, 0.04229426, -0.014087306
1338, 312334039, 0.9138536, 0.40372422, 0.040706404, -0.014889641
1339, 312350706, 0.91490847, 0.40144256, 0.03926102, -0.015657805
1340, 312367373, 0.91615885, 0.39868283, 0.037901748, -0.016386187
1341, 312384040, 0.9175673, 0.3955554, 0.036242742, -0.017108489
1342, 312400707, 0.91909355, 0.3921149, 0.034620095, -0.01773386
1343, 312417374, 0.920595, 0.38868698, 0.033032622, -0.018336339
1344, 312434041, 0.9219191, 0.38563964, 0.03145282, -0.018927202
1345, 312450708, 0.923213, 0.38263687, 0.029857635, -0.019389689
1346, 312467375, 0.92440325, 0.37985677, 0.028413635, -0.019506626
1347, 312484042, 0.9254611, 0.37738493, 0.026918435, -0.019442128
1348, 312500709, 0.926431, 0.3751048, 0.025398597, -0.019419244
1349, 312517376, 0.9273726, 0.3728789, 0.023817997, -0.019355733
1350, 312534043, 0.9281829, 0.37097228, 0.02216653, -0.019109374
1351, 312550710, 0.92868125, 0.36984697, 0.02050245, -0.018557042
1352, 312567377, 0.92886657, 0.3695091, 0.018788334, -0.017810667
1353, 312584044, 0.9293197, 0.36846974, 0.017172482, -0.017331919
1354, 312600711, 0.9299382, 0.36698452, 0.015538617, -0.017208083
1355, 312617378, 0.93056846, 0.36546257, 0.013960507, -0.01687829
1356, 312634045, 0.93123657, 0.36383855, 0.012681553, -0.016115256
1357, 312650712, 0.9319975, 0.3619551, 0.011591468, -0.015336172
1358, 312667379, 0.9328653, 0.35977122, 0.010458156, -0.014770548
1359, 312684046, 0.93376654, 0.35746726, 0.009434334, -0.014443826
1360, 312700713, 0.9346037, 0.35531425, 0.008423266, -0.014038412
1361, 312717380, 0.93529975, 0.3535251, 0.0073952666, -0.013426659
1362, 312734047, 0.9360951, 0.3514579, 0.0062958114, -0.012805713
1363, 312750714, 0.9371028, 0.3488014, 0.0049254913, -0.012323154
1364, 312767381, 0.938235, 0.34578398, 0.0035891864, -0.011668725
1365, 312784048, 0.93952894, 0.34229448, 0.002568099, -0.010651552
1366, 312800715, 0.9407912, 0.33885238, 0.0016046541, -0.009419143
1367, 312817382, 0.9419786, 0.33557424, 6.5230695E-4, -0.008122244
1368, 312834049, 0.94318634, 0.33219492, -3.332852E-4, -0.006795973
1369, 312850716, 0.9443927, 0.32877052, -0.0014364442, -0.005529872
1370, 312867383, 0.9455498, 0.32544112, -0.0024403553, -0.0042442204
1371, 312884050, 0.9467964, 0.321803, -0.0033459493, -0.002918193
1372, 312900717, 0.9481736, 0.31772363, -0.0040177945, -0.0016331829
1373, 312917384, 0.94940704, 0.3140147, -0.0046108384, -3.0512759E-4
1374, 312934051, 0.9503937, 0.3110029, -0.0052584275, 0.0012779335
1375, 312950718, 0.9514635, 0.30769783, -0.00557684, 0.002879559
1376, 312967385, 0.95265573, 0.30397302, -0.0055671255, 0.0041085626
1377, 312984052, 0.9538731, 0.30011472, -0.005444578, 0.0052784327
1378, 313000719, 0.9549985, 0.2964897, -0.004924705, 0.006931662
1379, 313017386, 0.9560081, 0.29318267, -0.004200434, 0.008660338
1380, 313034053, 0.95690423, 0.2902093, -0.0036707486, 0.009985102
1381, 313050720, 0.9577233, 0.28746748, -0.0029261042, 0.010959284
1382, 313067387, 0.95836633, 0.28529912, -0.002146894, 0.011570116
1383, 313084054, 0.9590227, 0.28306162, -0.001282685, 0.012262041
1384, 313100721, 0.9597103, 0.28067398, -4.521393E-4, 0.01335654
1385, 313117388, 0.96048915, 0.2779392, 2.7813154E-4, 0.014511395
1386, 313134055, 0.9612505, 0.27523777, 9.654908E-4, 0.015525427
1387, 313150722, 0.96201414, 0.27249116, 0.0016045087, 0.01659076
1388, 313167389, 0.96281874, 0.26957017, 0.0022125528, 0.017530575
1389, 313184056, 0.9635154, 0.26702136, 0.0028848816, 0.01815229
1390, 313200723, 0.9640505, 0.26502627, 0.0036106852, 0.018849479
1391, 313217390, 0.9644991, 0.26331872, 0.003821719, 0.01976103
1392, 313234057, 0.96504444, 0.26122406, 0.0038523716, 0.02090355
1393, 313250724, 0.9657347, 0.25856847, 0.0040447935, 0.021971827
1394, 313267391, 0.96645284, 0.25577956, 0.0044144136, 0.022944486
1395, 313284058, 0.9670257, 0.25350004, 0.0046567814, 0.024035238
1396, 313300725, 0.96752745, 0.2514383, 0.004785149, 0.025432227
1397, 313317392, 0.9680082, 0.2494438, 0.004745912, 0.026752166
1398, 313334059, 0.9684775, 0.24748197, 0.0047394224, 0.027961314
1399, 313350726, 0.9689786, 0.24536863, 0.004696195, 0.029211376
1400, 313367393, 0.9694852, 0.24318548, 0.0044643288, 0.030652681
1401, 313384060, 0.9701462, 0.24031737, 0.0042589377, 0.032344256
1402, 313400727, 0.97105974, 0.23633435, 0.0042315177, 0.034227397
1403, 313417394, 0.9721343, 0.23158473, 0.004376755, 0.036117617
1404, 313434061, 0.9730577, 0.22735806, 0.0045246207, 0.038035326
1405, 313450728, 0.97368515, 0.224295, 0.004671734, 0.040092666
1406, 313467395, 0.9741739, 0.22176144, 0.004814284, 0.04223922
1407, 313484062, 0.974715, 0.21895228, 0.0049406965, 0.044346582
1408, 313500729, 0.9753394, 0.21570162, 0.005010201, 0.046486918
1409, 313517396, 0.97608584, 0.21180327, 0.005327166, 0.04865787
1410, 313534063, 0.9769838, 0.207134, 0.00586542, 0.05063519
1411, 313550730, 0.9779623, 0.20195562, 0.0065477784, 0.052543744
1412, 313567397, 0.97891325, 0.19673695, 0.0075260648, 0.054471307
1413, 313584064, 0.97986597, 0.19136876, 0.008497008, 0.05629001
1414, 313600731, 0.98078656, 0.18601122, 0.009621848, 0.058011465
1415, 313617398, 0.98166555, 0.18066819, 0.010772437, 0.059798375
1416, 313634065, 0.9824443, 0.17574336, 0.011957331, 0.06143784
1417, 313650732, 0.9829306, 0.17246346, 0.013086881, 0.06271143
1418, 313667399, 0.9828784, 0.17238268, 0.013948962, 0.06356032
1419, 313684066, 0.9823752, 0.1748704, 0.014794634, 0.064347826
1420, 313700733, 0.9819952, 0.17665343, 0.015618791, 0.065079235
1421, 313717400, 0.9818734, 0.17704645, 0.01634275, 0.065669395
1422, 313734067, 0.98182935, 0.17709455, 0.01708748, 0.06600647
1423, 313750734, 0.98168993, 0.1777638, 0.01764585, 0.066132426
1424, 313767401, 0.98140156, 0.17919925, 0.018138137, 0.06640655
1425, 313784068, 0.9811609, 0.18030493, 0.01863684, 0.066831335
1426, 313800735, 0.9810539, 0.18076706, 0.019078186, 0.06702907
1427, 313817402, 0.9808854, 0.18175647, 0.019337803, 0.06674473
1428, 313834069, 0.9805905, 0.18341447, 0.019593554, 0.06646487
1429, 313850736, 0.9803992, 0.18442643, 0.019845849, 0.06641452
1430, 313867403, 0.9804251, 0.18427734, 0.020133097, 0.06635852
1431, 313884070, 0.98051554, 0.18389335, 0.020422745, 0.06599634
1432, 313900737, 0.9805213, 0.18392727, 0.020665107, 0.065740064
1433, 313917404, 0.98048645, 0.18409498, 0.020934874, 0.065705426
1434, 313934071, 0.98049265, 0.18406992, 0.02113862, 0.06561773
1435, 313950738, 0.9804678, 0.18422908, 0.021279305, 0.0654981
1436, 313967405, 0.9804218, 0.18446414, 0.021342035, 0.06550517
1437, 313984072, 0.98035055, 0.18482676, 0.021449283, 0.065514095
1438, 314000739, 0.98031586, 0.18499878, 0.021551162, 0.06551437
1439, 314017406, 0.98031336, 0.18500318, 0.021674614, 0.06549876
1440, 314034073, 0.9803725, 0.18467174, 0.021886569, 0.06547695
1441, 314050740, 0.9804165, 0.18446486, 0.022068262, 0.065339774
1442, 314067407, 0.98037696, 0.18471707, 0.022199007, 0.06517674
1443, 314084074, 0.98032296, 0.18499967, 0.02235871, 0.065132685
1444, 314100741, 0.9803126, 0.18504727, 0.02254686, 0.06508799
1445, 314117408, 0.9803169, 0.18505552, 0.022801591, 0.06491251
1446, 314134075, 0.98029387, 0.18524383, 0.023019044, 0.06464484
1447, 314150742, 0.98028445, 0.18532644, 0.02320111, 0.06448648
1448, 314167409, 0.9803131, 0.18516408, 0.023395928, 0.06444739
1449, 314184076, 0.9802967, 0.18524069, 0.023650663, 0.06438231
1450, 314200743, 0.9801724, 0.18598899, 0.02388559, 0.0640305
1451, 314217410, 0.97995883, 0.18721649, 0.02411809, 0.06363301
1452, 314234077, 0.97974545, 0.18835482, 0.024431305, 0.06344028
1453, 314250744, 0.9796186, 0.18905023, 0.024809245, 0.06318167
1454, 314267411, 0.9794923, 0.1898102, 0.025170958, 0.06271776
1455, 314284078, 0.9793111, 0.19088909, 0.025456402, 0.06215631
1456, 314300745, 0.9791776, 0.19166966, 0.025818542, 0.06170645
1457, 314317412, 0.97911376, 0.19205834, 0.02631269, 0.0613005
1458, 314334079, 0.9790662, 0.19240962, 0.02680022, 0.060743675
1459, 314350746, 0.9788706, 0.19358799, 0.027180534, 0.059979845
1460, 314367413, 0.97851735, 0.19558126, 0.0275625, 0.059096538
1461, 314384080, 0.9781591, 0.19763829, 0.028045306, 0.05794514
1462, 314400747, 0.97779006, 0.19977455, 0.028756179, 0.056481652
1463, 314417414, 0.9773615, 0.20218366, 0.02979467, 0.054761697
1464, 314434081, 0.9768378, 0.20498069, 0.03121536, 0.05288445
1465, 314450748, 0.9762742, 0.20784958, 0.03311636, 0.050897654
1466, 314467415, 0.9757344, 0.21048689, 0.035410006, 0.04882626
1467, 314484082, 0.9752393, 0.21280876, 0.03781893, 0.0468054
1468, 314500749, 0.9747838, 0.21480344, 0.040163, 0.045202103
1469, 314517416, 0.9744512, 0.21612307, 0.042474106, 0.043954223
1470, 314534083, 0.9741582, 0.21723646, 0.044844333, 0.04258611
1471, 314550750, 0.9737254, 0.21902254, 0.047265314, 0.040672358
1472, 314567417, 0.97306925, 0.22178718, 0.04959954, 0.038559224
1473, 314584084, 0.97230303, 0.22484604, 0.052129194, 0.036792643
1474, 314600751, 0.9716603, 0.2271794, 0.055070415, 0.035115376
1475, 314617418, 0.97114766, 0.22887737, 0.058256615, 0.033071406
1476, 314634085, 0.9705961, 0.23076509, 0.061294172, 0.030566616
1477, 314650752, 0.96989524, 0.23319256, 0.064396575, 0.027894706
1478, 314667419, 0.96926695, 0.23513769, 0.067867026, 0.025027905
1479, 314684086, 0.9686471, 0.23684752, 0.07177007, 0.021800412
1480, 314700753, 0.96789294, 0.23887265, 0.07611835, 0.018148743
1481, 314717420, 0.96702373, 0.24114835, 0.08068748, 0.014225788
1482, 314734087, 0.966231, 0.24285507, 0.08552992, 0.010207092
1483, 314750754, 0.96549535, 0.24401824, 0.09074178, 0.0063349414
1484, 314767421, 0.9647471, 0.24495618, 0.096189275, 0.0027467806
1485, 314784088, 0.96396375, 0.24582283, 0.10170673, -8.879823E-4
1486, 314800755, 0.96305376, 0.24702767, 0.10716462, -0.004566673
1487, 314817422, 0.9618592, 0.24917737, 0.11257377, -0.008057343
1488, 314834089, 0.9604783, 0.2518385, 0.118018895, -0.011426374
1489, 314850756, 0.95899737, 0.2545536, 0.12369638, -0.015033096
1490, 314867423, 0.9574576, 0.25720632, 0.1294824, -0.01882439
1491, 314884090, 0.95586044, 0.25985348, 0.13525665, -0.022647632
1492, 314900757, 0.9541524, 0.26255745, 0.14127399, -0.026434548
1493, 314917424, 0.9523444, 0.26528633, 0.14749295, -0.030156469
1494, 314934091, 0.9505274, 0.26765093, 0.15402782, -0.03370857
1495, 314950758, 0.9487269, 0.26983482, 0.16038845, -0.037175704
1496, 314967425, 0.94681096, 0.27233163, 0.16662891, -0.040243734
1497, 314984092, 0.94456714, 0.27591705, 0.1726376, -0.0431222
1498, 315000759, 0.94203633, 0.28012478, 0.17880918, -0.04609989
1499, 315017426, 0.93953663, 0.28408328, 0.18479419, -0.049182698
1500, 315034093, 0.9371442, 0.28764638, 0.19057752, -0.051966053
1501, 315050760, 0.93493825, 0.29048562, 0.19635294, -0.054353736
1502, 315067427, 0.9327699, 0.29288548, 0.20237774, -0.056588486
1503, 315084094, 0.93062794, 0.29509884, 0.20837294, -0.058560938
1504, 315100761, 0.92863494, 0.2969894, 0.21401599, -0.06026552
1505, 315117428, 0.9267059, 0.29871318, 0.21944425, -0.06189656
1506, 315134095, 0.9246828, 0.30072156, 0.22468518, -0.063603476
1507, 315150762, 0.92261225, 0.30286068, 0.22978315, -0.06528646
1508, 315167429, 0.92072725, 0.3042367, 0.23497264, -0.06700552
1509, 315184096, 0.91897357, 0.30486667, 0.2404819, -0.06865001
1510, 315200763, 0.91718155, 0.3055273, 0.24595764, -0.07025802
1511, 315217430, 0.9153922, 0.30631, 0.25117433, -0.071715385
1512, 315234097, 0.913487, 0.3075232, 0.25609702, -0.073386855
1513, 315250764, 0.9112812, 0.30944258, 0.26104653, -0.07527908
1514, 315267431, 0.9091033, 0.31069198, 0.26644903, -0.07750322
1515, 315284098, 0.9068634, 0.31164643, 0.2720822, -0.08029322
1516, 315300765, 0.9041814, 0.3135415, 0.27782607, -0.08343199
1517, 315317432, 0.90132105, 0.31550854, 0.2838983, -0.08646744
1518, 315334099, 0.8983285, 0.317404, 0.29025713, -0.089508004
1519, 315350766, 0.895166, 0.3197541, 0.2964556, -0.092463516
1520, 315367433, 0.891932, 0.3223797, 0.3024367, -0.095188476
1521, 315384100, 0.8888143, 0.32474425, 0.30827785, -0.097547516
1522, 315400767, 0.8859714, 0.3263982, 0.3140088, -0.09958875
1523, 315417434, 0.88331956, 0.32741088, 0.3198452, -0.10123253
1524, 315434101, 0.88072205, 0.32838565, 0.32552832, -0.10258225
1525, 315450768, 0.87817657, 0.32920945, 0.33117732, -0.10367658
1526, 315467435, 0.8755818, 0.32970285, 0.3370943, -0.10497713
1527, 315484102, 0.87267476, 0.33074236, 0.34303913, -0.106642924
1528, 315500769, 0.8695518, 0.3322187, 0.3489539, -0.10836011
1529, 315517436, 0.8662452, 0.333768, 0.35502586, -0.110341184
1530, 315534103, 0.86255723, 0.33607915, 0.3609754, -0.11288428
1531, 315550770, 0.85893935, 0.3381399, 0.36679026, -0.11554068
1532, 315567437, 0.8552548, 0.34016228, 0.37262368, -0.11823976
1533, 315584104, 0.8513831, 0.3424259, 0.37848505, -0.12099865
1534, 315600771, 0.8472707, 0.3453824, 0.38408098, -0.12379559
1535, 315617438, 0.8432311, 0.34834763, 0.38937214, -0.12651059
1536, 315634105, 0.8392224, 0.35126275, 0.39439583, -0.1295087
1537, 315650772, 0.8353763, 0.35378325, 0.39927524, -0.13252649
1538, 315667439, 0.8317018, 0.35634062, 0.40376866, -0.13514629
1539, 315684106, 0.8284272, 0.35834268, 0.40804866, -0.13709652
1540, 315700773, 0.8255001, 0.3593099, 0.4125442, -0.13875788
1541, 315717440, 0.82270265, 0.3600739, 0.41684413, -0.14052875
1542, 315734107, 0.819861, 0.36140823, 0.42072785, -0.14212759
1543, 315750774, 0.81711376, 0.36273894, 0.42447782, -0.14340298
1544, 315767441, 0.81448156, 0.36364514, 0.42830786, -0.14468846
1545, 315784108, 0.81172246, 0.36463428, 0.4321985, -0.14612715
1546, 315800775, 0.8088697, 0.36579484, 0.43605784, -0.147573
1547, 315817442, 0.80609244, 0.36694387, 0.43980208, -0.14880106
1548, 315834109, 0.8033173, 0.36813253, 0.44349372, -0.14991058
1549, 315850776, 0.8006499, 0.36902463, 0.44727352, -0.15075581
1550, 315867443, 0.7980048, 0.36962733, 0.45125186, -0.1514466
1551, 315884110, 0.7953053, 0.370228, 0.45525917, -0.15218386
1552, 315900777, 0.7924987, 0.37106422, 0.4592379, -0.15283298
1553, 315917444, 0.7897656, 0.3716133, 0.4633432, -0.1532551
1554, 315934111, 0.7870838, 0.37205258, 0.46746594, -0.15346585
1555, 315950778, 0.78445804, 0.37241083, 0.47158968, -0.15342511
1556, 315967445, 0.78195065, 0.37266243, 0.4756194, -0.1531748
1557, 315984112, 0.7797082, 0.3725035, 0.479536, -0.15277977
1558, 316000779, 0.77776855, 0.3719349, 0.48327112, -0.15228193
1559, 316017446, 0.77606344, 0.37129328, 0.48668724, -0.15166642
1560, 316034113, 0.7745384, 0.3705789, 0.48987696, -0.15093806
1561, 316050780, 0.77316815, 0.36973044, 0.49295646, -0.15001549
1562, 316067447, 0.77192664, 0.36895856, 0.49583906, -0.14880508
1563, 316084114, 0.77071065, 0.36827233, 0.49872866, -0.14714175
1564, 316100781, 0.7694632, 0.3680124, 0.501469, -0.14499012
1565, 316117448, 0.76813364, 0.36840168, 0.503944, -0.14244883
1566, 316134115, 0.7667978, 0.36906436, 0.50633454, -0.1394212
1567, 316150782, 0.76550806, 0.3696432, 0.50879204, -0.13598639
1568, 316167449, 0.7642689, 0.36975262, 0.5115753, -0.13216265
1569, 316184116, 0.7629955, 0.3694598, 0.51463944, -0.12838933
1570, 316200783, 0.7617941, 0.36880317, 0.517674, -0.12517117
1571, 316217450, 0.7607857, 0.36801606, 0.5203192, -0.12262808
1572, 316234117, 0.7602104, 0.36684, 0.5224753, -0.1205354
1573, 316250784, 0.76013386, 0.36510876, 0.524197, -0.11878576
1574, 316267451, 0.7605227, 0.3627763, 0.52557385, -0.11734993
1575, 316284118, 0.76123774, 0.360068, 0.5265976, -0.116461694
1576, 316300785, 0.7620906, 0.357221, 0.5273833, -0.1160949
1577, 316317452, 0.7628569, 0.35488766, 0.527784, -0.11639759
1578, 316334119, 0.7636463, 0.35307407, 0.5276757, -0.1172269
1579, 316350786, 0.76426387, 0.3516758, 0.5274512, -0.118407324
1580, 316367453, 0.7648087, 0.3506723, 0.5271051, -0.1194033
1581, 316384120, 0.7655098, 0.3496018, 0.52665687, -0.120026134
1582, 316400787, 0.7662499, 0.3486697, 0.52609795, -0.12046404
1583, 316417454, 0.7668258, 0.34817037, 0.52551955, -0.12076911
1584, 316434121, 0.7672407, 0.3480585, 0.52490014, -0.12114918
1585, 316450788, 0.76777947, 0.34767947, 0.52435374, -0.12118988
1586, 316467455, 0.76842433, 0.34705287, 0.5239013, -0.12085575
1587, 316484122, 0.7691727, 0.34616283, 0.52353513, -0.12023256
1588, 316500789, 0.76992023, 0.34523132, 0.5232581, -0.11932933
1589, 316517456, 0.77077764, 0.344241, 0.52286166, -0.118389085
1590, 316534123, 0.7715484, 0.34331104, 0.5224875, -0.1177185
1591, 316550790, 0.7722286, 0.34262496, 0.5220208, -0.117326766
1592, 316567457, 0.7728153, 0.34196904, 0.5216514, -0.11702011
1593, 316584124, 0.7732353, 0.34146386, 0.521414, -0.11677896
1594, 316600791, 0.77358705, 0.34100854, 0.5212439, -0.1165398
1595, 316617458, 0.77391005, 0.34065902, 0.52105975, -0.11624033
1596, 316634125, 0.7742328, 0.34027487, 0.5208916, -0.11596781
1597, 316650792, 0.7745558, 0.33978042, 0.5207999, -0.115672864
1598, 316667459, 0.77484494, 0.33927387, 0.52080375, -0.11520529
1599, 316684126, 0.7751724, 0.3388296, 0.52073467, -0.1146213
1600, 316700793, 0.775551, 0.33859158, 0.5204778, -0.11392707
1601, 316717460, 0.77595323, 0.33856738, 0.5200543, -0.11319279
1602, 316734127, 0.77646613, 0.33842066, 0.51954633, -0.11244403
1603, 316750794, 0.7770043, 0.33828837, 0.51897997, -0.111738175
1604, 316767461, 0.77747726, 0.33830088, 0.5183877, -0.111159116
1605, 316784128, 0.77784324, 0.33840725, 0.51785916, -0.11073677
1606, 316800795, 0.7781042, 0.3386906, 0.51732594, -0.11052986
1607, 316817462, 0.7782401, 0.33919302, 0.51677936, -0.11058865
1608, 316834129, 0.77829015, 0.33989453, 0.5161839, -0.11086378
1609, 316850796, 0.77827805, 0.3406264, 0.5156171, -0.11133764
1610, 316867463, 0.7781919, 0.34136653, 0.5151195, -0.111974835
1611, 316884130, 0.7780522, 0.3420816, 0.5146642, -0.11285293
1612, 316900797, 0.7778746, 0.34279865, 0.5142095, -0.11396959
1613, 316917464, 0.77756184, 0.34365737, 0.51381207, -0.1153032
1614, 316934131, 0.7770122, 0.34469062, 0.51361924, -0.1167734
1615, 316950798, 0.77643967, 0.34535667, 0.5136947, -0.118272856
1616, 316967465, 0.77591807, 0.34542218, 0.51410246, -0.11972344
1617, 316984132, 0.7755803, 0.34484944, 0.51472336, -0.120889895
1618, 317000799, 0.77559894, 0.3436794, 0.51535386, -0.121414885
1619, 317017466, 0.7760181, 0.3419837, 0.51582545, -0.121522285
1620, 317034133, 0.7766869, 0.34001082, 0.51611334, -0.12156374
1621, 317050800, 0.77751887, 0.33798406, 0.5161783, -0.12162002
1622, 317067467, 0.77829415, 0.33617958, 0.51614606, -0.12179928
1623, 317084134, 0.7790777, 0.33442932, 0.5160621, -0.12196308
1624, 317100801, 0.7798071, 0.3331338, 0.5158015, -0.12194994
1625, 317117468, 0.78063583, 0.3321845, 0.51518357, -0.12185
1626, 317134135, 0.7815764, 0.33143058, 0.5142603, -0.12177409
1627, 317150802, 0.78278214, 0.33056593, 0.51299757, -0.12170485
1628, 317167469, 0.784176, 0.3298578, 0.5113624, -0.121533446
1629, 317184136, 0.7856051, 0.32985687, 0.50926197, -0.12112634
1630, 317200803, 0.78725725, 0.32998845, 0.5067296, -0.120661154
1631, 317217470, 0.78893816, 0.32996497, 0.5042142, -0.120284334
1632, 317234137, 0.7905781, 0.33011997, 0.50160897, -0.11998226
1633, 317250804, 0.79221886, 0.33057225, 0.4988205, -0.11953892
1634, 317267471, 0.79365927, 0.3315705, 0.49603736, -0.118798725
1635, 317284138, 0.79479843, 0.33366406, 0.49301037, -0.117918395
1636, 317300805, 0.7959931, 0.3356009, 0.48996526, -0.11705316
1637, 317317472, 0.7972013, 0.33707026, 0.48714936, -0.11636022
1638, 317334139, 0.7983743, 0.33866403, 0.48425072, -0.115786694
1639, 317350806, 0.7995572, 0.34044763, 0.48122612, -0.1150022
1640, 317367473, 0.8005174, 0.34285608, 0.47812974, -0.114079
1641, 317384140, 0.8012867, 0.3455717, 0.47506377, -0.11328884
1642, 317400807, 0.80194193, 0.34841394, 0.47201195, -0.1127026
1643, 317417474, 0.802396, 0.35171643, 0.4688287, -0.11250004
1644, 317434141, 0.8027846, 0.3554672, 0.4653314, -0.11245931
1645, 317450808, 0.803365, 0.3593576, 0.46138164, -0.11222362
1646, 317467475, 0.8043011, 0.3627356, 0.457219, -0.111685656
1647, 317484142, 0.8055908, 0.36540785, 0.4529719, -0.11098302
1648, 317500809, 0.80705386, 0.3677484, 0.44863647, -0.11023037
1649, 317517476, 0.80852306, 0.36999664, 0.44432405, -0.10940486
1650, 317534143, 0.8099395, 0.37234244, 0.43999857, -0.108447
1651, 317550810, 0.8113376, 0.37499517, 0.4353632, -0.10756066
1652, 317567477, 0.8126633, 0.37815216, 0.4302671, -0.10700424
1653, 317584144, 0.8142608, 0.3808406, 0.42495206, -0.10656625
1654, 317600811, 0.8162371, 0.38245904, 0.41983786, -0.10591769
1655, 317617478, 0.81849015, 0.38320187, 0.41501197, -0.10485922
1656, 317634145, 0.8205633, 0.38392082, 0.41058236, -0.10345533
1657, 317650812, 0.8223657, 0.38522273, 0.40607655, -0.10207945
1658, 317667479, 0.8241018, 0.38685068, 0.40121895, -0.101126656
1659, 317684146, 0.82625806, 0.38783947, 0.39604232, -0.10014423
1660, 317700813, 0.829066, 0.38794738, 0.39035696, -0.09883414
1661, 317717480, 0.83211505, 0.38743064, 0.38474673, -0.097222544
1662, 317734147, 0.83500063, 0.3868475, 0.3794713, -0.09552359
1663, 317750814, 0.83809274, 0.38580552, 0.3741738, -0.09353639
1664, 317767481, 0.84149694, 0.3840525, 0.3688925, -0.09113185
1665, 317784148, 0.8450551, 0.38198167, 0.36344984, -0.08874769
1666, 317800815, 0.8484242, 0.3801376, 0.35800296, -0.08663674
1667, 317817482, 0.8514875, 0.37871915, 0.3526418, -0.08476349
1668, 317834149, 0.8544372, 0.37748635, 0.34719115, -0.083066806
1669, 317850816, 0.8573784, 0.37618622, 0.3416565, -0.081593096
1670, 317867483, 0.86040664, 0.37477154, 0.33591443, -0.08005182
1671, 317884150, 0.86347467, 0.37331653, 0.32997525, -0.07850322
1672, 317900817, 0.8665912, 0.37172917, 0.3239354, -0.076831646
1673, 317917484, 0.87007934, 0.3691817, 0.31794336, -0.074692786
1674, 317934151, 0.8736395, 0.36598894, 0.31235397, -0.07239724
1675, 317950818, 0.8768237, 0.36355826, 0.30672413, -0.070187874
1676, 317967485, 0.8797763, 0.36155573, 0.30103862, -0.06816858
1677, 317984152, 0.88278675, 0.35925817, 0.2954168, -0.06595707
1678, 318000819, 0.88558865, 0.35712394, 0.29003075, -0.063856594
1679, 318017486, 0.8879631, 0.3559329, 0.28457883, -0.06203415
1680, 318034153, 0.8902637, 0.35469097, 0.27930295, -0.060125735
1681, 318050820, 0.8926957, 0.3528298, 0.27430725, -0.057979297
1682, 318067487, 0.8952351, 0.3506651, 0.26924795, -0.055623107
1683, 318084154, 0.8977228, 0.3485375, 0.2641633, -0.053230748
1684, 318100821, 0.90011066, 0.34650266, 0.25917867, -0.050631464
1685, 318117488, 0.9028026, 0.3434688, 0.25429615, -0.048065424
1686, 318134155, 0.90581113, 0.33954462, 0.24930806, -0.045404054
1687, 318150822, 0.90886486, 0.33533677, 0.24431552, -0.042708635
1688, 318167489, 0.91174376, 0.3315224, 0.23923902, -0.03976422
1689, 318184156, 0.91453886, 0.3276769, 0.23431158, -0.036675416
1690, 318200823, 0.91737247, 0.32340628, 0.22958918, -0.033546805
1691, 318217490, 0.9201934, 0.31892204, 0.22497211, -0.030344829
1692, 318234157, 0.92281336, 0.31485, 0.22034019, -0.02712529
1693, 318250824, 0.92523175, 0.3111792, 0.21573102, -0.023964508
1694, 318267491, 0.92744213, 0.30785456, 0.2112787, -0.020933498
1695, 318284158, 0.9295009, 0.30478057, 0.20691212, -0.018020451
1696, 318300825, 0.9314894, 0.30165553, 0.20275024, -0.014969367
1697, 318317492, 0.9334761, 0.2982027, 0.19889869, -0.011707607
1698, 318334159, 0.93549174, 0.29458198, 0.19494759, -0.008502826
1699, 318350826, 0.93738097, 0.2912933, 0.19088626, -0.0052692955
1700, 318367493, 0.9392171, 0.28813702, 0.18666895, -0.0018349905
1701, 318384160, 0.94108135, 0.28464082, 0.18259904, 0.0018059502
1702, 318400827, 0.9429472, 0.28085545, 0.17871542, 0.0056503266
1703, 318417494, 0.9447988, 0.27693224, 0.17484069, 0.00974062
1704, 318434161, 0.9465463, 0.27320158, 0.1709325, 0.013903728
1705, 318450828, 0.94806844, 0.2701567, 0.16691136, 0.017964492
1706, 318467495, 0.94938636, 0.26774868, 0.16278315, 0.02186963
1707, 318484162, 0.95065385, 0.26521605, 0.15892373, 0.025713252
1708, 318500829, 0.9520149, 0.26204216, 0.15536323, 0.02939736
1709, 318517496, 0.9533073, 0.25901067, 0.15177462, 0.032914262
1710, 318534163, 0.9545104, 0.2562802, 0.14797056, 0.036545813
1711, 318550830, 0.9556894, 0.25345358, 0.14422122, 0.04024692
1712, 318567497, 0.9568161, 0.25051117, 0.14076717, 0.043955524
1713, 318584164, 0.95792437, 0.24749479, 0.13736072, 0.047537107
1714, 318600831, 0.95896494, 0.24471629, 0.13374703, 0.051110327
1715, 318617498, 0.959836, 0.2422784, 0.13041928, 0.054838497
1716, 318634165, 0.9605468, 0.24009754, 0.12738426, 0.058963716
1717, 318650832, 0.9610862, 0.23832533, 0.124496505, 0.06336484
1718, 318667499, 0.9615093, 0.23695135, 0.12164337, 0.0675056
1719, 318684166, 0.9618247, 0.23587151, 0.11903396, 0.07133832
1720, 318700833, 0.96199214, 0.23519261, 0.11689697, 0.07477055
1721, 318717500, 0.96200883, 0.23496185, 0.11515698, 0.07791536
1722, 318734167, 0.96198905, 0.23481621, 0.11361862, 0.08080404
1723, 318750834, 0.9620708, 0.23415144, 0.11244205, 0.08336731
1724, 318767501, 0.96243834, 0.23213665, 0.11160681, 0.08584351
1725, 318784168, 0.96292377, 0.22953613, 0.110891595, 0.08828536
1726, 318800835, 0.9633373, 0.22731921, 0.11027848, 0.09025543
1727, 318817502, 0.9636482, 0.22558731, 0.11011349, 0.09147472
1728, 318834169, 0.9639947, 0.223776, 0.11028243, 0.0920682
1729, 318850836, 0.9644744, 0.22138272, 0.110513836, 0.09255202
1730, 318867503, 0.9650751, 0.21838133, 0.11076514, 0.09311842
1731, 318884170, 0.9656818, 0.21538587, 0.11121103, 0.09327446
1732, 318900837, 0.96617544, 0.21307722, 0.11141578, 0.09322047
1733, 318917504, 0.9664045, 0.21211031, 0.11134094, 0.0931396
1734, 318934171, 0.96651465, 0.21169667, 0.1112369, 0.093063116
1735, 318950838, 0.966664, 0.21105118, 0.11119695, 0.093024835
1736, 318967505, 0.96696174, 0.20975333, 0.11099203, 0.093110874
1737, 318984172, 0.9672874, 0.20835723, 0.11075464, 0.09314597
1738, 319000839, 0.96763843, 0.20692478, 0.11045933, 0.093043074
1739, 319017506, 0.9680321, 0.20534989, 0.110032186, 0.092943035
1740, 319034173, 0.96857136, 0.2028303, 0.10969725, 0.09325432
1741, 319050840, 0.9693679, 0.19911554, 0.10914557, 0.09362852
1742, 319067507, 0.97025156, 0.19508633, 0.10847739, 0.093734674
1743, 319084174, 0.9710184, 0.19172798, 0.10776627, 0.09354328
1744, 319100841, 0.97163993, 0.18905146, 0.1069124, 0.09351542
1745, 319117508, 0.9722844, 0.18612789, 0.10604585, 0.093669295
1746, 319134175, 0.9731567, 0.18188483, 0.10517374, 0.09392937
1747, 319150842, 0.97430414, 0.17600682, 0.10437195, 0.09412671
1748, 319167509, 0.97566843, 0.16865402, 0.10358492, 0.094326705
1749, 319184176, 0.977001, 0.16122767, 0.10274491, 0.09443759
1750, 319200843, 0.97800887, 0.15570027, 0.10178192, 0.09432264
1751, 319217510, 0.9785666, 0.15331487, 0.1005963, 0.09371447
1752, 319234177, 0.97879034, 0.15307766, 0.09946273, 0.09297321
1753, 319250844, 0.97901183, 0.15289393, 0.09819203, 0.092292145
1754, 319267511, 0.979344, 0.15194653, 0.096723825, 0.09188342
1755, 319284178, 0.97980416, 0.15010396, 0.095255956, 0.091538146
1756, 319300845, 0.980406, 0.1472675, 0.093755126, 0.09125093
1757, 319317512, 0.98113465, 0.14362879, 0.09200988, 0.09099548
1758, 319334179, 0.9819816, 0.13889712, 0.09027643, 0.09094004
1759, 319350846, 0.9830078, 0.13265164, 0.08841664, 0.091004334
1760, 319367513, 0.9840022, 0.12646662, 0.086468905, 0.0909355
1761, 319384180, 0.9848029, 0.12180939, 0.08449412, 0.09048156
1762, 319400847, 0.9854228, 0.11859467, 0.08240437, 0.08992848
1763, 319417514, 0.9859867, 0.11567358, 0.08029562, 0.0894589
1764, 319434181, 0.9865824, 0.112363465, 0.07813616, 0.08902027
1765, 319450848, 0.9871564, 0.10929875, 0.07586836, 0.08843346
1766, 319467515, 0.98772335, 0.1061543, 0.07367427, 0.08778588
1767, 319484182, 0.9884121, 0.10130879, 0.07167371, 0.08741413
1768, 319500849, 0.9893094, 0.0935438, 0.069940716, 0.08732249
1769, 319517516, 0.9902901, 0.084317714, 0.068256326, 0.086933374
1770, 319534183, 0.9911253, 0.076197326, 0.066584945, 0.08620696
1771, 319550850, 0.99170935, 0.070547506, 0.06502971, 0.085480936
1772, 319567517, 0.9921139, 0.0669403, 0.06376313, 0.08463856
1773, 319584184, 0.992483, 0.06366857, 0.06256571, 0.0837231
1774, 319600851, 0.99282664, 0.060318045, 0.06126626, 0.083088346
1775, 319617518, 0.9931906, 0.056282245, 0.059883125, 0.08257948
1776, 319634185, 0.99350375, 0.052968994, 0.05821664, 0.082193114
1777, 319650852, 0.99370205, 0.0520292, 0.056387205, 0.08166938
1778, 319667519, 0.9938002, 0.05321952, 0.054426942, 0.08103456
1779, 319684186, 0.9938533, 0.054813843, 0.052520107, 0.080579914
1780, 319700853, 0.99396443, 0.05509768, 0.05056414, 0.08026531
1781, 319717520, 0.99411136, 0.054608528, 0.048537496, 0.08003157
1782, 319734187, 0.99424696, 0.054321278, 0.046377033, 0.07982299
1783, 319750854, 0.99437594, 0.054123484, 0.04417293, 0.07960075
1784, 319767521, 0.9944809, 0.054361954, 0.042075373, 0.07926216
1785, 319784188, 0.99454355, 0.05528159, 0.040095158, 0.07886627
1786, 319800855, 0.9945897, 0.056483123, 0.03810633, 0.07841749
1787, 319817522, 0.9946584, 0.057227317, 0.036071252, 0.07796697
1788, 319834189, 0.994752, 0.05730309, 0.033977978, 0.07765709
1789, 319850856, 0.99484015, 0.057511363, 0.03180291, 0.0772937
1790, 319867523, 0.994879, 0.058436375, 0.029715667, 0.07693074
1791, 319884190, 0.99492776, 0.058816615, 0.027689934, 0.076766655
1792, 319900857, 0.9950206, 0.05812319, 0.025823066, 0.07674221
1793, 319917524, 0.99511546, 0.057542756, 0.023936586, 0.07655988
1794, 319934191, 0.99517405, 0.057797648, 0.021933442, 0.07620627
1795, 319950858, 0.99518603, 0.058636002, 0.020117171, 0.07590883
1796, 319967525, 0.99523443, 0.05857048, 0.018554902, 0.07572291
1797, 319984192, 0.99533117, 0.05737239, 0.017267002, 0.07567423
1798, 320000859, 0.9954452, 0.05586849, 0.015869133, 0.075605825
1799, 320017526, 0.9954998, 0.055454, 0.014501524, 0.075466946
1800, 320034193, 0.9954903, 0.056269024, 0.013170036, 0.075232334
1801, 320050860, 0.99543, 0.05784978, 0.011938092, 0.075037025
1802, 320067527, 0.995356, 0.05973393, 0.010870669, 0.07470325
1803, 320084194, 0.9953099, 0.061145067, 0.010076389, 0.07428648
1804, 320100861, 0.9953124, 0.061420426, 0.009520342, 0.074099876
1805, 320117528, 0.99536043, 0.06087766, 0.008922941, 0.07397714
1806, 320134195, 0.9953489, 0.061233573, 0.008262262, 0.073916025
1807, 320150862, 0.9952398, 0.06293527, 0.007602304, 0.074024744
1808, 320167529, 0.9950694, 0.06513593, 0.0070663663, 0.074466154
1809, 320184196, 0.9948908, 0.067238756, 0.006673435, 0.0750153
1810, 320200863, 0.9946972, 0.06930252, 0.006393067, 0.075725935
1811, 320217530, 0.99449563, 0.07136171, 0.006019869, 0.07648758
1812, 320234197, 0.99429613, 0.07337575, 0.0056566675, 0.07720074
1813, 320250864, 0.99409837, 0.07525384, 0.005418725, 0.07795286
1814, 320267531, 0.99389994, 0.07710731, 0.005116171, 0.07869068
1815, 320284198, 0.99368846, 0.079091474, 0.0047905394, 0.07940732
1816, 320300865, 0.9934776, 0.08103833, 0.004539218, 0.08009539
1817, 320317532, 0.9932921, 0.0826824, 0.004348124, 0.08072485
1818, 320334199, 0.993116, 0.08428416, 0.0041159466, 0.08124665
1819, 320350866, 0.9929239, 0.08616622, 0.0039225174, 0.081627265
1820, 320367533, 0.99275744, 0.08777595, 0.0038821348, 0.08193982
1821, 320384200, 0.99265784, 0.088758454, 0.0038543367, 0.08208935
1822, 320400867, 0.99263304, 0.08900811, 0.0038230778, 0.08212052
1823, 320417534, 0.99263996, 0.08904715, 0.003869809, 0.08199324
1824, 320434201, 0.9926946, 0.08865569, 0.004062123, 0.081744835
1825, 320450868, 0.9927146, 0.08850065, 0.004366159, 0.0816551
1826, 320467535, 0.9927083, 0.08860515, 0.0046868892, 0.08160076
1827, 320484202, 0.99268794, 0.089020155, 0.0049816505, 0.08138118
1828, 320500869, 0.9926975, 0.08917548, 0.005230569, 0.08107883
1829, 320517536, 0.9927231, 0.08903336, 0.0056698006, 0.08089083
1830, 320534203, 0.99277997, 0.0885028, 0.006176141, 0.08073784
1831, 320550870, 0.9928297, 0.088003255, 0.0067421626, 0.08062886
1832, 320567537, 0.99288446, 0.0875859, 0.007202552, 0.080367915
1833, 320584204, 0.99292237, 0.08737344, 0.0076642903, 0.08008706
1834, 320600871, 0.9929724, 0.086977206, 0.008148114, 0.07985332
1835, 320617538, 0.9930079, 0.08665456, 0.00869097, 0.07970503
1836, 320634205, 0.99301934, 0.08653443, 0.009233871, 0.079630144
1837, 320650872, 0.9930034, 0.08674795, 0.0097604785, 0.07953413
1838, 320667539, 0.9929899, 0.086927466, 0.010301523, 0.079439394
1839, 320684206, 0.9930008, 0.08681676, 0.010919667, 0.07934129
1840, 320700873, 0.9930387, 0.086329244, 0.011569538, 0.079305425
1841, 320717540, 0.9930644, 0.0859178, 0.012284171, 0.079321705
1842, 320734207, 0.9930913, 0.0855841, 0.013012992, 0.07923099
1843, 320750874, 0.9931402, 0.085129604, 0.013710449, 0.07898852
1844, 320767541, 0.9932185, 0.08435809, 0.014437019, 0.07870282
1845, 320784208, 0.9932951, 0.08354674, 0.015160747, 0.07846409
1846, 320800875, 0.99333996, 0.08309767, 0.015902523, 0.0782246
1847, 320817542, 0.9933634, 0.082958646, 0.016659075, 0.077916086
1848, 320834209, 0.99337584, 0.08292304, 0.01740506, 0.07763176
1849, 320850876, 0.99338746, 0.0829102, 0.018165084, 0.0773226
