DeviceTag:,Xsens DOT 4,,,,,,,,,,,,,,,,,
FirmwareVersion:,1.3.0,,,,,,,,,,,,,,,,,
AppVersion:,2020.1.1,,,,,,,,,,,,,,,,,
Measurement Mode:,Sensor fusion Mode - Orientation (Quaternion),,,,,,,,,,,,,,,,,
StartTime:,2020-08-11 15:42:21.283 +0200,,,,,,,,,,,,,,,,,
© Xsens Technologies B. V. 2005-2020,,,,,,,,,,,,,,,,,,,
PacketCounter,SampleTimeFine,Quat_W,Quat_X,Quat_Y,Quat_Z
1, 185766077, 0.8414215, 0.0021086005, 0.14666466, 0.5200915
2, 185782744, 0.84151363, 0.0033848442, 0.14598216, 0.52012753
3, 185799411, 0.8414989, 0.0046465467, 0.14580914, 0.52019006
4, 185816078, 0.84149575, 0.0053296713, 0.14599691, 0.52013594
5, 185832745, 0.841546, 0.005721678, 0.1459455, 0.5200649
6, 185849412, 0.8415864, 0.0061999015, 0.14582144, 0.520029
7, 185866079, 0.841646, 0.0066081714, 0.14567886, 0.51996756
8, 185882746, 0.84173083, 0.006976264, 0.14558871, 0.51985055
9, 185899413, 0.8418015, 0.0071462253, 0.14546171, 0.5197694
10, 185916080, 0.84187853, 0.0072444575, 0.1452209, 0.51971066
11, 185932747, 0.84194946, 0.0073386705, 0.14495963, 0.51966727
12, 185949414, 0.8420497, 0.007477018, 0.14482377, 0.51954085
13, 185966081, 0.84214824, 0.007693945, 0.1448247, 0.5193775
14, 185982748, 0.84224474, 0.008087129, 0.14491276, 0.51919055
15, 185999415, 0.8422984, 0.008375476, 0.14486824, 0.5191114
16, 186016082, 0.84253436, 0.00859274, 0.14473112, 0.51876295
17, 186032749, 0.8425546, 0.008622299, 0.14456062, 0.5187773
18, 186049416, 0.84264153, 0.008820785, 0.14447089, 0.51865774
19, 186066083, 0.84289384, 0.009172612, 0.14446336, 0.51824355
20, 186082750, 0.842949, 0.009522007, 0.1443314, 0.5181843
21, 186099417, 0.84307593, 0.010020922, 0.14421459, 0.51800084
22, 186116084, 0.8433371, 0.010516522, 0.1440898, 0.5176004
23, 186132751, 0.8434601, 0.010878665, 0.14396681, 0.5174266
24, 186149418, 0.84362113, 0.0111524835, 0.14367087, 0.5172405
25, 186166085, 0.8432485, 0.011413313, 0.14355348, 0.51787496
26, 186182752, 0.8430326, 0.011846348, 0.14364733, 0.51819044
27, 186199419, 0.84313315, 0.012224565, 0.1437594, 0.5179871
28, 186216086, 0.84315675, 0.012273411, 0.14374387, 0.5179516
29, 186232753, 0.84319496, 0.012197494, 0.14377604, 0.5178822
30, 186249420, 0.84349155, 0.012411723, 0.14400667, 0.5173297
31, 186266087, 0.8436415, 0.01278952, 0.14431787, 0.5169891
32, 186282754, 0.8436439, 0.013099454, 0.1445223, 0.51692027
33, 186299421, 0.8436895, 0.013333145, 0.14471, 0.5167873
34, 186316088, 0.8435225, 0.013437981, 0.14494424, 0.5169919
35, 186332755, 0.8434391, 0.013682639, 0.14521025, 0.51704663
36, 186349422, 0.843786, 0.014109179, 0.14538899, 0.5164185
37, 186366089, 0.8433487, 0.014368464, 0.14550588, 0.5170926
38, 186382756, 0.8433681, 0.014624983, 0.1455637, 0.51703745
39, 186399423, 0.84331423, 0.014644357, 0.1455638, 0.51712465
40, 186416090, 0.84319, 0.0145914145, 0.14547208, 0.5173544
41, 186432757, 0.84307617, 0.014883798, 0.14547442, 0.51753086
42, 186449424, 0.8430502, 0.0153293535, 0.14563301, 0.51751566
43, 186466091, 0.84287286, 0.015483489, 0.14566542, 0.51779073
44, 186482758, 0.84269065, 0.015471158, 0.14547752, 0.51814055
45, 186499425, 0.8427784, 0.0155068245, 0.14524116, 0.5180632
46, 186516092, 0.8430329, 0.015713109, 0.14515752, 0.517666
47, 186532759, 0.8428358, 0.015769029, 0.14509173, 0.5180035
48, 186549426, 0.84312415, 0.015862137, 0.14492984, 0.5175766
49, 186566093, 0.8427742, 0.015801122, 0.14479639, 0.5181855
50, 186582760, 0.8429644, 0.016080152, 0.14481549, 0.51786196
51, 186599427, 0.8427909, 0.016309133, 0.14489022, 0.5181163
52, 186616094, 0.84340364, 0.016572399, 0.14477572, 0.5171418
53, 186632761, 0.84298706, 0.016370341, 0.14457606, 0.51788276
54, 186649428, 0.84319925, 0.016373971, 0.14443792, 0.51757574
55, 186666095, 0.8434746, 0.016589822, 0.14437135, 0.5171387
56, 186682762, 0.843708, 0.01666944, 0.14425857, 0.5167868
57, 186699429, 0.8439904, 0.01678572, 0.14415644, 0.51635015
58, 186716096, 0.844007, 0.016850032, 0.14414, 0.5163256
59, 186732763, 0.84407616, 0.0170605, 0.14422832, 0.51618093
60, 186749430, 0.8440481, 0.017214669, 0.1442933, 0.5162036
61, 186766097, 0.844248, 0.017211948, 0.14423245, 0.51589364
62, 186782764, 0.8441426, 0.016922422, 0.1441588, 0.5160961
63, 186799431, 0.8440438, 0.016740974, 0.14416133, 0.5162628
64, 186816098, 0.8439615, 0.016595019, 0.14424117, 0.51637983
65, 186832765, 0.84400696, 0.016441496, 0.1442028, 0.51632124
66, 186849432, 0.8439466, 0.016225595, 0.14421286, 0.5164239
67, 186866099, 0.8437248, 0.016087111, 0.14434992, 0.5167522
68, 186882766, 0.8437993, 0.016088918, 0.14453736, 0.51657814
69, 186899433, 0.84377027, 0.015935881, 0.14456724, 0.5166218
70, 186916100, 0.8438501, 0.015556545, 0.14437738, 0.5165563
71, 186932767, 0.8441057, 0.015330768, 0.14425567, 0.5161791
72, 186949434, 0.8442302, 0.015381448, 0.144377, 0.51594
73, 186966101, 0.84415317, 0.015576135, 0.1444558, 0.51603806
74, 186982768, 0.84425336, 0.01578452, 0.14437424, 0.5158908
75, 186999435, 0.84429705, 0.015762141, 0.14430737, 0.51583874
76, 187016102, 0.8444447, 0.015553745, 0.14423183, 0.51562446
77, 187032769, 0.844479, 0.015409321, 0.1441895, 0.51558447
78, 187049436, 0.84443974, 0.015548154, 0.14417431, 0.51564854
79, 187066103, 0.844371, 0.015801476, 0.14430282, 0.5157173
80, 187082770, 0.84423465, 0.015930815, 0.14440276, 0.5159087
81, 187099437, 0.8442027, 0.015785715, 0.14432482, 0.5159874
82, 187116104, 0.8440494, 0.015276419, 0.14401932, 0.5163389
83, 187132771, 0.8442333, 0.014809889, 0.14381047, 0.51611006
84, 187149438, 0.8441232, 0.014438871, 0.14383946, 0.5162923
85, 187166105, 0.84411573, 0.014309658, 0.1440111, 0.51626027
86, 187182772, 0.84412163, 0.014231593, 0.14409901, 0.51622826
87, 187199439, 0.84425515, 0.014128332, 0.14417812, 0.5159906
88, 187216106, 0.8441418, 0.013972321, 0.14435403, 0.5161312
89, 187232773, 0.84434503, 0.0140494555, 0.1445736, 0.515735
90, 187249440, 0.8442459, 0.013965059, 0.1447368, 0.5158537
91, 187266107, 0.8442079, 0.0137832, 0.14488201, 0.51588005
92, 187282774, 0.8442421, 0.013652243, 0.14507233, 0.5157741
93, 187299441, 0.8442225, 0.013560696, 0.14528382, 0.51574916
94, 187316108, 0.8442599, 0.013439723, 0.14541902, 0.5156529
95, 187332775, 0.8443072, 0.01322538, 0.1453789, 0.51559246
96, 187349442, 0.8443812, 0.013052773, 0.14548554, 0.5154456
97, 187366109, 0.8444, 0.013137256, 0.14584993, 0.51530963
98, 187382776, 0.8443563, 0.01331492, 0.1463966, 0.51522136
99, 187399443, 0.8444362, 0.012874388, 0.14657411, 0.51505136
100, 187416110, 0.84461457, 0.011923509, 0.1464797, 0.51480865
101, 187432777, 0.84488326, 0.011039923, 0.14643928, 0.5143987
102, 187449444, 0.84488446, 0.010547494, 0.14649212, 0.51439184
103, 187466111, 0.84514344, 0.010360212, 0.14661486, 0.51393527
104, 187482778, 0.84517604, 0.01025109, 0.1467094, 0.513857
105, 187499445, 0.8453081, 0.010237937, 0.14676599, 0.5136238
106, 187516112, 0.84523046, 0.01013527, 0.14678068, 0.5137493
107, 187532779, 0.845185, 0.010034826, 0.14677088, 0.51382864
108, 187549446, 0.84513444, 0.009968498, 0.14669499, 0.51393485
109, 187566113, 0.8450954, 0.009889682, 0.1467169, 0.5139943
110, 187582780, 0.84519285, 0.0099256905, 0.14683828, 0.5137986
111, 187599447, 0.8453531, 0.010052747, 0.1470114, 0.51348305
112, 187616114, 0.8453542, 0.01017503, 0.14711645, 0.51344866
113, 187632781, 0.84540045, 0.01035067, 0.14719345, 0.5133471
114, 187649448, 0.8455828, 0.010628942, 0.1473763, 0.5129883
115, 187666115, 0.84542215, 0.010807959, 0.14761865, 0.5131797
116, 187682782, 0.8457124, 0.010945634, 0.14764602, 0.5126904
117, 187699449, 0.84570724, 0.011104602, 0.14765832, 0.51269203
118, 187716116, 0.84572536, 0.011339418, 0.14778401, 0.51262087
119, 187732783, 0.84555256, 0.011526468, 0.1479794, 0.5128452
120, 187749450, 0.8456222, 0.011604417, 0.14801475, 0.5127185
121, 187766117, 0.8453244, 0.011421289, 0.14789608, 0.51324743
122, 187782784, 0.84513855, 0.011420117, 0.14794429, 0.51353955
123, 187799451, 0.8450995, 0.01163155, 0.14807789, 0.5135606
124, 187816118, 0.8450285, 0.012099265, 0.14828393, 0.5136073
125, 187832785, 0.84500086, 0.012458397, 0.14833567, 0.51362926
126, 187849452, 0.8450567, 0.012535715, 0.14823544, 0.51356435
127, 187866119, 0.84509706, 0.012441713, 0.14804897, 0.51355416
128, 187882786, 0.84534776, 0.012642539, 0.14800206, 0.51314986
129, 187899453, 0.8453012, 0.012976154, 0.14807086, 0.51319855
130, 187916120, 0.8453271, 0.013427795, 0.14834367, 0.5130655
131, 187932787, 0.8453981, 0.013693011, 0.14859524, 0.5128684
132, 187949454, 0.845492, 0.0137676615, 0.14886655, 0.51263285
133, 187966121, 0.8455927, 0.0137242805, 0.1490278, 0.5124212
134, 187982788, 0.8457399, 0.013971735, 0.14928891, 0.5120957
135, 187999455, 0.8457296, 0.014227087, 0.14960308, 0.512014
136, 188016122, 0.8458886, 0.014612946, 0.15002166, 0.5116177
137, 188032789, 0.8457893, 0.014617624, 0.15031427, 0.5116956
138, 188049456, 0.8459243, 0.0145047745, 0.1504105, 0.51144755
139, 188066123, 0.8462108, 0.014446588, 0.15058409, 0.51092386
140, 188082790, 0.84598625, 0.014582634, 0.15103361, 0.5111593
141, 188099457, 0.8458255, 0.014961405, 0.15158787, 0.5112502
142, 188116124, 0.8458049, 0.015227041, 0.15208691, 0.5111283
143, 188132791, 0.8459191, 0.01561972, 0.15275165, 0.5107287
144, 188149458, 0.8457367, 0.016095117, 0.15367985, 0.51073796
145, 188166125, 0.8454156, 0.016681314, 0.15474468, 0.51092917
146, 188182792, 0.8454195, 0.017009396, 0.15573555, 0.5106106
147, 188199459, 0.8452068, 0.016824044, 0.15667835, 0.5106804
148, 188216126, 0.8452643, 0.016608205, 0.15764697, 0.51029384
149, 188232793, 0.845237, 0.016631773, 0.15883829, 0.509969
150, 188249460, 0.84512556, 0.016821625, 0.16010721, 0.50975037
151, 188266127, 0.845138, 0.016582921, 0.1611341, 0.5094141
152, 188282794, 0.84503484, 0.01597851, 0.16208653, 0.509302
153, 188299461, 0.84493613, 0.015420719, 0.16319905, 0.509128
154, 188316128, 0.84518677, 0.015230998, 0.16455847, 0.5082797
155, 188332795, 0.8451484, 0.014849489, 0.16590342, 0.50791734
156, 188349462, 0.845073, 0.014168368, 0.16712648, 0.50766146
157, 188366129, 0.8449679, 0.013483079, 0.16854145, 0.5073868
158, 188382796, 0.84487474, 0.012666871, 0.16994698, 0.5070942
159, 188399463, 0.8447289, 0.011766679, 0.17141657, 0.50686413
160, 188416130, 0.8445801, 0.010789933, 0.17280902, 0.50666064
161, 188432797, 0.8443733, 0.009959739, 0.17448953, 0.5064464
162, 188449464, 0.8442054, 0.009441864, 0.17635454, 0.5060903
163, 188466131, 0.84394145, 0.008728866, 0.17817222, 0.50590646
164, 188482798, 0.843699, 0.007509622, 0.17974101, 0.5057754
165, 188499465, 0.84341073, 0.0061845817, 0.18140285, 0.5056808
166, 188516132, 0.8431383, 0.005292676, 0.18342021, 0.5054176
167, 188532799, 0.8430328, 0.004626968, 0.18561676, 0.50479805
168, 188549466, 0.84287494, 0.0034023698, 0.18753976, 0.5043604
169, 188566133, 0.84253067, 0.0018201788, 0.18946838, 0.50422287
170, 188582800, 0.8423909, 4.0693302E-4, 0.19155872, 0.5036693
171, 188599467, 0.84189665, -0.0010284281, 0.19379549, 0.50363904
172, 188616134, 0.8417882, -0.0026229077, 0.19581915, 0.5030314
173, 188632801, 0.841269, -0.004449913, 0.1977768, 0.5031212
174, 188649468, 0.8411851, -0.005943843, 0.19991527, 0.5024005
175, 188666135, 0.8408588, -0.0067405626, 0.20249066, 0.5019049
176, 188682802, 0.8400698, -0.006792907, 0.20554058, 0.5019859
177, 188699469, 0.8393229, -0.006537575, 0.20879918, 0.5018935
178, 188716136, 0.83849937, -0.0061840364, 0.21219675, 0.5018498
179, 188732803, 0.8376421, -0.0056187958, 0.21589461, 0.501711
180, 188749470, 0.83681476, -0.0052794474, 0.21966557, 0.50145817
181, 188766137, 0.8360648, -0.005444503, 0.22340934, 0.5010534
182, 188782804, 0.8354322, -0.006176251, 0.22681497, 0.50057
183, 188799471, 0.8348472, -0.007273316, 0.23004043, 0.5000587
184, 188816138, 0.8342456, -0.008970067, 0.23300679, 0.4996617
185, 188832805, 0.8336549, -0.011465477, 0.23534133, 0.49950248
186, 188849472, 0.83311903, -0.014137096, 0.23747975, 0.49931562
187, 188866139, 0.83258075, -0.016335377, 0.23972961, 0.4990715
188, 188882806, 0.8319321, -0.017190248, 0.2425795, 0.49874702
189, 188899473, 0.8312128, -0.01696508, 0.24570486, 0.498424
190, 188916140, 0.83052754, -0.016180318, 0.24872316, 0.49809542
191, 188932807, 0.82990646, -0.015343775, 0.2516775, 0.49767318
192, 188949474, 0.82934386, -0.014576522, 0.25473258, 0.49707913
193, 188966141, 0.8288466, -0.014093474, 0.25777215, 0.49635518
194, 188982808, 0.82844603, -0.014149038, 0.26039255, 0.49565405
195, 188999475, 0.828069, -0.014430513, 0.2626017, 0.49511003
196, 189016142, 0.82766885, -0.014829772, 0.26484933, 0.4945698
197, 189032809, 0.8272582, -0.015577379, 0.26710778, 0.49401915
198, 189049476, 0.82686234, -0.016415484, 0.26935157, 0.4934361
199, 189066143, 0.8264043, -0.017076517, 0.27149877, 0.4930041
200, 189082810, 0.8259171, -0.017728247, 0.27361855, 0.49262512
201, 189099477, 0.82541394, -0.018758718, 0.27581587, 0.49220467
202, 189116144, 0.8248694, -0.019771459, 0.27829573, 0.49168193
203, 189132811, 0.8242568, -0.020280452, 0.28105602, 0.4911183
204, 189149478, 0.82356757, -0.020376796, 0.2839833, 0.49058634
205, 189166145, 0.8228674, -0.021168247, 0.28670126, 0.49014655
206, 189182812, 0.82224715, -0.02342431, 0.28900075, 0.48973432
207, 189199479, 0.82158303, -0.025242165, 0.29133916, 0.48937303
208, 189216146, 0.82086635, -0.025074238, 0.29452768, 0.48867488
209, 189232813, 0.82009286, -0.02427068, 0.29810768, 0.48784268
210, 189249480, 0.81938887, -0.024383057, 0.3014116, 0.48698914
211, 189266147, 0.81872594, -0.025594875, 0.3040598, 0.48639527
212, 189282814, 0.8179922, -0.02679484, 0.3067143, 0.48589826
213, 189299481, 0.81711566, -0.02695623, 0.3097337, 0.48544866
214, 189316148, 0.81609976, -0.025919806, 0.3133447, 0.48489642
215, 189332815, 0.81501335, -0.024801511, 0.31710842, 0.48433533
216, 189349482, 0.8139376, -0.024301697, 0.3206862, 0.48381358
217, 189366149, 0.8129068, -0.025061669, 0.3237695, 0.48345414
218, 189382816, 0.8119842, -0.02726747, 0.32634833, 0.48315105
219, 189399483, 0.81116766, -0.030536734, 0.32862532, 0.48278362
220, 189416150, 0.81034636, -0.033813417, 0.3309189, 0.4823777
221, 189432817, 0.80951744, -0.03646271, 0.3337458, 0.4816283
222, 189449484, 0.80866945, -0.038998984, 0.3367112, 0.48078957
223, 189466151, 0.8077212, -0.04210578, 0.33963415, 0.48006493
224, 189482818, 0.8066901, -0.045551155, 0.34240523, 0.47951564
225, 189499485, 0.80553937, -0.04834162, 0.34543273, 0.4790052
226, 189516152, 0.8042665, -0.050661802, 0.34868646, 0.4785463
227, 189532819, 0.80283666, -0.053159315, 0.35200217, 0.47824892
228, 189549486, 0.8011783, -0.05575289, 0.35538077, 0.47823614
229, 189566153, 0.79941374, -0.05837971, 0.35891148, 0.47823846
230, 189582820, 0.79762435, -0.061709877, 0.36247486, 0.47812063
231, 189599487, 0.79588526, -0.06611462, 0.365756, 0.47793138
232, 189616154, 0.7942129, -0.0706496, 0.36897966, 0.47758618
233, 189632821, 0.7925461, -0.07481565, 0.37242836, 0.47704366
234, 189649488, 0.79093117, -0.07840262, 0.37657735, 0.4758894
235, 189666155, 0.7891565, -0.0822998, 0.3809353, 0.47470725
236, 189682822, 0.78727263, -0.08654812, 0.38514787, 0.47367963
237, 189699489, 0.7853487, -0.090794444, 0.38921946, 0.47274938
238, 189716156, 0.7834279, -0.09446211, 0.39352039, 0.471656
239, 189732823, 0.7814804, -0.0975593, 0.39824116, 0.47029215
240, 189749490, 0.77952087, -0.10008221, 0.4034015, 0.4686131
241, 189766157, 0.7773426, -0.102414444, 0.40863273, 0.4671929
242, 189782824, 0.77493924, -0.10481698, 0.41383278, 0.46607438
243, 189799491, 0.77243686, -0.1079771, 0.41887876, 0.46499795
244, 189816158, 0.76995915, -0.11204966, 0.42363843, 0.4638299
245, 189832825, 0.767454, -0.116365224, 0.42859098, 0.46236706
246, 189849492, 0.76480585, -0.12036859, 0.43384898, 0.46082392
247, 189866159, 0.7621467, -0.123719946, 0.4394191, 0.459061
248, 189882826, 0.7594926, -0.12802945, 0.44459656, 0.45728922
249, 189899493, 0.7568874, -0.13318075, 0.44930223, 0.45553485
250, 189916160, 0.75427216, -0.13749485, 0.45438772, 0.4535421
251, 189932827, 0.7516297, -0.14104965, 0.45984793, 0.4513287
252, 189949494, 0.74870944, -0.1453637, 0.4646856, 0.4498564
253, 189966161, 0.7453086, -0.15113445, 0.46872395, 0.44941214
254, 189982828, 0.7416656, -0.15732017, 0.47234243, 0.44952804
255, 189999495, 0.7379887, -0.1620806, 0.47639638, 0.44961008
256, 190016162, 0.73450464, -0.16555823, 0.48091018, 0.4492426
257, 190032829, 0.7311139, -0.16946617, 0.4852192, 0.44868284
258, 190049496, 0.7277535, -0.17422372, 0.48919335, 0.44800785
259, 190066163, 0.7245834, -0.17939779, 0.49278492, 0.44716755
260, 190082830, 0.7215992, -0.18415846, 0.49624145, 0.44623408
261, 190099497, 0.718744, -0.18882075, 0.49960062, 0.44514406
262, 190116164, 0.7158695, -0.19393235, 0.5026106, 0.4441888
263, 190132831, 0.71298325, -0.19927026, 0.5054885, 0.44320175
264, 190149498, 0.71020794, -0.20392156, 0.5085507, 0.4420375
265, 190166165, 0.7076661, -0.2076715, 0.5119591, 0.44043112
266, 190182832, 0.7051412, -0.21139818, 0.5153138, 0.43879217
267, 190199499, 0.702489, -0.21558028, 0.51839703, 0.4373777
268, 190216166, 0.6998269, -0.21953632, 0.52149475, 0.43599236
269, 190232833, 0.69715685, -0.22313502, 0.524741, 0.43454564
270, 190249500, 0.6944882, -0.22647929, 0.5281254, 0.43298593
271, 190266167, 0.6916839, -0.22984679, 0.53170687, 0.431314
272, 190282834, 0.68861187, -0.23318604, 0.53567934, 0.429518
273, 190299501, 0.6854352, -0.23619518, 0.5401009, 0.42741263
274, 190316168, 0.68235964, -0.23855251, 0.5447142, 0.42516425
275, 190332835, 0.6792973, -0.24059992, 0.54943466, 0.42283386
276, 190349502, 0.67595094, -0.24402064, 0.5536451, 0.4207393
277, 190366169, 0.6722764, -0.24941358, 0.55677384, 0.41933307
278, 190382836, 0.66868484, -0.25559548, 0.55894285, 0.41846722
279, 190399503, 0.66516066, -0.26126948, 0.5611396, 0.4176388
280, 190416170, 0.6616062, -0.2667934, 0.56334084, 0.4168281
281, 190432837, 0.65797603, -0.27206182, 0.56562173, 0.41607934
282, 190449504, 0.65439785, -0.27676955, 0.56807023, 0.41528141
283, 190466171, 0.65098655, -0.2807989, 0.5707214, 0.4143016
284, 190482838, 0.64775765, -0.28432932, 0.5733971, 0.41325882
285, 190499505, 0.6445894, -0.28761485, 0.5762016, 0.41203624
286, 190516172, 0.6415356, -0.29049438, 0.57915115, 0.41064483
287, 190532839, 0.6386754, -0.29236284, 0.5824612, 0.4090928
288, 190549506, 0.6361345, -0.29321325, 0.58622444, 0.40706268
289, 190566173, 0.6336764, -0.29414442, 0.590097, 0.4046217
290, 190582840, 0.6308852, -0.2959618, 0.5935349, 0.40262514
291, 190599507, 0.627581, -0.29881477, 0.5962375, 0.4016875
292, 190616174, 0.62409854, -0.30189896, 0.5984257, 0.4015529
293, 190632841, 0.6204315, -0.30486438, 0.60061896, 0.40172058
294, 190649508, 0.6162698, -0.30862537, 0.6024497, 0.40251258
295, 190666175, 0.6114302, -0.31356558, 0.60379475, 0.40405688
296, 190682842, 0.60614353, -0.31949484, 0.6046495, 0.406094
297, 190699509, 0.60097903, -0.32529852, 0.60500544, 0.40862402
298, 190716176, 0.5967169, -0.3285349, 0.6063058, 0.4103502
299, 190732843, 0.5930075, -0.32941186, 0.60945463, 0.41035956
300, 190749510, 0.5894563, -0.3300771, 0.612939, 0.40975124
301, 190766177, 0.58582765, -0.33140814, 0.6159007, 0.4094397
302, 190782844, 0.58229774, -0.3331472, 0.6182057, 0.40958998
303, 190799511, 0.5792782, -0.33397365, 0.6203887, 0.40989783
304, 190816178, 0.57667387, -0.33377337, 0.6232369, 0.40941232
305, 190832845, 0.57382435, -0.33424798, 0.62575865, 0.4091822
306, 190849512, 0.57060885, -0.3360384, 0.6273356, 0.40979737
307, 190866179, 0.56720537, -0.33852145, 0.6284675, 0.4107434
308, 190882846, 0.5638747, -0.34125718, 0.6296571, 0.4112432
309, 190899513, 0.5606627, -0.34427053, 0.63082486, 0.4113334
310, 190916180, 0.5575174, -0.34731373, 0.6319323, 0.41135046
311, 190932847, 0.5556353, -0.34846753, 0.6332144, 0.41094956
312, 190949514, 0.5550356, -0.346634, 0.63622314, 0.40865722
313, 190966181, 0.5547863, -0.34439182, 0.63982844, 0.4052485
314, 190982848, 0.55450726, -0.34337384, 0.64240944, 0.4024008
315, 190999515, 0.5542498, -0.34347177, 0.6440075, 0.40011075
316, 191016182, 0.5537793, -0.34411848, 0.6451515, 0.39835978
317, 191032849, 0.55301625, -0.34523928, 0.64594555, 0.39716163
318, 191049516, 0.5519546, -0.34683138, 0.6464543, 0.39642295
319, 191066183, 0.550571, -0.3493599, 0.64635414, 0.39628994
320, 191082850, 0.5489728, -0.3527089, 0.6456484, 0.39669105
321, 191099517, 0.5483291, -0.35456792, 0.6452063, 0.39664307
322, 191116184, 0.5487541, -0.3530388, 0.64690566, 0.39464608
323, 191132851, 0.54943734, -0.35048595, 0.6495435, 0.3916267
324, 191149518, 0.54991704, -0.3488573, 0.6514031, 0.3893121
325, 191166185, 0.5501985, -0.34826842, 0.652275, 0.38797975
326, 191182852, 0.55022156, -0.3484703, 0.6525106, 0.3873689
327, 191199519, 0.5500679, -0.34871653, 0.65264195, 0.3871442
328, 191216186, 0.549953, -0.3486124, 0.65297586, 0.38683808
329, 191232853, 0.5499914, -0.34833583, 0.65343267, 0.38626084
330, 191249520, 0.54996634, -0.34830937, 0.6536946, 0.3858772
331, 191266187, 0.5497682, -0.34878272, 0.65358174, 0.38592297
332, 191282854, 0.5495208, -0.3494963, 0.6532393, 0.38620964
333, 191299521, 0.5493762, -0.34979954, 0.6532339, 0.38614973
334, 191316188, 0.5492636, -0.35008767, 0.65335494, 0.38584432
335, 191332855, 0.5490383, -0.35057053, 0.6533962, 0.3856561
336, 191349522, 0.5487153, -0.35114393, 0.65338176, 0.38561893
337, 191366189, 0.54836285, -0.35192177, 0.6531777, 0.38575697
338, 191382856, 0.54797775, -0.3526026, 0.6530237, 0.38594306
339, 191399523, 0.5475762, -0.35327277, 0.65290725, 0.38609707
340, 191416190, 0.54720193, -0.35381278, 0.6528169, 0.38628584
341, 191432857, 0.547041, -0.35386685, 0.65290767, 0.38631082
342, 191449524, 0.54728776, -0.35319957, 0.65327275, 0.38595453
343, 191466191, 0.54773813, -0.3524344, 0.6536232, 0.38542143
344, 191482858, 0.54825, -0.35171694, 0.6539409, 0.38480976
345, 191499525, 0.54866517, -0.35125625, 0.65402484, 0.3844957
346, 191516192, 0.5489792, -0.35097194, 0.6539083, 0.38450563
347, 191532859, 0.54916775, -0.350836, 0.6537153, 0.3846885
348, 191549526, 0.5493502, -0.35079694, 0.6534926, 0.38484216
349, 191566193, 0.549512, -0.35091883, 0.65324044, 0.38492778
350, 191582860, 0.5496886, -0.35124364, 0.6527055, 0.38528708
351, 191599527, 0.54977447, -0.3517338, 0.65208125, 0.38577387
352, 191616194, 0.54992324, -0.3521861, 0.65141034, 0.38628238
353, 191632861, 0.55018955, -0.35226172, 0.650918, 0.386664
354, 191649528, 0.5504491, -0.3522167, 0.6504193, 0.3871745
355, 191666195, 0.55068535, -0.35206187, 0.6499203, 0.38781682
356, 191682862, 0.5508173, -0.3518833, 0.64930534, 0.38882023
357, 191699529, 0.5510117, -0.35173038, 0.6485455, 0.38994983
358, 191716196, 0.5514237, -0.35149443, 0.6476644, 0.3910427
359, 191732863, 0.5520968, -0.3510497, 0.6467612, 0.39198652
360, 191749530, 0.5529309, -0.3504122, 0.64590603, 0.39279047
361, 191766197, 0.5540796, -0.34933478, 0.6452419, 0.39322257
362, 191782864, 0.5555214, -0.34779796, 0.6446489, 0.3935231
363, 191799531, 0.5570873, -0.3462566, 0.6439863, 0.39375377
364, 191816198, 0.5587351, -0.34489417, 0.6431246, 0.39402288
365, 191832865, 0.56043905, -0.3435813, 0.64217806, 0.39429343
366, 191849532, 0.5620824, -0.34230664, 0.6411502, 0.3947353
367, 191866199, 0.5636538, -0.34134844, 0.6398458, 0.3954405
368, 191882866, 0.56524664, -0.34069213, 0.63820225, 0.39638764
369, 191899533, 0.5667447, -0.34025374, 0.6363508, 0.39760014
370, 191916200, 0.56829673, -0.33988848, 0.6343894, 0.3988294
371, 191932867, 0.5698791, -0.3397152, 0.63224435, 0.40012336
372, 191949534, 0.57150304, -0.33956143, 0.62990814, 0.40161937
373, 191966201, 0.57313424, -0.33955452, 0.6273299, 0.40333256
374, 191982868, 0.5748457, -0.33949766, 0.6246394, 0.40511698
375, 191999535, 0.576685, -0.33934993, 0.6218037, 0.40698445
376, 192016202, 0.5786372, -0.33901495, 0.61887735, 0.40894848
377, 192032869, 0.58054376, -0.3386827, 0.6159204, 0.41098064
378, 192049536, 0.58251554, -0.3383318, 0.6128242, 0.41310284
379, 192066203, 0.5846128, -0.33820102, 0.609306, 0.41544485
380, 192082870, 0.5870053, -0.33789572, 0.60564494, 0.41766706
381, 192099537, 0.5896653, -0.33705008, 0.6021007, 0.41972253
382, 192116204, 0.59259576, -0.3354105, 0.59892136, 0.42145395
383, 192132871, 0.59576815, -0.33338222, 0.59573853, 0.4230983
384, 192149538, 0.59927464, -0.3310667, 0.59241873, 0.42462307
385, 192166205, 0.6029596, -0.3284773, 0.58907443, 0.42606783
386, 192182872, 0.60677046, -0.32562324, 0.5856723, 0.42753625
387, 192199539, 0.61067706, -0.3223041, 0.58232075, 0.42906466
388, 192216206, 0.61449814, -0.31883335, 0.578973, 0.43072915
389, 192232873, 0.6182947, -0.31566125, 0.5752278, 0.4326464
390, 192249540, 0.6221421, -0.31274775, 0.57112586, 0.434676
391, 192266207, 0.62609637, -0.30968976, 0.56679505, 0.43685138
392, 192282874, 0.63006544, -0.30631706, 0.56244636, 0.43913734
393, 192299541, 0.63402355, -0.30282623, 0.5580548, 0.44145808
394, 192316208, 0.63804203, -0.29933974, 0.55337536, 0.4439301
395, 192332875, 0.6421149, -0.295591, 0.54851496, 0.44659376
396, 192349542, 0.64624125, -0.29124683, 0.54375917, 0.4493036
397, 192366209, 0.65022063, -0.28669766, 0.5389823, 0.45223406
398, 192382876, 0.65410817, -0.2825811, 0.533834, 0.4553151
399, 192399543, 0.6579925, -0.27870062, 0.52827543, 0.45858172
400, 192416210, 0.66198164, -0.27444687, 0.5226247, 0.46186894
401, 192432877, 0.6659999, -0.2698728, 0.51691675, 0.46519893
402, 192449544, 0.6699172, -0.26557803, 0.510849, 0.46873528
403, 192466211, 0.6737706, -0.26187128, 0.50415736, 0.4725275
404, 192482878, 0.6777236, -0.25782323, 0.49742275, 0.4762233
405, 192499545, 0.68175423, -0.2530896, 0.49098748, 0.47967508
406, 192516212, 0.68575436, -0.2480964, 0.48472786, 0.48293704
407, 192532879, 0.6896848, -0.24345969, 0.47819045, 0.486206
408, 192549546, 0.69362986, -0.2390223, 0.47137284, 0.48944238
409, 192566213, 0.6976253, -0.23425005, 0.464699, 0.4924439
410, 192582880, 0.70160013, -0.22947319, 0.45803568, 0.4952805
411, 192599547, 0.70539874, -0.22553572, 0.45114002, 0.4980152
412, 192616214, 0.709032, -0.22267608, 0.44364184, 0.50087035
413, 192632881, 0.712575, -0.21987729, 0.4359022, 0.5038653
414, 192649548, 0.7161192, -0.21656169, 0.4283124, 0.50677687
415, 192666215, 0.7195927, -0.21317339, 0.42094445, 0.50945985
416, 192682882, 0.7229391, -0.21041486, 0.4134422, 0.5120062
417, 192699549, 0.72621286, -0.20809479, 0.40567404, 0.5145291
418, 192716216, 0.72948575, -0.20535153, 0.39802107, 0.51697254
419, 192732883, 0.7328102, -0.2016737, 0.39100352, 0.51906997
420, 192749550, 0.7362698, -0.19761373, 0.38415703, 0.52084494
421, 192766217, 0.7396599, -0.19372271, 0.37757277, 0.5223159
422, 192782884, 0.7429188, -0.19023733, 0.37096208, 0.5237066
423, 192799551, 0.74609846, -0.18635279, 0.36457118, 0.5250693
424, 192816218, 0.7492121, -0.18180698, 0.3585332, 0.5263854
425, 192832885, 0.7521244, -0.17766458, 0.35245648, 0.52774894
426, 192849552, 0.7549023, -0.17424989, 0.3459064, 0.5292529
427, 192866219, 0.75759673, -0.17066355, 0.3396064, 0.5306494
428, 192882886, 0.7602507, -0.16697334, 0.33353165, 0.5318796
429, 192899553, 0.7629088, -0.1631807, 0.3276214, 0.532923
430, 192916220, 0.7653455, -0.1595136, 0.32177445, 0.53410035
431, 192932887, 0.76764953, -0.15570165, 0.31609344, 0.5353094
432, 192949554, 0.76992005, -0.15161997, 0.3105085, 0.5364876
433, 192966221, 0.77210575, -0.14771809, 0.30487636, 0.5376639
434, 192982888, 0.7741154, -0.14445345, 0.29910523, 0.5389014
435, 192999555, 0.77594626, -0.1417077, 0.29298016, 0.54036033
436, 193016222, 0.7777403, -0.13818257, 0.28737935, 0.5417
437, 193032889, 0.7795508, -0.1339875, 0.2822481, 0.542848
438, 193049556, 0.78129095, -0.12984733, 0.27718318, 0.54396117
439, 193066223, 0.7829206, -0.12584594, 0.2720832, 0.5451321
440, 193082890, 0.7844796, -0.121588364, 0.26721323, 0.54626495
441, 193099557, 0.78593963, -0.11718638, 0.26260594, 0.5473615
442, 193116224, 0.78733224, -0.11326993, 0.25783646, 0.5484509
443, 193132891, 0.78867257, -0.11021683, 0.25257272, 0.54959536
444, 193149558, 0.7899674, -0.1075828, 0.24709727, 0.5507456
445, 193166225, 0.79120106, -0.10464533, 0.2419608, 0.55182004
446, 193182892, 0.79239, -0.101574205, 0.23702145, 0.5528307
447, 193199559, 0.7934151, -0.098585226, 0.23217127, 0.55395854
448, 193216226, 0.7944347, -0.095100276, 0.22773875, 0.5549457
449, 193232893, 0.79545784, -0.09090272, 0.22377497, 0.5557952
450, 193249560, 0.7965098, -0.0865627, 0.21998504, 0.5564943
451, 193266227, 0.79749495, -0.08286123, 0.21583444, 0.55727166
452, 193282894, 0.79846, -0.07939354, 0.21148534, 0.55806124
453, 193299561, 0.7994847, -0.075603016, 0.20735385, 0.55867076
454, 193316228, 0.8006168, -0.072007634, 0.20320442, 0.5590493
455, 193332895, 0.80177355, -0.06909858, 0.1986654, 0.55938953
456, 193349562, 0.80292225, -0.06651895, 0.19386551, 0.5597386
457, 193366229, 0.8040645, -0.063835844, 0.18926549, 0.5599856
458, 193382896, 0.8051839, -0.060957976, 0.18488115, 0.56016254
459, 193399563, 0.8061744, -0.05783651, 0.18065295, 0.5604485
460, 193416230, 0.807065, -0.054322217, 0.17659798, 0.5608104
461, 193432897, 0.8078717, -0.05033362, 0.17295463, 0.5611566
462, 193449564, 0.80859864, -0.046030995, 0.1695813, 0.56150824
463, 193466231, 0.8092524, -0.04168486, 0.16625416, 0.56190056
464, 193482898, 0.8098364, -0.037930116, 0.1625162, 0.5624188
465, 193499565, 0.810382, -0.035029046, 0.15832663, 0.5630159
466, 193516232, 0.810902, -0.032373518, 0.1540827, 0.5636033
467, 193532899, 0.8114268, -0.029395817, 0.1499638, 0.5641219
468, 193549566, 0.8118654, -0.025922421, 0.14619395, 0.5646501
469, 193566233, 0.8122961, -0.022469144, 0.14253253, 0.56511503
470, 193582900, 0.812779, -0.018946838, 0.13886543, 0.5654624
471, 193599567, 0.81323516, -0.014953384, 0.1356623, 0.5657038
472, 193616234, 0.8136614, -0.010727044, 0.13276646, 0.56587374
473, 193632901, 0.8141769, -0.0068841507, 0.12934583, 0.56598437
474, 193649568, 0.81464195, -0.0032478187, 0.12603824, 0.5660939
475, 193666235, 0.8150994, 3.4195764E-4, 0.1227809, 0.5661606
476, 193682902, 0.815578, 0.0040252367, 0.1195804, 0.5661423
477, 193699569, 0.8159121, 0.007797425, 0.11659517, 0.5662442
478, 193716236, 0.8161207, 0.011790487, 0.11400127, 0.56640255
479, 193732903, 0.8163354, 0.015378025, 0.11129527, 0.5665452
480, 193749570, 0.81665444, 0.018239958, 0.10819996, 0.5666002
481, 193766237, 0.8169926, 0.02088819, 0.104967594, 0.5666291
482, 193782904, 0.8171777, 0.023984762, 0.102185056, 0.56674826
483, 193799571, 0.81718695, 0.027530458, 0.100085534, 0.5669484
484, 193816238, 0.817302, 0.030661754, 0.09775881, 0.56702775
485, 193832905, 0.8176041, 0.033027254, 0.0949668, 0.5669341
486, 193849572, 0.81796086, 0.034882143, 0.09195524, 0.56680477
487, 193866239, 0.81823945, 0.036534414, 0.088960536, 0.5667765
488, 193882906, 0.81841826, 0.038150184, 0.08606141, 0.56685954
489, 193899573, 0.81858146, 0.039711755, 0.083075985, 0.5669617
490, 193916240, 0.8186837, 0.041168347, 0.080101155, 0.5671384
491, 193932907, 0.818678, 0.042914107, 0.077368185, 0.5673967
492, 193949574, 0.81857187, 0.045330744, 0.07505652, 0.56767243
493, 193966241, 0.8184532, 0.048019536, 0.072866894, 0.5679077
494, 193982908, 0.8183889, 0.0503935, 0.070412464, 0.5681042
495, 193999575, 0.8183286, 0.0525282, 0.06779678, 0.5683156
496, 194016242, 0.8181878, 0.054712605, 0.065566584, 0.56857395
497, 194032909, 0.8180163, 0.057036076, 0.06353786, 0.5688229
498, 194049576, 0.8178846, 0.059021596, 0.06141636, 0.56904256
499, 194066243, 0.81785965, 0.060694356, 0.059225537, 0.5691348
500, 194082910, 0.8176664, 0.0631298, 0.05761635, 0.5693126
501, 194099577, 0.8173494, 0.06598492, 0.056403846, 0.56956553
502, 194116244, 0.8170383, 0.06852928, 0.054992363, 0.5698491
503, 194132911, 0.81675005, 0.07095897, 0.053645078, 0.57009363
504, 194149578, 0.8164793, 0.07318402, 0.05230175, 0.57032466
505, 194166245, 0.8162414, 0.07519284, 0.050833315, 0.5705369
506, 194182912, 0.81608295, 0.07651364, 0.049029287, 0.5707457
507, 194199579, 0.8160228, 0.07732163, 0.047103066, 0.5708848
508, 194216246, 0.8159803, 0.0778357, 0.045161795, 0.5710328
509, 194232913, 0.815964, 0.07792794, 0.043198626, 0.571195
510, 194249580, 0.81603605, 0.07754953, 0.041021727, 0.5713042
511, 194266247, 0.8159862, 0.07756441, 0.039236076, 0.5714988
512, 194282914, 0.8157456, 0.078287974, 0.03844423, 0.5717974
513, 194299581, 0.8155932, 0.07894645, 0.038174618, 0.5719425
514, 194316248, 0.81559175, 0.0793493, 0.03792634, 0.57190526
515, 194332915, 0.8155821, 0.07956281, 0.037763648, 0.5719002
516, 194349582, 0.81551915, 0.07994988, 0.038070235, 0.57191545
517, 194366249, 0.81559014, 0.08000982, 0.038731407, 0.57176155
518, 194382916, 0.8158257, 0.07938107, 0.03923653, 0.5714784
519, 194399583, 0.81603694, 0.07874138, 0.039879896, 0.5712206
520, 194416250, 0.8161876, 0.07846474, 0.040957935, 0.5709673
521, 194432917, 0.8163284, 0.07798707, 0.04235159, 0.5707296
522, 194449584, 0.81661123, 0.07670073, 0.04332117, 0.57042664
523, 194466251, 0.8169666, 0.075020984, 0.044130974, 0.570079
524, 194482918, 0.81729025, 0.073518835, 0.045262024, 0.5697222
525, 194499585, 0.8175213, 0.07247141, 0.046823494, 0.5693985
526, 194516252, 0.817829, 0.07132192, 0.048279613, 0.56897974
527, 194532919, 0.81815755, 0.07000443, 0.04947124, 0.5685687
528, 194549586, 0.81846493, 0.068701826, 0.050548606, 0.56819046
529, 194566253, 0.8187381, 0.06762214, 0.051748727, 0.5678181
530, 194582920, 0.8191022, 0.06659814, 0.052970555, 0.56730115
531, 194599587, 0.819446, 0.06565846, 0.05407746, 0.56680954
532, 194616254, 0.8197137, 0.064947516, 0.055147506, 0.56640106
533, 194632921, 0.81993526, 0.06443111, 0.05622187, 0.5660336
534, 194649588, 0.8200488, 0.06415558, 0.05745841, 0.5657761
535, 194666255, 0.8201556, 0.06369996, 0.058395565, 0.565577
536, 194682922, 0.82021654, 0.06299964, 0.058955178, 0.56550926
537, 194699589, 0.820202, 0.062459182, 0.059442442, 0.5655388
538, 194716256, 0.820096, 0.062288042, 0.060121242, 0.5656398
539, 194732923, 0.8199592, 0.062247027, 0.06069785, 0.5657809
540, 194749590, 0.8197638, 0.06236948, 0.06118843, 0.56599796
541, 194766257, 0.8195564, 0.062449507, 0.0616763, 0.5662363
542, 194782924, 0.8195101, 0.062231094, 0.061953533, 0.5662971
543, 194799591, 0.8195399, 0.06176267, 0.062036738, 0.56629604
544, 194816258, 0.81956965, 0.06127943, 0.06213195, 0.5662951
545, 194832925, 0.8196793, 0.06050791, 0.062125266, 0.5662202
546, 194849592, 0.8198872, 0.05945344, 0.061888345, 0.56605667
547, 194866259, 0.8200134, 0.058666192, 0.061726496, 0.5659738
548, 194882926, 0.8200532, 0.058231104, 0.061849747, 0.5659477
549, 194899593, 0.8201418, 0.05763895, 0.062047973, 0.565858
550, 194916260, 0.82023036, 0.057101097, 0.062410668, 0.5657442
551, 194932927, 0.82033277, 0.056779694, 0.062975384, 0.5655655
552, 194949594, 0.82048595, 0.05629788, 0.063633695, 0.565318
553, 194966261, 0.82071733, 0.05550215, 0.06422622, 0.56499356
554, 194982928, 0.82102174, 0.054463733, 0.06479876, 0.56458694
555, 194999595, 0.82141465, 0.05335588, 0.06527215, 0.5640663
556, 195016262, 0.82173395, 0.0529038, 0.06606402, 0.5635516
557, 195032929, 0.82198864, 0.052713417, 0.06709366, 0.563076
558, 195049596, 0.8222763, 0.052282486, 0.06791526, 0.5625975
559, 195066263, 0.82251185, 0.05166617, 0.068569176, 0.5622308
560, 195082930, 0.8227666, 0.05105883, 0.06881456, 0.5618833
561, 195099597, 0.8230205, 0.050623342, 0.06907115, 0.5615192
562, 195116264, 0.823297, 0.050358787, 0.06938076, 0.56109947
563, 195132931, 0.82353175, 0.05019672, 0.06979105, 0.5607184
564, 195149598, 0.8237697, 0.049960513, 0.07021187, 0.56033725
565, 195166265, 0.82402664, 0.04983301, 0.07075483, 0.55990237
566, 195182932, 0.8242793, 0.049900264, 0.07146621, 0.55943394
567, 195199599, 0.8245278, 0.050186943, 0.072347194, 0.5589286
568, 195216266, 0.82480055, 0.05012483, 0.07299536, 0.55844736
569, 195232933, 0.82504743, 0.04986246, 0.07341548, 0.55805093
570, 195249600, 0.825161, 0.049626064, 0.07380546, 0.5578527
571, 195266267, 0.8251708, 0.04944921, 0.07416936, 0.55780566
572, 195282934, 0.8250185, 0.04943746, 0.07465053, 0.5579674
573, 195299601, 0.82485, 0.049495697, 0.07508773, 0.55815274
574, 195316268, 0.8247981, 0.04945655, 0.075338915, 0.5581993
575, 195332935, 0.8247779, 0.049418077, 0.07558407, 0.55819947
576, 195349602, 0.8247454, 0.04956699, 0.0758844, 0.55819327
577, 195366269, 0.8247231, 0.04972188, 0.076228485, 0.55816555
578, 195382936, 0.82469934, 0.0498188, 0.076554514, 0.5581474
579, 195399603, 0.82465935, 0.04987605, 0.07678291, 0.5581701
580, 195416270, 0.8245794, 0.049972896, 0.07700559, 0.5582489
581, 195432937, 0.824549, 0.05002909, 0.077045806, 0.5582832
582, 195449604, 0.82457, 0.04992725, 0.076916166, 0.5582792
583, 195466271, 0.82460725, 0.049872585, 0.0767387, 0.55825335
584, 195482938, 0.82456774, 0.05009437, 0.076691836, 0.55829847
585, 195499605, 0.82453954, 0.050426446, 0.07673593, 0.55830425
586, 195516272, 0.82456595, 0.050689373, 0.0767486, 0.55823964
587, 195532939, 0.82467854, 0.050845463, 0.07668154, 0.5580682
588, 195549606, 0.8248167, 0.050951757, 0.07660238, 0.5578653
589, 195566273, 0.82491964, 0.051353477, 0.07668227, 0.55766535
590, 195582940, 0.8249858, 0.05169906, 0.076749854, 0.55752593
591, 195599607, 0.82512426, 0.05179832, 0.076553, 0.5573389
592, 195616274, 0.82525945, 0.051795382, 0.076350845, 0.55716664
593, 195632941, 0.82535017, 0.0519644, 0.076264024, 0.55702835
594, 195649608, 0.8254013, 0.052368972, 0.076397575, 0.5568966
595, 195666275, 0.8254636, 0.05261423, 0.07644691, 0.55677444
596, 195682942, 0.8255213, 0.05264192, 0.07636213, 0.55669785
597, 195699609, 0.8255187, 0.052688256, 0.0763166, 0.55670357
598, 195716276, 0.82550806, 0.053056434, 0.07647833, 0.556662
599, 195732943, 0.82544583, 0.053679038, 0.076838784, 0.55664504
600, 195749610, 0.8254343, 0.053929534, 0.0770454, 0.5566092
601, 195766277, 0.82545125, 0.05383778, 0.07705225, 0.556592
602, 195782944, 0.8254062, 0.05368165, 0.077108495, 0.55666614
603, 195799611, 0.82529306, 0.05362702, 0.07732082, 0.5568099
604, 195816278, 0.8251944, 0.05372432, 0.07763586, 0.5569027
605, 195832945, 0.82505053, 0.053767838, 0.078012876, 0.5570589
606, 195849612, 0.8248831, 0.053646337, 0.078226306, 0.55728865
607, 195866279, 0.8246018, 0.053650923, 0.078458145, 0.5576718
608, 195882946, 0.8242109, 0.053779054, 0.078863576, 0.55818
609, 195899613, 0.82368606, 0.054098908, 0.07946224, 0.5588384
610, 195916280, 0.82308966, 0.054238547, 0.07993023, 0.55963635
611, 195932947, 0.82244843, 0.054037582, 0.08012271, 0.5605702
612, 195949614, 0.8217113, 0.053850185, 0.08021895, 0.5616545
613, 195966281, 0.82084066, 0.053930704, 0.08045505, 0.56288475
614, 195982948, 0.81986713, 0.053899586, 0.08062392, 0.5642807
615, 195999615, 0.818782, 0.053737573, 0.08067593, 0.5658622
616, 196016282, 0.8174614, 0.053778164, 0.08086637, 0.5677372
617, 196032949, 0.8160033, 0.054121945, 0.08126905, 0.56974095
618, 196049616, 0.81445044, 0.054552276, 0.08169993, 0.5718563
619, 196066283, 0.8127346, 0.054996137, 0.08219464, 0.57417977
620, 196082950, 0.81078583, 0.055723663, 0.08288306, 0.57675964
621, 196099617, 0.8085751, 0.05663548, 0.083722286, 0.579646
622, 196116284, 0.8061017, 0.05737409, 0.08442217, 0.58290786
623, 196132951, 0.803437, 0.057757784, 0.08482395, 0.5864795
624, 196149618, 0.8006386, 0.05771783, 0.0849859, 0.59027463
625, 196166285, 0.7976113, 0.05777813, 0.08520215, 0.59432197
626, 196182952, 0.7943104, 0.05836636, 0.08563956, 0.5986072
627, 196199619, 0.79088396, 0.059252832, 0.0859174, 0.6030008
628, 196216286, 0.78731275, 0.05979522, 0.08580328, 0.6076191
629, 196232953, 0.78361285, 0.05995527, 0.085326515, 0.6124345
630, 196249620, 0.7797835, 0.059900485, 0.084581874, 0.61741036
631, 196266287, 0.7758258, 0.059960067, 0.08380946, 0.622475
632, 196282954, 0.7715251, 0.06069516, 0.0834984, 0.6277687
633, 196299621, 0.7670446, 0.061711825, 0.08358212, 0.6331259
634, 196316288, 0.7625988, 0.06265863, 0.08367186, 0.63837
635, 196332955, 0.7581045, 0.06355673, 0.0836442, 0.6436166
636, 196349622, 0.75345254, 0.064385794, 0.083655454, 0.64897287
637, 196366289, 0.7488187, 0.064653896, 0.083485484, 0.65430933
638, 196382956, 0.7443545, 0.06446345, 0.08304535, 0.6594576
639, 196399623, 0.7397316, 0.0645764, 0.08310763, 0.66462034
640, 196416290, 0.73492783, 0.06517686, 0.08400123, 0.66975886
641, 196432957, 0.730122, 0.06560809, 0.08542028, 0.67477477
642, 196449624, 0.72557646, 0.06523781, 0.086701296, 0.6795336
643, 196466291, 0.72101057, 0.06469248, 0.08790756, 0.684274
644, 196482958, 0.7161903, 0.064555034, 0.089571856, 0.6891162
645, 196499625, 0.71120113, 0.064155415, 0.09190458, 0.6939963
646, 196516292, 0.70632493, 0.06309224, 0.0938523, 0.6987964
647, 196532959, 0.70117646, 0.06148693, 0.09528459, 0.7039119
648, 196549626, 0.69576144, 0.059351344, 0.096205264, 0.70932215
649, 196566293, 0.69011295, 0.057325065, 0.0972377, 0.71484464
650, 196582960, 0.6845531, 0.05484076, 0.09791405, 0.7202726
651, 196599627, 0.6787518, 0.053099304, 0.09904615, 0.72571784
652, 196616294, 0.6724572, 0.05252974, 0.10111997, 0.73131174
653, 196632961, 0.6659885, 0.051764533, 0.102829605, 0.73702514
654, 196649628, 0.65934753, 0.05028026, 0.10329923, 0.7430088
655, 196666295, 0.6522017, 0.049136866, 0.103864655, 0.74928683
656, 196682962, 0.6445903, 0.048639096, 0.10517598, 0.7556954
657, 196699629, 0.6368198, 0.04836328, 0.10675701, 0.76205283
658, 196716296, 0.62913555, 0.047401164, 0.107261956, 0.76839864
659, 196732963, 0.6216236, 0.045908988, 0.10690268, 0.7746279
660, 196749630, 0.61422974, 0.04468068, 0.10682199, 0.78058606
661, 196766297, 0.60682815, 0.04430508, 0.107773, 0.78624535
662, 196782964, 0.599492, 0.044513624, 0.10928514, 0.79163426
663, 196799631, 0.59239054, 0.044553023, 0.110470936, 0.7967967
664, 196816298, 0.5855139, 0.0445528, 0.11157257, 0.801711
665, 196832965, 0.5785775, 0.04498789, 0.11331565, 0.8064638
666, 196849632, 0.57126063, 0.04634197, 0.116397426, 0.81115067
667, 196866299, 0.5638882, 0.047856964, 0.12001166, 0.81568205
668, 196882966, 0.55658364, 0.049147107, 0.12326997, 0.82012445
669, 196899633, 0.5491709, 0.05054704, 0.12658693, 0.82451934
670, 196916300, 0.5413438, 0.052177697, 0.13032049, 0.82900006
671, 196932967, 0.53361535, 0.052850757, 0.13304353, 0.8335234
672, 196949634, 0.5262337, 0.052014578, 0.13357992, 0.83817023
673, 196966301, 0.5188879, 0.050709184, 0.13347632, 0.8428335
674, 196982968, 0.51134497, 0.0498261, 0.13423704, 0.8473632
675, 196999635, 0.5038561, 0.04910452, 0.13535355, 0.8517026
676, 197016302, 0.49646983, 0.048174836, 0.1359193, 0.8559924
677, 197032969, 0.48924512, 0.046662264, 0.13560563, 0.860275
678, 197049636, 0.48215693, 0.045109432, 0.13518591, 0.86441576
679, 197066303, 0.47487903, 0.04387813, 0.1352628, 0.8684864
680, 197082970, 0.4676624, 0.042597838, 0.13504699, 0.87249047
681, 197099637, 0.46061388, 0.040959667, 0.13408373, 0.8764581
682, 197116304, 0.45375812, 0.03900261, 0.1328045, 0.8803098
683, 197132971, 0.44697174, 0.037045892, 0.1314099, 0.8840676
684, 197149638, 0.4398039, 0.035722535, 0.13070865, 0.88781285
685, 197166305, 0.4322399, 0.034846973, 0.13076359, 0.8915466
686, 197182972, 0.4249148, 0.03358808, 0.13004822, 0.8952135
687, 197199639, 0.4180685, 0.031765874, 0.12808146, 0.89877975
688, 197216306, 0.41125166, 0.0299355, 0.12577587, 0.90230626
689, 197232973, 0.40402827, 0.028715752, 0.124733426, 0.90574735
690, 197249640, 0.39669976, 0.027820153, 0.12473472, 0.9090087
691, 197266307, 0.3897828, 0.026509708, 0.12401476, 0.91213334
692, 197282974, 0.38329002, 0.024585411, 0.121992506, 0.9152062
693, 197299641, 0.37668774, 0.022827974, 0.120101064, 0.91823804
694, 197316308, 0.36984593, 0.021464119, 0.11946365, 0.9211307
695, 197332975, 0.3631924, 0.020326693, 0.119222835, 0.92383134
696, 197349642, 0.35659721, 0.019452505, 0.119430654, 0.92638904
697, 197366309, 0.3497714, 0.018636862, 0.12018122, 0.9289076
698, 197382976, 0.3428791, 0.017559865, 0.12080769, 0.93141365
699, 197399643, 0.33631867, 0.016200408, 0.12055706, 0.9338594
700, 197416310, 0.3298998, 0.01466208, 0.11996243, 0.936248
701, 197432977, 0.32344997, 0.013031531, 0.11925877, 0.93860954
702, 197449644, 0.31710154, 0.011277742, 0.118806385, 0.940853
703, 197466311, 0.3111084, 0.0093701575, 0.11820658, 0.9429481
704, 197482978, 0.30525404, 0.0076247817, 0.117590725, 0.9449521
705, 197499645, 0.29931504, 0.006088283, 0.11732534, 0.9468942
706, 197516312, 0.29333696, 0.0046325526, 0.11776403, 0.9487168
707, 197532979, 0.2875955, 0.0030221099, 0.11788306, 0.95046496
708, 197549646, 0.2819791, 0.0013777657, 0.117286965, 0.95222366
709, 197566313, 0.27626094, -7.9049205E-5, 0.11656537, 0.9539876
710, 197582980, 0.27062175, -0.001535683, 0.11622756, 0.95564264
711, 197599647, 0.26521787, -0.0031548194, 0.11522144, 0.9572742
712, 197616314, 0.2598105, -0.0047293836, 0.11383382, 0.9589152
713, 197632981, 0.25416753, -0.0061643575, 0.112262644, 0.960603
714, 197649648, 0.24853817, -0.007476015, 0.111034065, 0.9622081
715, 197666315, 0.24319878, -0.008652826, 0.109766684, 0.9637069
716, 197682982, 0.23797663, -0.009466113, 0.10893601, 0.9650961
717, 197699649, 0.23278444, -0.0101113105, 0.10917589, 0.9663281
718, 197716316, 0.22787887, -0.010733065, 0.110556774, 0.9673332
719, 197732983, 0.22370008, -0.011566605, 0.11185029, 0.96814984
720, 197749650, 0.22006245, -0.012432838, 0.11283084, 0.96885884
721, 197766317, 0.21672302, -0.013411595, 0.11373006, 0.9694931
722, 197782984, 0.2136448, -0.014771957, 0.11439183, 0.9700786
723, 197799651, 0.21094418, -0.016304804, 0.114159755, 0.97067213
724, 197816318, 0.20822228, -0.017562857, 0.11370404, 0.9712912
725, 197832985, 0.20525767, -0.01877458, 0.11343174, 0.9719313
726, 197849652, 0.2025565, -0.020128759, 0.11303165, 0.97251713
727, 197866319, 0.2002428, -0.021554174, 0.11217224, 0.9730652
728, 197882986, 0.19809866, -0.022774814, 0.11147897, 0.9735558
729, 197899653, 0.19578716, -0.023735905, 0.111428715, 0.9740061
730, 197916320, 0.19368148, -0.024739716, 0.11175541, 0.9743647
731, 197932987, 0.19207859, -0.025815772, 0.11126648, 0.9747099
732, 197949654, 0.19069214, -0.026690701, 0.110972725, 0.97499204
733, 197966321, 0.18920396, -0.027306056, 0.11129814, 0.97522783
734, 197982988, 0.1879079, -0.027790993, 0.11217936, 0.9753637
735, 197999655, 0.18712653, -0.028438272, 0.11231256, 0.9754799
736, 198016322, 0.18659468, -0.029083766, 0.11188387, 0.975612
737, 198032989, 0.18615088, -0.029542563, 0.11172171, 0.9757016
738, 198049656, 0.18588476, -0.030044185, 0.112065695, 0.97569764
739, 198066323, 0.18600427, -0.030557374, 0.11247807, 0.9756113
740, 198082990, 0.18634509, -0.030827837, 0.11295493, 0.97548264
741, 198099657, 0.18661274, -0.030890506, 0.11386316, 0.9753239
742, 198116324, 0.18669161, -0.030956162, 0.11507337, 0.9751646
743, 198132991, 0.1870849, -0.0310427, 0.11574569, 0.975007
744, 198149658, 0.18775481, -0.031065278, 0.11561082, 0.9748935
745, 198166325, 0.18831323, -0.031003833, 0.11618981, 0.97471887
746, 198182992, 0.18876007, -0.030905139, 0.117407545, 0.9744896
747, 198199659, 0.18943496, -0.030880613, 0.11814358, 0.9742705
748, 198216326, 0.19038525, -0.030950217, 0.11821514, 0.97407436
749, 198232993, 0.19124201, -0.031051876, 0.11839274, 0.9738817
750, 198249660, 0.19200628, -0.031083275, 0.11906732, 0.97364813
751, 198266327, 0.19279918, -0.03099543, 0.11986943, 0.97339576
752, 198282994, 0.19353057, -0.030791823, 0.120541856, 0.973174
753, 198299661, 0.19404304, -0.030539554, 0.120974414, 0.9730262
754, 198316328, 0.19438125, -0.030407852, 0.12113308, 0.972943
755, 198332995, 0.19478486, -0.03039658, 0.12073991, 0.97291154
756, 198349662, 0.19517764, -0.030312765, 0.12045128, 0.9728713
757, 198366329, 0.19554484, -0.030150296, 0.12037799, 0.9728116
758, 198382996, 0.19595154, -0.02998841, 0.12051927, 0.9727172
759, 198399663, 0.1964323, -0.029822275, 0.12068768, 0.9726045
760, 198416330, 0.19709226, -0.029765379, 0.12067723, 0.97247404
761, 198432997, 0.198173, -0.029889079, 0.12052834, 0.97226906
762, 198449664, 0.1998004, -0.030055175, 0.120237, 0.97196686
763, 198466331, 0.20173141, -0.030077802, 0.120131865, 0.97158015
764, 198482998, 0.20386234, -0.02996895, 0.12070239, 0.9710681
765, 198499665, 0.20624395, -0.029815756, 0.121443756, 0.9704772
766, 198516332, 0.20885944, -0.029717859, 0.121908545, 0.96986246
767, 198532999, 0.21168205, -0.029563649, 0.12189152, 0.9692572
768, 198549666, 0.21453886, -0.029374337, 0.12203298, 0.96861684
769, 198566333, 0.21745032, -0.028976439, 0.12262473, 0.9679045
770, 198583000, 0.22045076, -0.02840797, 0.1236179, 0.9671159
771, 198599667, 0.22355577, -0.02784922, 0.124298856, 0.9663317
772, 198616334, 0.22668062, -0.02711314, 0.12482508, 0.96555656
773, 198633001, 0.22985785, -0.026342027, 0.12550071, 0.96473885
774, 198649668, 0.233219, -0.025565177, 0.12607892, 0.96387744
775, 198666335, 0.23686157, -0.024999827, 0.12570128, 0.9630529
776, 198683002, 0.24095206, -0.024868615, 0.12392973, 0.96227086
777, 198699669, 0.24579921, -0.02505343, 0.121182315, 0.9613896
778, 198716336, 0.25129992, -0.02532593, 0.11839144, 0.9603076
779, 198733003, 0.25746712, -0.02537654, 0.11644187, 0.9589099
780, 198749670, 0.26406163, -0.025166634, 0.115177676, 0.95727336
781, 198766337, 0.27081022, -0.02467475, 0.11500928, 0.95541936
782, 198783004, 0.27774554, -0.024068005, 0.11535669, 0.9533999
783, 198799671, 0.28490248, -0.023269666, 0.116011485, 0.9512258
784, 198816338, 0.2921936, -0.022507267, 0.11645884, 0.94897515
785, 198833005, 0.29957443, -0.021770304, 0.11676163, 0.9466509
786, 198849672, 0.30700547, -0.020939915, 0.11674092, 0.94428855
787, 198866339, 0.31447953, -0.019977212, 0.116877906, 0.9418298
788, 198883006, 0.3219878, -0.018928654, 0.117121175, 0.93928087
789, 198899673, 0.32963327, -0.01800805, 0.11705395, 0.9366515
790, 198916340, 0.33741897, -0.017047532, 0.11678982, 0.9339262
791, 198933007, 0.3450854, -0.015694017, 0.11714529, 0.9310998
792, 198949674, 0.35259685, -0.01415711, 0.11832382, 0.9281567
793, 198966341, 0.3606466, -0.013004053, 0.11896943, 0.92499256
794, 198983008, 0.368978, -0.012068391, 0.11868331, 0.9217505
795, 198999675, 0.3770928, -0.010908819, 0.11829633, 0.91852504
796, 199016342, 0.38487875, -0.009767937, 0.11855596, 0.9152692
797, 199033009, 0.39339942, -0.009155413, 0.11801201, 0.9117163
798, 199049676, 0.40249434, -0.009202595, 0.1164256, 0.9079421
799, 199066343, 0.41179496, -0.0090149725, 0.11522433, 0.9039176
800, 199083010, 0.42084438, -0.008095092, 0.11542229, 0.8997235
801, 199099677, 0.4298951, -0.0069848225, 0.11614148, 0.8953506
802, 199116344, 0.43905157, -0.0062066023, 0.11632371, 0.8908783
803, 199133011, 0.44825825, -0.0055727297, 0.115777254, 0.8863573
804, 199149678, 0.45719552, -0.0047559096, 0.11497185, 0.8818907
805, 199166345, 0.465831, -0.0040369164, 0.114194244, 0.8774652
806, 199183012, 0.4745561, -0.0035421029, 0.11326301, 0.87290066
807, 199199679, 0.4832851, -0.0030998047, 0.11208523, 0.8682528
808, 199216346, 0.49172392, -0.0023894932, 0.111210145, 0.863617
809, 199233013, 0.49986303, -0.0016821913, 0.110265106, 0.85905534
810, 199249680, 0.50805587, -0.0012450973, 0.10874613, 0.85443085
811, 199266347, 0.516355, -0.0012408771, 0.10664302, 0.84970784
812, 199283014, 0.5247205, -0.0010892507, 0.10483447, 0.8447943
813, 199299681, 0.53279465, 1.893075E-5, 0.10451395, 0.83976597
814, 199316348, 0.5405904, 0.0015018564, 0.105066344, 0.8346983
815, 199333015, 0.5485514, 0.0024104198, 0.10497129, 0.82949805
816, 199349682, 0.55663633, 0.002997824, 0.10395386, 0.8242212
817, 199366349, 0.5644255, 0.0039812964, 0.10312644, 0.81900734
818, 199383016, 0.5718464, 0.005125537, 0.10277853, 0.81388086
819, 199399683, 0.57930034, 0.005933376, 0.10206354, 0.8086774
820, 199416350, 0.5867419, 0.0065104794, 0.100823835, 0.80344653
821, 199433017, 0.5939886, 0.0074715777, 0.09978615, 0.798226
822, 199449684, 0.60074747, 0.00917595, 0.09946541, 0.793174
823, 199466351, 0.60741866, 0.010707416, 0.099255756, 0.788084
824, 199483018, 0.61439556, 0.011249761, 0.09783428, 0.7828284
825, 199499685, 0.62138164, 0.011875558, 0.09644548, 0.7774588
826, 199516352, 0.62809, 0.013487543, 0.0962194, 0.7720512
827, 199533019, 0.63492036, 0.015022303, 0.09627974, 0.7664079
828, 199549686, 0.64210695, 0.01537835, 0.09504975, 0.7605444
829, 199566353, 0.6491669, 0.015388034, 0.09315129, 0.754764
830, 199583020, 0.6556769, 0.016164716, 0.09197344, 0.74924487
831, 199599687, 0.6617906, 0.017539492, 0.09173581, 0.7438482
832, 199616354, 0.66801816, 0.018162958, 0.09063554, 0.73838145
833, 199633021, 0.67422146, 0.018180946, 0.08861995, 0.7329676
834, 199649688, 0.6801769, 0.018630028, 0.08696197, 0.7276332
835, 199666355, 0.68576247, 0.019882986, 0.08632252, 0.7224147
836, 199683022, 0.6914214, 0.020743828, 0.08539876, 0.7170868
837, 199699689, 0.69700235, 0.020671941, 0.08341384, 0.7119008
838, 199716356, 0.7023405, 0.020561526, 0.081464164, 0.70686543
839, 199733023, 0.70736057, 0.021022823, 0.08013715, 0.70198095
840, 199749690, 0.7122291, 0.022088215, 0.07962352, 0.6970668
841, 199766357, 0.717374, 0.022444945, 0.07879861, 0.69185394
842, 199783024, 0.72286195, 0.021652805, 0.07678958, 0.68637127
843, 199799691, 0.7283845, 0.02103266, 0.07486734, 0.68074125
844, 199816358, 0.73373014, 0.021408793, 0.073827066, 0.6750788
845, 199833025, 0.73911864, 0.02217711, 0.07344033, 0.66919243
846, 199849692, 0.74457955, 0.022850148, 0.07293293, 0.6631441
847, 199866359, 0.74992514, 0.023935726, 0.07271712, 0.65707827
848, 199883026, 0.7552652, 0.02510648, 0.0728183, 0.6508778
849, 199899693, 0.7609297, 0.025492411, 0.07248813, 0.64426845
850, 199916360, 0.7666038, 0.025506591, 0.071851455, 0.63757783
851, 199933027, 0.77206415, 0.026473925, 0.07193552, 0.63090533
852, 199949694, 0.7773577, 0.027931204, 0.07260259, 0.6242306
853, 199966361, 0.7830378, 0.028094003, 0.07230067, 0.6171188
854, 199983028, 0.78893536, 0.027033707, 0.07088185, 0.6097754
855, 199999695, 0.7947337, 0.026416615, 0.069621526, 0.6023734
856, 200016362, 0.80025953, 0.02691999, 0.06923856, 0.5950346
857, 200033029, 0.80592847, 0.027649125, 0.06914735, 0.58731055
858, 200049696, 0.81188816, 0.026985336, 0.06795466, 0.57921654
859, 200066363, 0.8179087, 0.026148932, 0.06645475, 0.57089895
860, 200083030, 0.8237499, 0.026439087, 0.06567099, 0.5625165
861, 200099697, 0.8293712, 0.028384687, 0.0660788, 0.55405027
862, 200116364, 0.83506614, 0.030372687, 0.066567, 0.5452624
863, 200133031, 0.8408333, 0.031584114, 0.06632745, 0.5362864
864, 200149698, 0.84643745, 0.0333736, 0.06622007, 0.5272999
865, 200166365, 0.8522092, 0.03665027, 0.06720041, 0.5175721
866, 200183032, 0.85817635, 0.03962606, 0.06833457, 0.5072415
867, 200199699, 0.8640589, 0.040944885, 0.06821755, 0.49706358
868, 200216366, 0.86910087, 0.042804692, 0.06831334, 0.48802185
869, 200233033, 0.8739513, 0.04577781, 0.06906112, 0.47889915
870, 200249700, 0.87869257, 0.049521904, 0.0704533, 0.469557
871, 200266367, 0.88345516, 0.052926455, 0.07153405, 0.45998812
872, 200283034, 0.8880328, 0.056743864, 0.072559714, 0.4504589
873, 200299701, 0.8923741, 0.061424818, 0.07416235, 0.44090343
874, 200316368, 0.8968458, 0.06485166, 0.075921334, 0.4309272
875, 200333035, 0.9015826, 0.06584019, 0.07639947, 0.42068717
876, 200349702, 0.9061695, 0.06645258, 0.07632492, 0.41062889
877, 200366369, 0.9105733, 0.06716705, 0.076096736, 0.40069237
878, 200383036, 0.91479295, 0.06812311, 0.076168045, 0.3907838
879, 200399703, 0.9187762, 0.069486804, 0.076407366, 0.3810307
880, 200416370, 0.922539, 0.07105978, 0.076366134, 0.3715387
881, 200433037, 0.92612165, 0.07291713, 0.07605841, 0.3622116
882, 200449704, 0.9296028, 0.074757546, 0.07581158, 0.35285002
883, 200466371, 0.9331684, 0.07554139, 0.075207025, 0.34327027
884, 200483038, 0.9366313, 0.07569737, 0.07410613, 0.33391684
885, 200499705, 0.9399208, 0.07614866, 0.0728789, 0.32471392
886, 200516372, 0.9429787, 0.0768892, 0.07180779, 0.31579015
887, 200533039, 0.945909, 0.07744879, 0.07104132, 0.3069388
888, 200549706, 0.948933, 0.07669224, 0.069767445, 0.29795536
889, 200566373, 0.95188093, 0.07570094, 0.06828701, 0.28901467
890, 200583040, 0.95463747, 0.075476475, 0.06705038, 0.28013456
891, 200599707, 0.9572698, 0.0761026, 0.066290475, 0.2710145
892, 200616374, 0.95999086, 0.07595653, 0.065375455, 0.2614849
893, 200633041, 0.9626839, 0.07535102, 0.06408023, 0.25190473
894, 200649708, 0.9653475, 0.074449256, 0.06269731, 0.24213877
895, 200666375, 0.96782017, 0.074201725, 0.06154987, 0.23244418
896, 200683042, 0.9700844, 0.074810565, 0.06067374, 0.22284248
897, 200699709, 0.97226775, 0.07515112, 0.059523165, 0.21331972
898, 200716376, 0.97439426, 0.07511224, 0.05813993, 0.20379962
899, 200733043, 0.9764296, 0.07510332, 0.056687716, 0.19424652
900, 200749710, 0.9783037, 0.07553434, 0.05552365, 0.1847543
901, 200766377, 0.9801085, 0.07540226, 0.05429366, 0.17536959
902, 200783044, 0.98181224, 0.07533794, 0.05304174, 0.16599993
903, 200799711, 0.98336786, 0.076108985, 0.052002378, 0.15649664
904, 200816378, 0.9847894, 0.07754199, 0.05144875, 0.14673322
905, 200833045, 0.98625916, 0.077845335, 0.05077205, 0.13658524
906, 200849712, 0.9877041, 0.07740065, 0.05002047, 0.12628616
907, 200866379, 0.98904675, 0.07717115, 0.04934257, 0.11574555
908, 200883046, 0.9901435, 0.07839687, 0.048863012, 0.10527327
909, 200899713, 0.99108034, 0.08009435, 0.048261985, 0.09495137
910, 200916380, 0.9918738, 0.08200482, 0.047382038, 0.08495259
911, 200933047, 0.9925165, 0.08443385, 0.046419427, 0.075017266
912, 200949714, 0.9929609, 0.087695755, 0.045676284, 0.06520819
913, 200966381, 0.9933378, 0.090520725, 0.045054037, 0.05528487
914, 200983048, 0.99373424, 0.09201054, 0.044118103, 0.045610465
915, 200999715, 0.99414796, 0.0923822, 0.0429387, 0.035942588
916, 201016382, 0.9945669, 0.09166928, 0.041684166, 0.02638813
917, 201033049, 0.99497145, 0.08999581, 0.040567752, 0.01694468
918, 201049716, 0.9955168, 0.085735805, 0.039255053, 0.0074348673
919, 201066383, 0.99621093, 0.07832561, 0.037752323, -0.0019908075
920, 201083050, 0.99687463, 0.069200516, 0.03641591, -0.011247549
921, 201099717, 0.9972625, 0.061664443, 0.035445314, -0.020222692
922, 201116384, 0.997335, 0.057208445, 0.034714248, -0.029074552
923, 201133051, 0.9971876, 0.054999195, 0.033984654, -0.037913
924, 201149718, 0.9968233, 0.055266537, 0.033141468, -0.046808723
925, 201166385, 0.9961722, 0.05929703, 0.03221934, -0.055561565
926, 201183052, 0.9953746, 0.0634591, 0.031582244, -0.06484816
927, 201199719, 0.9946355, 0.06476443, 0.03111064, -0.07441953
928, 201216386, 0.9938557, 0.06502757, 0.030883767, -0.08407596
929, 201233053, 0.99295914, 0.06564963, 0.031044653, -0.09358997
930, 201249720, 0.9919326, 0.06699047, 0.031332456, -0.102960005
931, 201266387, 0.9908722, 0.06829193, 0.03121831, -0.11195671
932, 201283054, 0.98958755, 0.07292055, 0.030560961, -0.120273545
933, 201299721, 0.9879634, 0.08088912, 0.029953059, -0.12840743
934, 201316388, 0.98616505, 0.0887886, 0.03019026, -0.13668959
935, 201333055, 0.98445696, 0.09429214, 0.030883562, -0.14491433
936, 201349722, 0.9828252, 0.09871127, 0.03140812, -0.15272485
937, 201366389, 0.9812024, 0.10345608, 0.031962313, -0.15974177
938, 201383056, 0.9796567, 0.1065039, 0.033143017, -0.1668286
939, 201399723, 0.978257, 0.107537635, 0.034193065, -0.17401206
940, 201416390, 0.97691464, 0.10836804, 0.034826025, -0.18078066
941, 201433057, 0.97541755, 0.110354416, 0.035367392, -0.18743554
942, 201449724, 0.9738727, 0.11209356, 0.035877798, -0.19421719
943, 201466391, 0.9723261, 0.11363281, 0.036187224, -0.200899
944, 201483058, 0.9706904, 0.11608738, 0.03598432, -0.20733936
945, 201499725, 0.9689597, 0.119157664, 0.035646513, -0.21365467
946, 201516392, 0.96711355, 0.12301611, 0.035235353, -0.21981199
947, 201533059, 0.9653235, 0.12580842, 0.034746677, -0.22608812
948, 201549726, 0.9638426, 0.12652354, 0.034462906, -0.2319744
949, 201566393, 0.9625113, 0.12695633, 0.03398434, -0.23727506
950, 201583060, 0.96113044, 0.12830697, 0.033461384, -0.2421702
951, 201599727, 0.9596476, 0.13052395, 0.03253302, -0.24694525
952, 201616394, 0.95834416, 0.13230671, 0.031368803, -0.25117344
953, 201633061, 0.9572774, 0.13346206, 0.030320385, -0.25473318
954, 201649728, 0.95629495, 0.13375697, 0.029894846, -0.25829396
955, 201666395, 0.95551455, 0.13260715, 0.029817283, -0.2617606
956, 201683062, 0.9548923, 0.1312109, 0.029576847, -0.26474488
957, 201699729, 0.95427406, 0.13151857, 0.029059995, -0.26687035
958, 201716396, 0.95361876, 0.13321863, 0.028836137, -0.2683892
959, 201733063, 0.9529577, 0.1353121, 0.028624179, -0.26970977
960, 201749730, 0.95237935, 0.13713622, 0.028435176, -0.27084866
961, 201766397, 0.95192635, 0.13847756, 0.028339338, -0.27176696
962, 201783064, 0.9516227, 0.13921165, 0.02854368, -0.2724328
963, 201799731, 0.95147264, 0.13919847, 0.028809382, -0.27293596
964, 201816398, 0.9513947, 0.13911656, 0.028741812, -0.2732563
965, 201833065, 0.9514437, 0.13889615, 0.02846649, -0.2732268
966, 201849732, 0.9516645, 0.13796724, 0.028290363, -0.2729465
967, 201866399, 0.9520562, 0.13539444, 0.028721446, -0.27282384
968, 201883066, 0.95254946, 0.13293067, 0.029391207, -0.27224156
969, 201899733, 0.9529887, 0.13231798, 0.029764682, -0.2709597
970, 201916400, 0.95338553, 0.13277018, 0.030230062, -0.26928502
971, 201933067, 0.9539003, 0.13200772, 0.030999342, -0.2677454
972, 201949734, 0.9546346, 0.12943023, 0.03206463, -0.26625752
973, 201966401, 0.9553765, 0.12652065, 0.033230256, -0.26484782
974, 201983068, 0.9558896, 0.124936566, 0.03406334, -0.26364005
975, 201999735, 0.9561686, 0.124709904, 0.034450207, -0.26268324
976, 202016402, 0.95637536, 0.12514134, 0.034517813, -0.26171452
977, 202033069, 0.95676374, 0.12426418, 0.03484265, -0.26066825
978, 202049736, 0.9572999, 0.12167877, 0.035815697, -0.25978613
979, 202066403, 0.9577815, 0.1194972, 0.0368764, -0.25887364
980, 202083070, 0.9582105, 0.11885895, 0.03753151, -0.25748193
981, 202099737, 0.95859843, 0.11993111, 0.037813306, -0.25549248
982, 202116404, 0.9589426, 0.12113244, 0.038341075, -0.2535476
983, 202133071, 0.9592968, 0.122201174, 0.03915535, -0.2515627
984, 202149738, 0.95969266, 0.123683795, 0.03989822, -0.24920021
985, 202166405, 0.9602419, 0.124673925, 0.04072995, -0.24644104
986, 202183072, 0.9609789, 0.124699585, 0.04179493, -0.24335806
987, 202199739, 0.9619539, 0.12380576, 0.04293837, -0.23973624
988, 202216406, 0.96304226, 0.123333685, 0.04392996, -0.23539129
989, 202233073, 0.96420425, 0.12303924, 0.044982646, -0.2305396
990, 202249740, 0.9655286, 0.12208461, 0.046109546, -0.22522017
991, 202266407, 0.9669635, 0.12121333, 0.047096305, -0.2192516
992, 202283074, 0.9684139, 0.12098377, 0.04814324, -0.21265043
993, 202299741, 0.9698952, 0.12044518, 0.049513407, -0.20577905
994, 202316408, 0.97144425, 0.11911922, 0.05091705, -0.19878253
995, 202333075, 0.97299266, 0.11778173, 0.05223062, -0.19153373
996, 202349742, 0.9745264, 0.11663578, 0.053585574, -0.18391171
997, 202366409, 0.9760068, 0.11560352, 0.05505594, -0.17611338
998, 202383076, 0.9774805, 0.11406144, 0.05654446, -0.16830102
999, 202399743, 0.9790046, 0.11178863, 0.058008697, -0.16027677
1000, 202416410, 0.98049945, 0.10946545, 0.059486132, -0.15198672
1001, 202433077, 0.9819179, 0.107100785, 0.061115228, -0.14363725
1002, 202449744, 0.98317325, 0.105299406, 0.0627519, -0.13544276
1003, 202466411, 0.9843375, 0.10366262, 0.06426127, -0.12729618
1004, 202483078, 0.9853838, 0.1024949, 0.06563468, -0.119188376
1005, 202499745, 0.986287, 0.10213922, 0.066987306, -0.11098849
1006, 202516412, 0.98702455, 0.102486126, 0.06850645, -0.10288939
1007, 202533079, 0.9877934, 0.101487, 0.070232056, -0.09503888
1008, 202549746, 0.98859876, 0.09949287, 0.071940616, -0.08716894
1009, 202566413, 0.98932964, 0.097782925, 0.07361457, -0.079036556
1010, 202583080, 0.9898945, 0.09698572, 0.075533144, -0.070695914
1011, 202599747, 0.99046135, 0.09534613, 0.07743741, -0.06244652
1012, 202616414, 0.99106777, 0.092751764, 0.07906375, -0.05413902
1013, 202633081, 0.99161506, 0.09022065, 0.08050639, -0.045594808
1014, 202649748, 0.9920628, 0.08792742, 0.08198008, -0.036877166
1015, 202666415, 0.99248374, 0.08514096, 0.08330046, -0.028079625
1016, 202683082, 0.9928218, 0.08261335, 0.08441086, -0.018841255
1017, 202699749, 0.99314445, 0.07931286, 0.08538207, -0.009161183
1018, 202716416, 0.9934614, 0.0749005, 0.086160034, 0.0011239203
1019, 202733083, 0.99371547, 0.069510475, 0.08691946, 0.0119705675
1020, 202749750, 0.993884, 0.0633492, 0.087436564, 0.023165118
1021, 202766417, 0.9938462, 0.05797147, 0.08790865, 0.03437321
1022, 202783084, 0.99361527, 0.05337658, 0.08840017, 0.045446135
1023, 202799751, 0.993232, 0.049475778, 0.08867527, 0.056386333
1024, 202816418, 0.9926583, 0.04677531, 0.08882793, 0.06746443
1025, 202833085, 0.99193907, 0.044324685, 0.088966355, 0.078598335
1026, 202849752, 0.9911204, 0.04124717, 0.0890095, 0.089758866
1027, 202866419, 0.9901862, 0.0378321, 0.08894693, 0.100940965
1028, 202883086, 0.9890918, 0.035237364, 0.08874986, 0.112159744
1029, 202899753, 0.9878, 0.03427873, 0.08860525, 0.12339219
1030, 202916420, 0.9863351, 0.034263127, 0.08859029, 0.13461566
1031, 202933087, 0.9847461, 0.0338361, 0.088638894, 0.14585525
1032, 202949754, 0.9831029, 0.032800343, 0.08834194, 0.1569357
1033, 202966421, 0.98134726, 0.031753965, 0.08783104, 0.16803324
1034, 202983088, 0.97941816, 0.03173128, 0.08754231, 0.17908098
1035, 202999755, 0.9773263, 0.03224305, 0.08733953, 0.19017363
1036, 203016422, 0.9750967, 0.03287165, 0.08710953, 0.20129089
1037, 203033089, 0.97280854, 0.033393946, 0.08691161, 0.21207306
1038, 203049756, 0.97044235, 0.033966493, 0.08692533, 0.22255845
1039, 203066423, 0.9680215, 0.034465525, 0.08724732, 0.23266913
1040, 203083090, 0.9655817, 0.03438063, 0.08754663, 0.2424996
1041, 203099757, 0.9630753, 0.03415751, 0.08784551, 0.25219622
1042, 203116424, 0.96047544, 0.034103647, 0.0882538, 0.26179323
1043, 203133091, 0.95775574, 0.034162547, 0.08891369, 0.27135098
1044, 203149758, 0.9550119, 0.0336913, 0.08946685, 0.28073713
1045, 203166425, 0.95219654, 0.032700446, 0.089754194, 0.29016697
1046, 203183092, 0.94925606, 0.031758178, 0.090315446, 0.29957932
1047, 203199759, 0.946232, 0.030937286, 0.09108484, 0.3088557
1048, 203216426, 0.9431421, 0.030837301, 0.09209022, 0.31788617
1049, 203233093, 0.93999714, 0.030982127, 0.09322266, 0.32673407
1050, 203249760, 0.9368854, 0.030831885, 0.09437891, 0.33524328
1051, 203266427, 0.9337232, 0.031018201, 0.095871, 0.34352252
1052, 203283094, 0.9305132, 0.031524394, 0.09754368, 0.35162035
1053, 203299761, 0.92724156, 0.031598065, 0.09908173, 0.35973305
1054, 203316428, 0.92395073, 0.031614497, 0.100539856, 0.3677058
1055, 203333095, 0.9206496, 0.03163639, 0.10203664, 0.3754894
1056, 203349762, 0.9173259, 0.031575773, 0.10372279, 0.38309017
1057, 203366429, 0.9140984, 0.030530415, 0.1050114, 0.3904679
1058, 203383096, 0.9109122, 0.028142283, 0.10551874, 0.39788583
1059, 203399763, 0.907666, 0.025065973, 0.10551252, 0.40544018
1060, 203416430, 0.90431684, 0.022337576, 0.10547063, 0.4130232
1061, 203433097, 0.90071964, 0.0209157, 0.10589985, 0.4207757
1062, 203449764, 0.89680296, 0.021125566, 0.107005835, 0.42877516
1063, 203466431, 0.8925389, 0.023186028, 0.1090191, 0.43698063
1064, 203483098, 0.8880325, 0.027193068, 0.11168271, 0.44518113
1065, 203499765, 0.88326114, 0.031056153, 0.11428317, 0.4536793
1066, 203516432, 0.8788663, 0.031982586, 0.11543019, 0.46178693
1067, 203533099, 0.8747809, 0.030536, 0.115545295, 0.46954843
1068, 203549766, 0.8707595, 0.028482167, 0.11539847, 0.47712702
1069, 203566433, 0.8666764, 0.026949301, 0.1155072, 0.48456603
1070, 203583100, 0.86287016, 0.024940673, 0.11540845, 0.49144104
1071, 203599767, 0.8596356, 0.021876078, 0.11476077, 0.49737164
1072, 203616434, 0.8571544, 0.018994845, 0.11372526, 0.5019884
1073, 203633101, 0.85554844, 0.017202985, 0.11286076, 0.50497925
1074, 203649768, 0.85444987, 0.016618887, 0.112510055, 0.5069329
1075, 203666435, 0.8537094, 0.017504647, 0.11319479, 0.5079973
1076, 203683102, 0.853167, 0.019091042, 0.114394754, 0.5085821
1077, 203699769, 0.85291207, 0.02050101, 0.11530086, 0.50875026
1078, 203716436, 0.85282505, 0.021648355, 0.11571052, 0.50875545
1079, 203733103, 0.8526854, 0.023063015, 0.116124816, 0.5088331
1080, 203749770, 0.8523328, 0.025002338, 0.11681056, 0.50917506
1081, 203766437, 0.8519446, 0.026409497, 0.117073774, 0.50969315
1082, 203783104, 0.85169077, 0.026184738, 0.11616378, 0.51033676
1083, 203799771, 0.85156584, 0.024719385, 0.114440106, 0.5110072
1084, 203816438, 0.85171956, 0.02321754, 0.113109946, 0.51111764
1085, 203833105, 0.8521528, 0.022523375, 0.11274895, 0.51050603
1086, 203849772, 0.85278076, 0.022675654, 0.11297062, 0.5094004
1087, 203866439, 0.8534056, 0.0235785, 0.113494396, 0.50819516
1088, 203883106, 0.85394883, 0.025313133, 0.11446272, 0.50698054
1089, 203899773, 0.8545488, 0.026315007, 0.11498113, 0.5058
1090, 203916440, 0.8555044, 0.024529038, 0.11372815, 0.504556
1091, 203933107, 0.85654676, 0.021378603, 0.11137135, 0.5034554
1092, 203949774, 0.85731244, 0.019140592, 0.109582275, 0.5026342
1093, 203966441, 0.8575827, 0.01943383, 0.109349184, 0.5022124
1094, 203983108, 0.8577023, 0.020939937, 0.10985956, 0.5018361
1095, 203999775, 0.85799193, 0.021847906, 0.10973264, 0.5013299
1096, 204016442, 0.85825235, 0.022979928, 0.10948042, 0.5008885
1097, 204033109, 0.8583275, 0.025021689, 0.10957176, 0.5006417
1098, 204049776, 0.8583021, 0.027066689, 0.1096708, 0.5005571
1099, 204066443, 0.8583993, 0.028024532, 0.10905301, 0.5004729
1100, 204083110, 0.85844684, 0.028994024, 0.1081522, 0.5005317
1101, 204099777, 0.85829467, 0.031154871, 0.107546024, 0.50079334
1102, 204116444, 0.8579862, 0.034197874, 0.107307695, 0.50117415
1103, 204133111, 0.85768473, 0.03702347, 0.10704108, 0.50154626
1104, 204149778, 0.85739416, 0.039595757, 0.1061877, 0.5020278
1105, 204166445, 0.85688895, 0.04224866, 0.10511708, 0.50289875
1106, 204183112, 0.8562662, 0.044757206, 0.10404991, 0.5039632
1107, 204199779, 0.8557159, 0.046618022, 0.102766246, 0.5049919
1108, 204216446, 0.8551983, 0.04873917, 0.101715684, 0.50588024
1109, 204233113, 0.8545846, 0.05196253, 0.10148263, 0.50664276
1110, 204249780, 0.85381174, 0.055274863, 0.10168937, 0.5075526
1111, 204266447, 0.853445, 0.056971695, 0.10132604, 0.50805455
1112, 204283114, 0.85346127, 0.056648448, 0.099958025, 0.508334
1113, 204299781, 0.85348433, 0.056187656, 0.09867806, 0.50859654
1114, 204316448, 0.8534174, 0.056192324, 0.09813344, 0.5088137
1115, 204333115, 0.85351765, 0.056336053, 0.097796276, 0.50869477
1116, 204349782, 0.85368073, 0.05739844, 0.09797382, 0.50826794
1117, 204366449, 0.85385084, 0.05883718, 0.09850138, 0.50771546
1118, 204383116, 0.8542128, 0.059348922, 0.098608516, 0.50702566
1119, 204399783, 0.85455394, 0.05933132, 0.098714985, 0.5064317
1120, 204416450, 0.85493934, 0.05911873, 0.09884544, 0.50578016
1121, 204433117, 0.85524714, 0.059493493, 0.09934317, 0.5051179
1122, 204449784, 0.8555321, 0.06037324, 0.10023317, 0.5043549
1123, 204466451, 0.8558314, 0.061301667, 0.10128581, 0.5035239
1124, 204483118, 0.85603607, 0.062619165, 0.102495946, 0.50276834
1125, 204499785, 0.8561294, 0.064166516, 0.10389184, 0.5021271
1126, 204516452, 0.8564164, 0.06466358, 0.10457137, 0.50143266
1127, 204533119, 0.85683954, 0.064435065, 0.104894176, 0.5006713
1128, 204549786, 0.85723, 0.064846925, 0.10569498, 0.4997804
1129, 204566453, 0.8573087, 0.067108996, 0.10773423, 0.49891075
1130, 204583120, 0.8573098, 0.07004632, 0.11004095, 0.49800107
1131, 204599787, 0.8575246, 0.07172621, 0.11151077, 0.49706388
1132, 204616454, 0.8577674, 0.07320414, 0.11312423, 0.4960641
1133, 204633121, 0.8576973, 0.07650994, 0.11596141, 0.49503013
1134, 204649788, 0.8571146, 0.082396865, 0.12050757, 0.49400756
1135, 204666455, 0.85611486, 0.09012994, 0.12612079, 0.49298865
1136, 204683122, 0.8548606, 0.09828691, 0.13198087, 0.49207136
1137, 204699789, 0.853529, 0.10652249, 0.1378996, 0.49104512
1138, 204716456, 0.852065, 0.11435072, 0.14339639, 0.49025187
1139, 204733123, 0.8507532, 0.120951526, 0.14807595, 0.48955467
1140, 204749790, 0.8495565, 0.12686203, 0.15223077, 0.48886192
1141, 204766457, 0.84853935, 0.1320575, 0.15569615, 0.48816067
1142, 204783124, 0.84756684, 0.13664329, 0.15873292, 0.48760986
1143, 204799791, 0.84663314, 0.14118646, 0.16169164, 0.4869649
1144, 204816458, 0.8451086, 0.14803411, 0.16640191, 0.48599178
1145, 204833125, 0.84289473, 0.15762436, 0.17282782, 0.48457614
1146, 204849792, 0.8399358, 0.1687845, 0.18011867, 0.48329848
1147, 204866459, 0.837201, 0.17892325, 0.18627305, 0.4820618
1148, 204883126, 0.83507437, 0.18684992, 0.19081667, 0.48096493
1149, 204899793, 0.8337912, 0.19201834, 0.19411336, 0.47983518
1150, 204916460, 0.8327451, 0.19586283, 0.19716477, 0.47885275
1151, 204933127, 0.83124965, 0.20052585, 0.20080781, 0.47800615
1152, 204949794, 0.8286205, 0.20836014, 0.20627666, 0.47689036
1153, 204966461, 0.8250467, 0.21842098, 0.21274875, 0.47574005
1154, 204983128, 0.82092994, 0.22871488, 0.21859968, 0.47537154
1155, 204999795, 0.8170859, 0.2384353, 0.2235011, 0.474939
1156, 205016462, 0.8135991, 0.24826555, 0.22825891, 0.4736232
1157, 205033129, 0.80911696, 0.25988948, 0.23366754, 0.4724268
1158, 205049796, 0.8037111, 0.27321193, 0.24025802, 0.4708294
1159, 205066463, 0.7973724, 0.28779325, 0.24721873, 0.46931374
1160, 205083130, 0.7909355, 0.3021912, 0.2535422, 0.46778026
1161, 205099797, 0.78498626, 0.31575662, 0.2593745, 0.46563905
1162, 205116464, 0.778884, 0.32961535, 0.2653776, 0.46289152
1163, 205133131, 0.77149016, 0.34508014, 0.27214766, 0.46006373
1164, 205149798, 0.76318806, 0.36150253, 0.27913085, 0.4571064
1165, 205166465, 0.7549693, 0.37744242, 0.28549632, 0.4539283
1166, 205183132, 0.74704576, 0.39277565, 0.29128012, 0.45033997
1167, 205199799, 0.739552, 0.40719235, 0.29660273, 0.44641268
1168, 205216466, 0.73213017, 0.42107305, 0.30177414, 0.4422847
1169, 205233133, 0.72383535, 0.4355084, 0.30743814, 0.43803757
1170, 205249800, 0.71478677, 0.45000783, 0.31309074, 0.43422067
1171, 205266467, 0.7067314, 0.4627696, 0.31785527, 0.43051532
1172, 205283134, 0.7000456, 0.4738482, 0.3217056, 0.42650923
1173, 205299801, 0.69318515, 0.48485896, 0.3255561, 0.4223974
1174, 205316468, 0.6849225, 0.4969621, 0.32996902, 0.41836643
1175, 205333135, 0.6754022, 0.5097822, 0.3346249, 0.41470522
1176, 205349802, 0.666182, 0.5215571, 0.33863312, 0.41171333
1177, 205366469, 0.65834934, 0.531213, 0.341807, 0.40933746
1178, 205383136, 0.65180427, 0.53917074, 0.34423614, 0.407367
1179, 205399803, 0.6456269, 0.5464873, 0.34648815, 0.4055414
1180, 205416470, 0.63897675, 0.553931, 0.34884554, 0.40395084
1181, 205433137, 0.63186115, 0.56132096, 0.35116056, 0.40293515
1182, 205449804, 0.6253371, 0.5678035, 0.35292676, 0.4024868
1183, 205466471, 0.61925775, 0.57389075, 0.3541292, 0.4021966
1184, 205483138, 0.61273974, 0.58025885, 0.35533074, 0.40198284
1185, 205499805, 0.6068742, 0.58563256, 0.35645473, 0.4020929
1186, 205516472, 0.6025734, 0.58955824, 0.35647693, 0.402804
1187, 205533139, 0.5980621, 0.5934836, 0.35613257, 0.40406576
1188, 205549806, 0.5925908, 0.59799427, 0.35595497, 0.40562937
1189, 205566473, 0.587668, 0.60206366, 0.35516742, 0.40745807
1190, 205583140, 0.5833708, 0.60560596, 0.35381064, 0.40955892
1191, 205599807, 0.57821214, 0.60977817, 0.35246155, 0.41184077
1192, 205616474, 0.5724132, 0.61430806, 0.3511976, 0.4142817
1193, 205633141, 0.56737024, 0.6181483, 0.34935966, 0.41705143
1194, 205649808, 0.5630735, 0.6212407, 0.34715185, 0.42011216
1195, 205666475, 0.558327, 0.62451684, 0.34501445, 0.4233381
1196, 205683142, 0.5527448, 0.6282706, 0.34284618, 0.4268562
1197, 205699809, 0.5471727, 0.63177973, 0.3403233, 0.43085596
1198, 205716476, 0.54196984, 0.6347715, 0.33749518, 0.43523708
1199, 205733143, 0.53710103, 0.63739026, 0.33404508, 0.44007987
1200, 205749810, 0.5322274, 0.6397894, 0.33038527, 0.445252
1201, 205766477, 0.5271177, 0.6421015, 0.3267705, 0.4506371
1202, 205783144, 0.52206504, 0.6441998, 0.3228077, 0.4563447
1203, 205799811, 0.5165377, 0.6463989, 0.318748, 0.46233922
1204, 205816478, 0.5106513, 0.6486666, 0.31452248, 0.46855408
1205, 205833145, 0.5057809, 0.6501139, 0.3096289, 0.47504532
1206, 205849812, 0.50154436, 0.651029, 0.30418992, 0.48175043
1207, 205866479, 0.49671212, 0.65217173, 0.29886207, 0.48849854
1208, 205883146, 0.49137816, 0.65346146, 0.2934913, 0.4953776
1209, 205899813, 0.4860611, 0.6546289, 0.28780064, 0.5023713
1210, 205916480, 0.4805811, 0.65579313, 0.28205112, 0.5093375
1211, 205933147, 0.47530562, 0.6568219, 0.2760158, 0.51622194
1212, 205949814, 0.47037283, 0.6575173, 0.26979968, 0.5230955
1213, 205966481, 0.46523958, 0.6581831, 0.26347414, 0.5300273
1214, 205983148, 0.45978585, 0.65884423, 0.2571754, 0.53701264
1215, 205999815, 0.4543701, 0.6594201, 0.25079787, 0.5438877
1216, 206016482, 0.44886434, 0.65991265, 0.2442607, 0.5507933
1217, 206033149, 0.44335526, 0.6602114, 0.23764463, 0.5577476
1218, 206049816, 0.43742335, 0.66058385, 0.231125, 0.56468695
1219, 206066483, 0.43133768, 0.66090244, 0.2245462, 0.5716073
1220, 206083150, 0.42519486, 0.66107446, 0.21806511, 0.57847905
1221, 206099817, 0.41921246, 0.6609071, 0.21155049, 0.585414
1222, 206116484, 0.41343272, 0.66049814, 0.20513554, 0.5922292
1223, 206133151, 0.4077913, 0.6599498, 0.19871892, 0.598902
1224, 206149818, 0.40216255, 0.65932876, 0.19237651, 0.6054275
1225, 206166485, 0.39653167, 0.6587213, 0.18620798, 0.6116989
1226, 206183152, 0.39098385, 0.65806377, 0.18022214, 0.6177411
1227, 206199819, 0.38524863, 0.6573387, 0.1745803, 0.6237077
1228, 206216486, 0.37953636, 0.6564063, 0.1691052, 0.62967175
1229, 206233153, 0.37407765, 0.65543145, 0.16358264, 0.635387
1230, 206249820, 0.36896577, 0.6544062, 0.15790862, 0.6408448
1231, 206266487, 0.36356598, 0.65356207, 0.15265203, 0.64604515
1232, 206283154, 0.35756192, 0.6526908, 0.14774717, 0.651395
1233, 206299821, 0.35119596, 0.651891, 0.14263177, 0.6567772
1234, 206316488, 0.3454655, 0.65105593, 0.137513, 0.6617179
1235, 206333155, 0.33965042, 0.65033036, 0.13248844, 0.66644984
1236, 206349822, 0.33384752, 0.6495666, 0.12749057, 0.6710855
1237, 206366489, 0.32792684, 0.6485361, 0.12279823, 0.67585945
1238, 206383156, 0.32201213, 0.64741075, 0.11795424, 0.6806281
1239, 206399823, 0.31671906, 0.64612645, 0.11283488, 0.685185
1240, 206416490, 0.31161168, 0.64495325, 0.10745644, 0.68948317
1241, 206433157, 0.3060981, 0.6439626, 0.10242143, 0.6936328
1242, 206449824, 0.3001219, 0.64301217, 0.09776587, 0.6977853
1243, 206466491, 0.29423326, 0.64181405, 0.09321347, 0.70200664
1244, 206483158, 0.28856647, 0.6402903, 0.08856804, 0.7063382
1245, 206499825, 0.28315875, 0.63871217, 0.083573505, 0.7105516
1246, 206516492, 0.27776343, 0.63718855, 0.07866479, 0.71459824
1247, 206533159, 0.2722174, 0.6356587, 0.07375736, 0.718607
1248, 206549826, 0.26683512, 0.6340317, 0.068883896, 0.7225361
1249, 206566493, 0.26149553, 0.6321258, 0.06416991, 0.7265809
1250, 206583160, 0.25568497, 0.6300606, 0.05961943, 0.7308179
1251, 206599827, 0.25017774, 0.6279103, 0.055013668, 0.7349241
1252, 206616494, 0.24448286, 0.6255565, 0.05036768, 0.7391689
1253, 206633161, 0.23894142, 0.6234268, 0.045874827, 0.7430625
1254, 206649828, 0.23344779, 0.6214526, 0.041403044, 0.7467162
1255, 206666495, 0.2279594, 0.61939156, 0.03706878, 0.75034326
1256, 206683162, 0.22257696, 0.617201, 0.032711137, 0.75395817
1257, 206699829, 0.21734959, 0.6150451, 0.028148722, 0.7574212
1258, 206716496, 0.21232629, 0.6127472, 0.02335924, 0.76086354
1259, 206733163, 0.20731471, 0.61067533, 0.018710159, 0.76403314
1260, 206749830, 0.2024925, 0.6085281, 0.014080999, 0.76713264
1261, 206766497, 0.1973689, 0.6062569, 0.0096934745, 0.77032745
1262, 206783164, 0.19233973, 0.6040344, 0.005155703, 0.77338344
1263, 206799831, 0.18812501, 0.6020423, 4.403154E-4, 0.775986
1264, 206816498, 0.18415345, 0.5999246, -0.0042179106, 0.7785631
1265, 206833165, 0.17979085, 0.59772, -0.008697473, 0.78123665
1266, 206849832, 0.17592049, 0.5958562, -0.012876122, 0.7834807
1267, 206866499, 0.1723566, 0.5942353, -0.016864251, 0.7854257
1268, 206883166, 0.16880582, 0.5927884, -0.020428538, 0.78720355
1269, 206899833, 0.16522484, 0.5914562, -0.023724915, 0.7888712
1270, 206916500, 0.16178046, 0.5902805, -0.026804125, 0.7903657
1271, 206933167, 0.15880744, 0.5893411, -0.02963296, 0.79156786
1272, 206949834, 0.15612215, 0.5883967, -0.032232866, 0.79270214
1273, 206966501, 0.15384075, 0.58766323, -0.03462612, 0.7935909
1274, 206983168, 0.15217328, 0.5869519, -0.036724254, 0.794344
1275, 206999835, 0.150796, 0.5865256, -0.038379915, 0.7948431
1276, 207016502, 0.14969583, 0.586413, -0.039493892, 0.7950795
1277, 207033169, 0.14876577, 0.58648145, -0.03990914, 0.7951829
1278, 207049836, 0.14817294, 0.5867023, -0.039657485, 0.7951433
1279, 207066503, 0.1477719, 0.5869388, -0.039099287, 0.79507107
1280, 207083170, 0.1471864, 0.5868302, -0.03831389, 0.7952981
1281, 207099837, 0.1466552, 0.5866629, -0.03726273, 0.79556936
1282, 207116504, 0.14666747, 0.5866675, -0.03621816, 0.7956121
1283, 207133171, 0.1465083, 0.5868195, -0.034904044, 0.795588
1284, 207149838, 0.14624327, 0.58693606, -0.03371339, 0.7956022
1285, 207166505, 0.14634238, 0.58699346, -0.032819297, 0.79557896
1286, 207183172, 0.14686455, 0.58727664, -0.0323491, 0.7952931
1287, 207199839, 0.14772591, 0.587704, -0.03209012, 0.7948281
1288, 207216506, 0.14839447, 0.58797115, -0.031691615, 0.7945219
1289, 207233173, 0.14903949, 0.58827496, -0.0312833, 0.7941924
1290, 207249840, 0.14968088, 0.58857286, -0.03079071, 0.7938703
1291, 207266507, 0.15036495, 0.5890051, -0.030326353, 0.79343814
1292, 207283174, 0.15096909, 0.58951724, -0.02974454, 0.79296505
1293, 207299841, 0.15176314, 0.5900906, -0.029312221, 0.79240274
1294, 207316508, 0.1526544, 0.5908139, -0.029075451, 0.791701
1295, 207333175, 0.15339743, 0.5914702, -0.028820427, 0.79107654
1296, 207349842, 0.1536741, 0.5922596, -0.028330026, 0.7904496
1297, 207366509, 0.15435502, 0.59322244, -0.028059553, 0.7896041
1298, 207383176, 0.15524055, 0.5943152, -0.027711159, 0.78862065
1299, 207399843, 0.15627982, 0.59542346, -0.02728394, 0.7875936
1300, 207416510, 0.15767415, 0.5963828, -0.027064905, 0.7865967
1301, 207433177, 0.15950432, 0.5975397, -0.026560485, 0.7853659
1302, 207449844, 0.16152212, 0.59880334, -0.025621772, 0.78402114
1303, 207466511, 0.1635367, 0.6001009, -0.024286097, 0.78265285
1304, 207483178, 0.16610739, 0.6012733, -0.0227207, 0.78125715
1305, 207499845, 0.16899855, 0.602416, -0.020918991, 0.77980584
1306, 207516512, 0.17220427, 0.60375863, -0.01877726, 0.7781188
1307, 207533179, 0.1756953, 0.60522217, -0.016394652, 0.7762531
1308, 207549846, 0.17941014, 0.60662854, -0.013643188, 0.77435654
1309, 207566513, 0.1835504, 0.6081865, -0.010706912, 0.7722074
1310, 207583180, 0.18802556, 0.609816, -0.0075371135, 0.7698795
1311, 207599847, 0.1923231, 0.6115698, -0.003938993, 0.7674498
1312, 207616514, 0.1966842, 0.6133564, -1.4330549E-4, 0.76492465
1313, 207633181, 0.2014669, 0.61506116, 0.0036306058, 0.7622978
1314, 207649848, 0.2065245, 0.61690825, 0.0075395843, 0.7594178
1315, 207666515, 0.21162648, 0.61868083, 0.011667444, 0.75651354
1316, 207683182, 0.21682373, 0.6203512, 0.016081255, 0.7535873
1317, 207699849, 0.22229782, 0.62203544, 0.020719394, 0.75048417
1318, 207716516, 0.22810026, 0.62383145, 0.025684183, 0.7470913
1319, 207733183, 0.2339365, 0.6255232, 0.030945001, 0.74366474
1320, 207749850, 0.23976365, 0.6271268, 0.036183268, 0.7402139
1321, 207766517, 0.24663812, 0.6287366, 0.04107056, 0.7363243
1322, 207783184, 0.25373307, 0.63030714, 0.046022955, 0.7322669
1323, 207799851, 0.26069525, 0.6320255, 0.051434945, 0.7279673
1324, 207816518, 0.26766613, 0.63387287, 0.05734734, 0.72337526
1325, 207833185, 0.2748412, 0.63572806, 0.063487194, 0.71852744
1326, 207849852, 0.282934, 0.6370852, 0.06952417, 0.713609
1327, 207866519, 0.29091877, 0.6380577, 0.075344734, 0.70892316
1328, 207883186, 0.29943526, 0.63909364, 0.08153745, 0.7037399
1329, 207899853, 0.30735123, 0.6404345, 0.08828864, 0.6982724
1330, 207916520, 0.3149249, 0.64169025, 0.09560778, 0.6927593
1331, 207933187, 0.32220516, 0.6426441, 0.103073865, 0.6874362
1332, 207949854, 0.32971156, 0.64312196, 0.11009233, 0.6823229
1333, 207966521, 0.3376519, 0.6431066, 0.11684787, 0.6773125
1334, 207983188, 0.34566686, 0.6425273, 0.12310116, 0.67269576
1335, 207999855, 0.35418895, 0.6412777, 0.12871005, 0.6683916
1336, 208016522, 0.3629452, 0.63927895, 0.13425827, 0.66450614
1337, 208033189, 0.3706292, 0.63722706, 0.14021192, 0.6609966
1338, 208049856, 0.37893847, 0.6347167, 0.1452329, 0.657608
1339, 208066523, 0.38772336, 0.6314373, 0.14946656, 0.654689
1340, 208083190, 0.3972779, 0.62744755, 0.15262406, 0.6520631
1341, 208099857, 0.4079372, 0.62278646, 0.15465634, 0.6494659
1342, 208116524, 0.41870934, 0.61793655, 0.15668344, 0.6467516
1343, 208133191, 0.42761102, 0.6136713, 0.16016975, 0.6441292
1344, 208149858, 0.43542618, 0.60948557, 0.16399488, 0.64190143
1345, 208166525, 0.4433418, 0.6051125, 0.16673633, 0.6399113
1346, 208183192, 0.4526636, 0.6007127, 0.16753218, 0.6373174
1347, 208199859, 0.46272978, 0.5960375, 0.16822068, 0.6342891
1348, 208216526, 0.4705428, 0.5922299, 0.17059632, 0.63146687
1349, 208233193, 0.4768201, 0.5890566, 0.17363144, 0.6288937
1350, 208249860, 0.48381054, 0.585759, 0.17538776, 0.62614155
1351, 208266527, 0.49258357, 0.5819123, 0.17569625, 0.6227927
1352, 208283194, 0.5014381, 0.5777538, 0.1766308, 0.61932415
1353, 208299861, 0.50798404, 0.57449853, 0.17959614, 0.6161571
1354, 208316528, 0.5131633, 0.5719195, 0.18335214, 0.6131508
1355, 208333195, 0.5192248, 0.5691456, 0.18526375, 0.6100463
1356, 208349862, 0.5274705, 0.56527203, 0.18532735, 0.6065447
1357, 208366529, 0.5360733, 0.5607582, 0.18553299, 0.6031198
1358, 208383196, 0.54269266, 0.5569685, 0.18677284, 0.6003224
1359, 208399863, 0.5483147, 0.5534167, 0.18846004, 0.5979667
1360, 208416530, 0.5549482, 0.54917455, 0.18880147, 0.59564614
1361, 208433197, 0.5634889, 0.54351157, 0.18728466, 0.59329605
1362, 208449864, 0.57324225, 0.53653556, 0.18543048, 0.5908797
1363, 208466531, 0.5825185, 0.5295828, 0.18425292, 0.58844346
1364, 208483198, 0.5913136, 0.52300924, 0.1833662, 0.5858214
1365, 208499865, 0.60081583, 0.5159712, 0.1817681, 0.5828849
1366, 208516532, 0.6108262, 0.5083756, 0.17980917, 0.579754
1367, 208533199, 0.62206745, 0.4989754, 0.17698684, 0.57682914
1368, 208549866, 0.63367987, 0.48885363, 0.17364784, 0.5738633
1369, 208566533, 0.6456245, 0.47790632, 0.17001425, 0.5708505
1370, 208583200, 0.65700495, 0.46684146, 0.16689627, 0.56793463
1371, 208599867, 0.6679177, 0.45578495, 0.16401456, 0.5650182
1372, 208616534, 0.6787838, 0.4439934, 0.16070943, 0.56240135
1373, 208633201, 0.68969566, 0.43148956, 0.15731029, 0.5598129
1374, 208649868, 0.69974077, 0.419242, 0.15488371, 0.5573245
1375, 208666535, 0.70836246, 0.40803948, 0.15359613, 0.5550992
1376, 208683202, 0.716502, 0.3970657, 0.15253907, 0.55289793
1377, 208699869, 0.7242321, 0.38656002, 0.15116726, 0.5506432
1378, 208716536, 0.7318746, 0.37609518, 0.14915273, 0.54833007
1379, 208733203, 0.73979104, 0.36497244, 0.14675719, 0.5458635
1380, 208749870, 0.74671394, 0.35475555, 0.14563991, 0.5434668
1381, 208766537, 0.7520734, 0.34640962, 0.14584473, 0.54140157
1382, 208783204, 0.7566804, 0.33874848, 0.14627486, 0.5397114
1383, 208799871, 0.7613923, 0.33088273, 0.14650825, 0.5378979
1384, 208816538, 0.7661736, 0.32284907, 0.14654623, 0.53597677
1385, 208833205, 0.7708154, 0.31462342, 0.14653784, 0.53421235
1386, 208849872, 0.77529156, 0.30662632, 0.14671408, 0.5323333
1387, 208866539, 0.7790566, 0.299527, 0.14746328, 0.53066874
1388, 208883206, 0.7826416, 0.29239678, 0.14783517, 0.52926517
1389, 208899873, 0.7861493, 0.2852856, 0.14717764, 0.528129
1390, 208916540, 0.7898888, 0.27720457, 0.14568599, 0.5272659
1391, 208933207, 0.79466015, 0.26712182, 0.14348072, 0.525904
1392, 208949874, 0.7995459, 0.25650436, 0.14145228, 0.5243315
1393, 208966541, 0.8035563, 0.24774817, 0.14031757, 0.52271354
1394, 208983208, 0.806866, 0.2405916, 0.13974349, 0.5211096
1395, 208999875, 0.81026936, 0.23345304, 0.13926204, 0.5192009
1396, 209016542, 0.8138803, 0.22571099, 0.13865611, 0.51713496
1397, 209033209, 0.8174593, 0.21782915, 0.13791463, 0.5150637
1398, 209049876, 0.8205884, 0.2109478, 0.13744417, 0.51307434
1399, 209066543, 0.8233198, 0.20436531, 0.13719635, 0.5114263
1400, 209083210, 0.8265666, 0.19626127, 0.13643579, 0.5095636
1401, 209099877, 0.8300761, 0.18705341, 0.13532503, 0.50761414
1402, 209116544, 0.833438, 0.17782637, 0.13423406, 0.5057079
1403, 209133211, 0.836371, 0.16983321, 0.13364889, 0.5037644
1404, 209149878, 0.8388557, 0.16362195, 0.13401482, 0.5015869
1405, 209166545, 0.8413983, 0.15742677, 0.13454032, 0.49916464
1406, 209183212, 0.8439758, 0.15088443, 0.13503614, 0.49669364
1407, 209199879, 0.84652925, 0.14404419, 0.13544051, 0.494263
1408, 209216546, 0.84936774, 0.13599823, 0.13508306, 0.49176404
1409, 209233213, 0.8520604, 0.12754294, 0.13431539, 0.489577
1410, 209249880, 0.8544349, 0.11945133, 0.13346453, 0.48770893
1411, 209266547, 0.85646164, 0.11178745, 0.13294026, 0.48611137
1412, 209283214, 0.8582361, 0.10463273, 0.13235569, 0.48473206
1413, 209299881, 0.8597562, 0.09799795, 0.13172354, 0.48359582
1414, 209316548, 0.8610239, 0.091671035, 0.13135743, 0.48267975
1415, 209333215, 0.8621617, 0.08571376, 0.13120407, 0.48178425
1416, 209349882, 0.86283416, 0.08219226, 0.1320911, 0.48095098
1417, 209366549, 0.86291474, 0.08226409, 0.13430893, 0.48017952
1418, 209383216, 0.86296713, 0.08337538, 0.1370934, 0.47910556
1419, 209399883, 0.8632844, 0.08331825, 0.13916937, 0.47794396
1420, 209416550, 0.86361474, 0.08282001, 0.14097512, 0.4769035
1421, 209433217, 0.8638416, 0.08290687, 0.14284061, 0.47592118
1422, 209449884, 0.86375064, 0.08467983, 0.14507633, 0.47509706
1423, 209466551, 0.86360395, 0.08659175, 0.1473043, 0.4743329
1424, 209483218, 0.8637182, 0.08751839, 0.14900422, 0.4734232
1425, 209499885, 0.8639491, 0.08769178, 0.15022832, 0.47258222
1426, 209516552, 0.86394477, 0.08857522, 0.15149747, 0.4720199
1427, 209533219, 0.86358637, 0.09077435, 0.15303463, 0.47176206
1428, 209549886, 0.86342406, 0.09141191, 0.15370873, 0.471717
1429, 209566553, 0.8633874, 0.09096325, 0.15389684, 0.47180912
1430, 209583220, 0.86319715, 0.091254205, 0.1542918, 0.47197187
1431, 209599887, 0.8626999, 0.09280022, 0.15529084, 0.47225204
1432, 209616554, 0.8622587, 0.09436478, 0.15641244, 0.4723779
1433, 209633221, 0.86198944, 0.0953177, 0.15705249, 0.47246575
1434, 209649888, 0.8618758, 0.095626585, 0.15723604, 0.47254926
1435, 209666555, 0.86176586, 0.09572732, 0.15732986, 0.47269818
1436, 209683222, 0.8617889, 0.09586606, 0.15760872, 0.47253516
1437, 209699889, 0.8617652, 0.09635331, 0.15804555, 0.4723336
1438, 209716556, 0.8618224, 0.09644323, 0.15823549, 0.4721469
1439, 209733223, 0.8618868, 0.09603357, 0.15816662, 0.47213587
1440, 209749890, 0.86196846, 0.095689476, 0.15809181, 0.4720818
1441, 209766557, 0.8619354, 0.09584651, 0.15824714, 0.47205842
1442, 209783224, 0.8619196, 0.09612091, 0.15844575, 0.471965
1443, 209799891, 0.8619308, 0.09627564, 0.15870143, 0.47182652
1444, 209816558, 0.86190534, 0.09661913, 0.15911965, 0.47166216
1445, 209833225, 0.8617884, 0.09713161, 0.15959701, 0.47160923
1446, 209849892, 0.8617127, 0.09743494, 0.15995531, 0.4715636
1447, 209866559, 0.86173, 0.09734157, 0.16019478, 0.4714702
1448, 209883226, 0.86177295, 0.09727843, 0.16054764, 0.47128466
1449, 209899893, 0.86166555, 0.098259725, 0.16135603, 0.47100118
1450, 209916560, 0.86134213, 0.09988738, 0.1625129, 0.47085273
1451, 209933227, 0.8611423, 0.10104069, 0.16351976, 0.4706234
1452, 209949894, 0.86106056, 0.10145461, 0.1641635, 0.47045997
1453, 209966561, 0.860894, 0.10211711, 0.1648217, 0.47039106
1454, 209983228, 0.86051446, 0.10327537, 0.16568603, 0.47052905
1455, 209999895, 0.86008316, 0.10464125, 0.16671169, 0.47065353
1456, 210016562, 0.85961515, 0.106142364, 0.16791062, 0.4707463
1457, 210033229, 0.85907686, 0.108031936, 0.16917707, 0.4708457
1458, 210049896, 0.85844994, 0.110238135, 0.17048211, 0.4710067
1459, 210066563, 0.85777575, 0.11261722, 0.17183182, 0.47118205
1460, 210083230, 0.8570172, 0.1146636, 0.17294599, 0.4716607
1461, 210099897, 0.85578024, 0.11778837, 0.1748015, 0.47245198
1462, 210116564, 0.8538918, 0.12336144, 0.17788158, 0.47329634
1463, 210133231, 0.85128766, 0.13102442, 0.18214439, 0.47430548
1464, 210149898, 0.8480923, 0.1399718, 0.18708049, 0.47555083
1465, 210166565, 0.8443722, 0.1500533, 0.19248544, 0.4769374
1466, 210183232, 0.8403236, 0.16034795, 0.19811378, 0.47843096
1467, 210199899, 0.83644354, 0.16925466, 0.20342882, 0.47992945
1468, 210216566, 0.83329916, 0.17564052, 0.2080907, 0.48110446
1469, 210233233, 0.83047575, 0.18078709, 0.21246462, 0.4821674
1470, 210249900, 0.82709736, 0.1871316, 0.21783195, 0.48315763
1471, 210266567, 0.82305753, 0.19498646, 0.22398181, 0.48413718
1472, 210283234, 0.8192833, 0.20258039, 0.23014553, 0.48453015
1473, 210299901, 0.81611407, 0.2084401, 0.23492026, 0.48510128
1474, 210316568, 0.81289494, 0.21416453, 0.23907062, 0.4859843
1475, 210333235, 0.80916023, 0.22037588, 0.24336566, 0.48730657
1476, 210349902, 0.8051779, 0.22673197, 0.24770127, 0.4888004
1477, 210366569, 0.8009962, 0.23333915, 0.25150174, 0.4906172
1478, 210383236, 0.7960874, 0.2410543, 0.255067, 0.49303052
1479, 210399903, 0.7901321, 0.25035742, 0.25869653, 0.4960735
1480, 210416570, 0.7831978, 0.26014355, 0.26236627, 0.50009096
1481, 210433237, 0.7756927, 0.26980388, 0.2656495, 0.5049135
1482, 210449904, 0.7675402, 0.28000388, 0.26847798, 0.5102939
1483, 210466571, 0.7583195, 0.29165107, 0.27147213, 0.5159403
1484, 210483238, 0.74831337, 0.30412835, 0.2744703, 0.52172726
1485, 210499905, 0.7377779, 0.31679335, 0.27701607, 0.52781457
1486, 210516572, 0.7273645, 0.3286607, 0.27890542, 0.5339808
1487, 210533239, 0.7169771, 0.340036, 0.28053978, 0.5400159
1488, 210549906, 0.70610327, 0.35170555, 0.28231886, 0.5459102
1489, 210566573, 0.6946078, 0.36359406, 0.28417403, 0.55187404
1490, 210583240, 0.6829039, 0.37501782, 0.2856942, 0.5580172
1491, 210599907, 0.6714328, 0.38555107, 0.28693402, 0.5640899
1492, 210616574, 0.66022563, 0.3958675, 0.28774843, 0.5697299
1493, 210633241, 0.6487182, 0.40651366, 0.28848282, 0.57505596
1494, 210649908, 0.63671607, 0.41743514, 0.28956264, 0.5800816
1495, 210666575, 0.62399435, 0.42873204, 0.29095858, 0.58494717
1496, 210683242, 0.6112365, 0.439897, 0.29218113, 0.58950067
1497, 210699909, 0.5983429, 0.45124123, 0.29355252, 0.5934598
1498, 210716576, 0.58544207, 0.4621396, 0.2952254, 0.5970989
1499, 210733243, 0.5730164, 0.47198576, 0.29651356, 0.600801
1500, 210749910, 0.56087667, 0.4809332, 0.29747102, 0.6046753
1501, 210766577, 0.54897374, 0.4896447, 0.29792452, 0.60837275
1502, 210783244, 0.5375597, 0.49819615, 0.2978995, 0.6116261
1503, 210799911, 0.52637124, 0.50626665, 0.29757258, 0.614881
1504, 210816578, 0.5156484, 0.51359355, 0.29680142, 0.61825365
1505, 210833245, 0.5053814, 0.52013963, 0.29576808, 0.62174433
1506, 210849912, 0.49524495, 0.52619183, 0.29474217, 0.62528557
1507, 210866579, 0.4853405, 0.53193176, 0.2933108, 0.62885803
1508, 210883246, 0.47565246, 0.5373559, 0.29161248, 0.63242847
1509, 210899913, 0.46641132, 0.54218614, 0.28993067, 0.6359523
1510, 210916580, 0.45701078, 0.54674, 0.28837946, 0.63957334
1511, 210933247, 0.44753194, 0.55114317, 0.28664076, 0.6432681
1512, 210949914, 0.43840426, 0.5554131, 0.28461808, 0.6467695
1513, 210966581, 0.4295426, 0.55929655, 0.2828794, 0.6501232
1514, 210983248, 0.42038202, 0.562892, 0.28174528, 0.6534917
1515, 210999915, 0.41099, 0.5663606, 0.28058147, 0.6569606
1516, 211016582, 0.40165493, 0.5698621, 0.27914888, 0.660308
1517, 211033249, 0.39285898, 0.5733877, 0.2776205, 0.66318583
1518, 211049916, 0.38453898, 0.5763451, 0.2763444, 0.6660257
1519, 211066583, 0.37558904, 0.57946736, 0.27541408, 0.6688033
1520, 211083250, 0.3665394, 0.5827558, 0.2744265, 0.67136806
1521, 211099917, 0.35811326, 0.5859809, 0.27296093, 0.67370176
1522, 211116584, 0.34975508, 0.58878815, 0.27165863, 0.67616713
1523, 211133251, 0.34135416, 0.5915301, 0.27014688, 0.6786681
1524, 211149918, 0.33322987, 0.59445304, 0.2687177, 0.6807162
1525, 211166585, 0.324903, 0.5971976, 0.26659545, 0.68316936
1526, 211183252, 0.31680316, 0.5998211, 0.26458368, 0.6854534
1527, 211199919, 0.30899212, 0.60259974, 0.2624561, 0.68739706
1528, 211216586, 0.30105522, 0.6057104, 0.26034516, 0.6889858
1529, 211233253, 0.29364446, 0.6086838, 0.2586599, 0.69019735
1530, 211249920, 0.28519332, 0.6114505, 0.25716573, 0.691852
1531, 211266587, 0.27605793, 0.6139715, 0.2559674, 0.69376665
1532, 211283254, 0.26740098, 0.61688983, 0.25462708, 0.69506055
1533, 211299921, 0.2602926, 0.6198345, 0.2528422, 0.69579023
1534, 211316588, 0.25356656, 0.6226128, 0.25093326, 0.69648415
1535, 211333255, 0.2466659, 0.6252912, 0.24866842, 0.69737446
1536, 211349922, 0.23913682, 0.6278593, 0.24635904, 0.6985083
1537, 211366589, 0.23173635, 0.629871, 0.24438092, 0.699885
1538, 211383256, 0.22451852, 0.6316907, 0.24197476, 0.7014321
1539, 211399923, 0.21887404, 0.6331818, 0.23873305, 0.70298064
1540, 211416590, 0.21398349, 0.6342723, 0.23500964, 0.7047558
1541, 211433257, 0.20794249, 0.6354591, 0.23236297, 0.70637053
1542, 211449924, 0.20086277, 0.63667476, 0.22950824, 0.7082554
1543, 211466591, 0.195172, 0.63760275, 0.22624552, 0.7100591
1544, 211483258, 0.19044939, 0.63827455, 0.22270359, 0.7118554
1545, 211499925, 0.18488227, 0.63909334, 0.21951005, 0.7135784
1546, 211516592, 0.1789053, 0.6399, 0.21681744, 0.7152004
1547, 211533259, 0.17339635, 0.6408177, 0.21399038, 0.71658564
1548, 211549926, 0.16849273, 0.64168257, 0.21104163, 0.7178547
1549, 211566593, 0.16381644, 0.6426292, 0.20826586, 0.7189003
1550, 211583260, 0.15867649, 0.6437303, 0.20580992, 0.7197747
1551, 211599927, 0.15292755, 0.6445404, 0.20374115, 0.7208819
1552, 211616594, 0.14694983, 0.64520144, 0.20147154, 0.7221705
1553, 211633261, 0.14164196, 0.6456457, 0.19871789, 0.7235957
1554, 211649928, 0.13616635, 0.64624584, 0.19589323, 0.7248801
1555, 211666595, 0.1298355, 0.6465106, 0.19364972, 0.7264068
1556, 211683262, 0.122381136, 0.64630735, 0.19199823, 0.72831786
1557, 211699929, 0.11530217, 0.6454844, 0.19003062, 0.73071486
1558, 211716596, 0.10893637, 0.6443197, 0.1878058, 0.73328996
1559, 211733263, 0.10213127, 0.64256215, 0.18617365, 0.73622197
1560, 211749930, 0.09416123, 0.640068, 0.18544513, 0.739633
1561, 211766597, 0.08537847, 0.6368483, 0.1847978, 0.7436296
1562, 211783264, 0.07691544, 0.63351315, 0.18421717, 0.7475357
1563, 211799931, 0.06985151, 0.630913, 0.18262894, 0.7508107
1564, 211816598, 0.06402717, 0.6291431, 0.18037185, 0.7533564
1565, 211833265, 0.057376247, 0.62805027, 0.17884168, 0.7551668
1566, 211849932, 0.049992595, 0.62737316, 0.17806749, 0.75643635
1567, 211866599, 0.04234675, 0.6268738, 0.17763186, 0.7574188
1568, 211883266, 0.03508138, 0.62642735, 0.17717798, 0.7582655
1569, 211899933, 0.0278108, 0.6259488, 0.17695855, 0.759013
1570, 211916600, 0.0215285, 0.6252796, 0.17638281, 0.7599023
1571, 211933267, 0.01552961, 0.62403876, 0.17648837, 0.7610432
1572, 211949934, 0.009899316, 0.62228554, 0.17718686, 0.7624094
1573, 211966601, 0.0048459885, 0.62035793, 0.17827362, 0.76377445
1574, 211983268, 5.362794E-4, 0.6182098, 0.179831, 0.76516515
1575, 211999935, -0.003460269, 0.615641, 0.18196157, 0.7667233
1576, 212016602, -0.0064027733, 0.6130869, 0.18389928, 0.7682871
1577, 212033269, -0.0077890065, 0.61085, 0.1856496, 0.7696337
1578, 212049936, -0.0075203604, 0.60909057, 0.1874889, 0.7705846
1579, 212066603, -0.0063772327, 0.60772866, 0.18935755, 0.7712129
1580, 212083270, -0.005614295, 0.60646456, 0.19141133, 0.7717069
1581, 212099937, -0.005147767, 0.60543084, 0.19314595, 0.7720893
1582, 212116604, -0.0042777406, 0.6049088, 0.1943627, 0.77219856
1583, 212133271, -0.002918992, 0.6048342, 0.19491069, 0.7721251
1584, 212149938, -0.0020253258, 0.6047364, 0.19541323, 0.7720776
1585, 212166605, -0.0018838774, 0.6043918, 0.19569324, 0.7722768
1586, 212183272, -0.0020501772, 0.60391134, 0.19569895, 0.7726509
1587, 212199939, -0.0025552737, 0.60336155, 0.19580534, 0.77305174
1588, 212216606, -0.0033165908, 0.6026346, 0.19617836, 0.773521
1589, 212233273, -0.004063302, 0.60176253, 0.19680294, 0.7740376
1590, 212249940, -0.0043941713, 0.6009652, 0.19705793, 0.77459025
1591, 212266607, -0.0045875474, 0.60023695, 0.19735274, 0.7750787
1592, 212283274, -0.004839656, 0.5996327, 0.1978715, 0.7754123
1593, 212299941, -0.005198154, 0.59900653, 0.19856448, 0.7757168
1594, 212316608, -0.0058128485, 0.5983587, 0.19941889, 0.7759933
1595, 212333275, -0.0062200376, 0.597903, 0.20013241, 0.77615774
1596, 212349942, -0.00609169, 0.597582, 0.20048942, 0.7763136
1597, 212366609, -0.0063213054, 0.5971469, 0.2009447, 0.776529
1598, 212383276, -0.006784117, 0.59664845, 0.20151144, 0.7767612
1599, 212399943, -0.0072831106, 0.5962396, 0.20207141, 0.77692515
1600, 212416610, -0.0076952735, 0.5959142, 0.20230652, 0.7771098
1601, 212433277, -0.008223852, 0.59550124, 0.20231956, 0.7774175
1602, 212449944, -0.009053006, 0.5949653, 0.20228046, 0.77782863
1603, 212466611, -0.0098423865, 0.59454, 0.20214462, 0.7781795
1604, 212483278, -0.010272886, 0.59420013, 0.20175657, 0.7785341
1605, 212499945, -0.010359905, 0.5939941, 0.20129791, 0.77880895
1606, 212516612, -0.010344471, 0.5939583, 0.20079395, 0.77896637
1607, 212533279, -0.009956351, 0.5941014, 0.20011456, 0.7790371
1608, 212549946, -0.0092261005, 0.5943088, 0.1994177, 0.7790667
1609, 212566613, -0.0082916785, 0.59460866, 0.19883135, 0.77899814
1610, 212583280, -0.0072670644, 0.5949738, 0.19850302, 0.77881336
1611, 212599947, -0.0057442426, 0.59534675, 0.1981455, 0.77863204
1612, 212616614, -0.0038144942, 0.5956765, 0.19798437, 0.77843267
1613, 212633281, -0.0014586656, 0.59597737, 0.19801944, 0.77820146
1614, 212649948, 0.0010980866, 0.5961012, 0.19859067, 0.77796173
1615, 212666615, 0.0035263624, 0.59597373, 0.19970797, 0.777766
1616, 212683282, 0.0057940823, 0.5955465, 0.20134313, 0.7776581
1617, 212699949, 0.007997759, 0.59483516, 0.20314446, 0.77771467
1618, 212716616, 0.010212722, 0.5939728, 0.20501125, 0.77785784
1619, 212733283, 0.013310199, 0.5930175, 0.20638019, 0.7781778
1620, 212749950, 0.016194688, 0.59170896, 0.20845132, 0.77856714
1621, 212766617, 0.019085966, 0.5901958, 0.21074134, 0.7790335
1622, 212783284, 0.02214409, 0.588725, 0.21311633, 0.77941906
1623, 212799951, 0.026041329, 0.5874966, 0.21512601, 0.7796735
1624, 212816618, 0.030968476, 0.5867135, 0.21674629, 0.7796342
1625, 212833285, 0.03624747, 0.5859445, 0.2187023, 0.77943873
1626, 212849952, 0.041411735, 0.5852115, 0.22087653, 0.7791191
1627, 212866619, 0.046464626, 0.5845241, 0.2228995, 0.778774
1628, 212883286, 0.052139893, 0.5839043, 0.2243531, 0.7784621
1629, 212899953, 0.058645748, 0.5834953, 0.22505723, 0.77810246
1630, 212916620, 0.066090524, 0.58304733, 0.22515218, 0.7778141
1631, 212933287, 0.07392799, 0.5826485, 0.2247499, 0.7775238
1632, 212949954, 0.08159051, 0.5823602, 0.22409101, 0.77716357
1633, 212966621, 0.08972219, 0.5822814, 0.22297707, 0.7766467
1634, 212983288, 0.09891105, 0.5823576, 0.2210751, 0.7760171
1635, 212999955, 0.10803862, 0.58286494, 0.2186519, 0.775105
1636, 213016622, 0.11660894, 0.58299536, 0.21653648, 0.7743584
1637, 213033289, 0.12361569, 0.58319664, 0.21543874, 0.7734256
1638, 213049956, 0.12831046, 0.5840115, 0.21518753, 0.77211505
1639, 213066623, 0.13345619, 0.58513737, 0.21413471, 0.77068174
1640, 213083290, 0.14114694, 0.58605343, 0.21098337, 0.76948375
1641, 213099957, 0.15096484, 0.58657044, 0.20586848, 0.7686113
1642, 213116624, 0.16225724, 0.5870427, 0.19969407, 0.76757807
1643, 213133291, 0.17399955, 0.5876646, 0.19363879, 0.7660803
1644, 213149958, 0.18483897, 0.5882809, 0.1885594, 0.7643337
1645, 213166625, 0.19521923, 0.5887251, 0.18419853, 0.7624719
1646, 213183292, 0.20552002, 0.58867925, 0.18012184, 0.7607725
1647, 213199959, 0.2164287, 0.5880563, 0.17579277, 0.7592403
1648, 213216626, 0.22818623, 0.58716464, 0.17138201, 0.7574942
1649, 213233293, 0.2410289, 0.58593124, 0.16651523, 0.75555444
1650, 213249960, 0.25417462, 0.5841172, 0.16188659, 0.7536548
1651, 213266627, 0.26735005, 0.5818321, 0.15779403, 0.7517292
1652, 213283294, 0.27923307, 0.57920545, 0.15472099, 0.7500745
1653, 213299961, 0.2900398, 0.5761347, 0.15273136, 0.748745
1654, 213316628, 0.3009919, 0.57279885, 0.15083851, 0.74736434
1655, 213333295, 0.3122215, 0.56936, 0.14864765, 0.7458225
1656, 213349962, 0.32430428, 0.5656377, 0.1459404, 0.7440311
1657, 213366629, 0.336123, 0.56140393, 0.14384392, 0.742399
1658, 213383296, 0.3472711, 0.5564386, 0.14246987, 0.7412702
1659, 213399963, 0.35735533, 0.551522, 0.14230804, 0.7401821
1660, 213416630, 0.36705256, 0.5465583, 0.14240627, 0.7390991
1661, 213433297, 0.3772519, 0.5413706, 0.14217027, 0.7378258
1662, 213449964, 0.38759044, 0.5360594, 0.1417057, 0.7364332
1663, 213466631, 0.39762068, 0.5303372, 0.14150092, 0.73526746
1664, 213483298, 0.40786666, 0.5238998, 0.14049624, 0.7344625
1665, 213499965, 0.4182155, 0.51736414, 0.13965923, 0.7334344
1666, 213516632, 0.4287855, 0.51029426, 0.13815944, 0.73256755
1667, 213533299, 0.43895602, 0.5032379, 0.13703221, 0.73163635
1668, 213549966, 0.44779, 0.49675816, 0.13722725, 0.730674
1669, 213566633, 0.4560355, 0.49009967, 0.1376587, 0.72998935
1670, 213583300, 0.46480387, 0.482902, 0.13764252, 0.7292584
1671, 213599967, 0.47380194, 0.47521877, 0.1373438, 0.7285712
1672, 213616634, 0.48315933, 0.46695933, 0.13668464, 0.7278899
1673, 213633301, 0.49210423, 0.45874575, 0.1367013, 0.727117
1674, 213649968, 0.5006663, 0.4510111, 0.13793716, 0.725876
1675, 213666635, 0.5086482, 0.4435505, 0.13970843, 0.7245839
1676, 213683302, 0.516828, 0.43602717, 0.14098486, 0.7231132
1677, 213699969, 0.52595353, 0.42774805, 0.14171252, 0.72133386
1678, 213716636, 0.5356158, 0.4188548, 0.14192633, 0.71939826
1679, 213733303, 0.5449819, 0.41022152, 0.14237043, 0.7172476
1680, 213749970, 0.5531078, 0.4026455, 0.1444561, 0.7148994
1681, 213766637, 0.56018853, 0.39489436, 0.14681758, 0.7132267
1682, 213783304, 0.56844497, 0.38693103, 0.14830293, 0.710747
1683, 213799971, 0.5772186, 0.37811226, 0.1492056, 0.7082287
1684, 213816638, 0.5860183, 0.3684883, 0.15001011, 0.70590097
1685, 213833305, 0.59395105, 0.35903, 0.15158762, 0.7038048
1686, 213849972, 0.6009625, 0.3501999, 0.15411, 0.7017512
1687, 213866639, 0.60824126, 0.34099573, 0.15615644, 0.6995569
1688, 213883306, 0.61560637, 0.33205754, 0.15844078, 0.69689566
1689, 213899973, 0.62302583, 0.32275334, 0.16040762, 0.69421816
1690, 213916640, 0.63046366, 0.31325892, 0.16205782, 0.6914638
1691, 213933307, 0.63777834, 0.30361092, 0.16379447, 0.6886443
1692, 213949974, 0.6447381, 0.29420155, 0.16562869, 0.685803
1693, 213966641, 0.6510967, 0.28604063, 0.16822499, 0.6826086
1694, 213983308, 0.65753746, 0.27755344, 0.17027663, 0.67942244
1695, 213999975, 0.66421884, 0.26870602, 0.17175746, 0.67609924
1696, 214016642, 0.6707125, 0.26058587, 0.17344327, 0.67242664
1697, 214033309, 0.6767632, 0.25283074, 0.17499141, 0.66891444
1698, 214049976, 0.6827186, 0.24511485, 0.17619964, 0.66540825
1699, 214066643, 0.6887287, 0.23705786, 0.1772055, 0.6618571
1700, 214083310, 0.6948237, 0.22881456, 0.17782347, 0.65821207
1701, 214099977, 0.70087916, 0.22081614, 0.17831768, 0.6543789
1702, 214116644, 0.70688826, 0.21295129, 0.17881685, 0.6503733
1703, 214133311, 0.7124981, 0.20563464, 0.18026261, 0.6461939
1704, 214149978, 0.7178783, 0.19920747, 0.18218307, 0.64169836
1705, 214166645, 0.7234081, 0.19278194, 0.18380949, 0.6369695
1706, 214183312, 0.7291981, 0.18575704, 0.18468946, 0.63218236
1707, 214199979, 0.73488814, 0.17900392, 0.18564516, 0.6272427
1708, 214216646, 0.7400083, 0.17294355, 0.18742451, 0.622375
1709, 214233313, 0.74494284, 0.1674827, 0.18939373, 0.6173656
1710, 214249980, 0.75002027, 0.16189872, 0.19128598, 0.61210173
1711, 214266647, 0.7552289, 0.15557662, 0.19254626, 0.60691977
1712, 214283314, 0.7604936, 0.149069, 0.1937546, 0.6015709
1713, 214299981, 0.7654351, 0.14328194, 0.19576369, 0.596034
1714, 214316648, 0.77005243, 0.13853636, 0.19836847, 0.5903197
1715, 214333315, 0.77472717, 0.13405661, 0.20059294, 0.5844567
1716, 214349982, 0.779399, 0.1289939, 0.2027249, 0.57862
1717, 214366649, 0.78417563, 0.124282226, 0.20536806, 0.5722298
1718, 214383316, 0.7886881, 0.119574174, 0.20875746, 0.5657685
1719, 214399983, 0.79309547, 0.1156611, 0.21262546, 0.558939
1720, 214416650, 0.7975818, 0.11196265, 0.2163101, 0.5518496
1721, 214433317, 0.8018812, 0.10796058, 0.21965867, 0.5450519
1722, 214449984, 0.8057189, 0.104254976, 0.22315347, 0.5386566
1723, 214466651, 0.80919236, 0.10080216, 0.22635049, 0.5327407
1724, 214483318, 0.8122746, 0.09753152, 0.2293986, 0.5273278
1725, 214499985, 0.81503546, 0.094601244, 0.23220049, 0.52235156
1726, 214516652, 0.81749094, 0.09196063, 0.23456421, 0.51791114
1727, 214533319, 0.8195916, 0.08896718, 0.23597056, 0.51446325
1728, 214549986, 0.82121235, 0.08574267, 0.23672687, 0.5120731
1729, 214566653, 0.8228515, 0.081790745, 0.23650225, 0.51018906
1730, 214583320, 0.8242632, 0.07818064, 0.23580818, 0.5087957
1731, 214599987, 0.8253511, 0.07545955, 0.23538375, 0.5076382
1732, 214616654, 0.82604545, 0.07432645, 0.23589097, 0.50643885
1733, 214633321, 0.8266782, 0.07379953, 0.23630692, 0.5052882
1734, 214649988, 0.8274827, 0.07249412, 0.23581585, 0.5043891
1735, 214666655, 0.82830274, 0.070667684, 0.23501244, 0.50367635
1736, 214683322, 0.8290839, 0.06891296, 0.23421504, 0.5030056
1737, 214699989, 0.82961035, 0.06760019, 0.23347719, 0.5026584
1738, 214716656, 0.83021, 0.06626482, 0.23231241, 0.502386
1739, 214733323, 0.8312019, 0.06362019, 0.23022912, 0.5020466
1740, 214749990, 0.8325304, 0.059263363, 0.22714698, 0.5017824
1741, 214766657, 0.8338577, 0.05493964, 0.22406264, 0.5014573
1742, 214783324, 0.83510184, 0.05179545, 0.22154, 0.5008421
1743, 214799991, 0.83629495, 0.049288977, 0.21942498, 0.5000342
1744, 214816658, 0.8376462, 0.046140227, 0.21710795, 0.49908346
1745, 214833325, 0.83918524, 0.042087834, 0.21437088, 0.49803832
1746, 214849992, 0.84077734, 0.036260553, 0.21046008, 0.49747944
1747, 214866659, 0.8424231, 0.029423887, 0.20582218, 0.49708664
1748, 214883326, 0.8438971, 0.02239139, 0.20076276, 0.49702203
1749, 214899993, 0.84521985, 0.016455974, 0.19625258, 0.49680778
1750, 214916660, 0.8462399, 0.0132605815, 0.1930641, 0.496416
1751, 214933327, 0.8470788, 0.0127626415, 0.19140042, 0.49564195
1752, 214949994, 0.8480152, 0.012153366, 0.18966071, 0.49472386
1753, 214966661, 0.8491441, 0.01095595, 0.18747035, 0.49364957
1754, 214983328, 0.8503861, 0.0089536365, 0.18480872, 0.492554
1755, 214999995, 0.8516738, 0.005974895, 0.18145716, 0.49161926
1756, 215016662, 0.85282856, 0.0030889597, 0.17790963, 0.49094048
1757, 215033329, 0.8540201, -6.608881E-4, 0.17365526, 0.49040157
1758, 215049996, 0.85523117, -0.0063721454, 0.16821063, 0.49014762
1759, 215066663, 0.8563465, -0.01254762, 0.16242336, 0.49003315
1760, 215083330, 0.85735315, -0.017647814, 0.15702547, 0.4898753
1761, 215099997, 0.85829556, -0.020755792, 0.15262139, 0.48949456
1762, 215116664, 0.8592371, -0.023422033, 0.14834075, 0.48903826
1763, 215133331, 0.86019427, -0.026396362, 0.14402333, 0.48849425
1764, 215149998, 0.8611629, -0.02884897, 0.1401413, 0.48777765
1765, 215166665, 0.8621374, -0.030806713, 0.13652718, 0.48696086
1766, 215183332, 0.86314857, -0.034162972, 0.13222335, 0.48613262
1767, 215199999, 0.8642465, -0.041085936, 0.12634277, 0.48520893
1768, 215216666, 0.8652369, -0.049460463, 0.11981803, 0.4843169
1769, 215233333, 0.8660349, -0.055952396, 0.11432847, 0.4835105
1770, 215250000, 0.8666586, -0.06029659, 0.110338755, 0.48279688
1771, 215266667, 0.8671982, -0.063619316, 0.10743041, 0.48205692
1772, 215283334, 0.86772454, -0.06619217, 0.10469099, 0.48136553
1773, 215300001, 0.86833173, -0.07041023, 0.10118893, 0.4804201
1774, 215316668, 0.8688555, -0.07499817, 0.09747269, 0.47954637
1775, 215333335, 0.8693107, -0.07882395, 0.09390112, 0.4788202
1776, 215350002, 0.86988753, -0.079904154, 0.09146853, 0.4780636
1777, 215366669, 0.87040955, -0.0787242, 0.090050995, 0.47757807
1778, 215383336, 0.87104267, -0.07706292, 0.08857101, 0.4769714
1779, 215400003, 0.8715748, -0.076139204, 0.08664168, 0.47650167
1780, 215416670, 0.8720785, -0.07547546, 0.08443301, 0.47608194
1781, 215433337, 0.87251997, -0.07455652, 0.08228104, 0.47579437
1782, 215450004, 0.8729748, -0.073246896, 0.08003131, 0.4755474
1783, 215466671, 0.87340254, -0.07188027, 0.07746883, 0.47539482
1784, 215483338, 0.8739327, -0.07021265, 0.075271755, 0.4750226
1785, 215500005, 0.8744989, -0.06819697, 0.07355463, 0.47454312
1786, 215516672, 0.8749673, -0.06572438, 0.07208536, 0.4742539
1787, 215533339, 0.87542236, -0.06341862, 0.07049354, 0.47396734
1788, 215550006, 0.8758394, -0.06081469, 0.06919036, 0.47373
1789, 215566673, 0.87628675, -0.058434244, 0.068011396, 0.47337285
1790, 215583340, 0.8767028, -0.056191668, 0.06691661, 0.47302997
1791, 215600007, 0.8771632, -0.054786373, 0.06569488, 0.47251236
1792, 215616674, 0.8776158, -0.05343134, 0.06447399, 0.47199485
1793, 215633341, 0.87792987, -0.050782565, 0.06383241, 0.47179055
1794, 215650008, 0.87826866, -0.047626607, 0.06333394, 0.471556
1795, 215666675, 0.8784415, -0.045276277, 0.062167685, 0.47162074
1796, 215683342, 0.87865394, -0.044133924, 0.060494374, 0.47155085
1797, 215700009, 0.87866336, -0.04269092, 0.05932461, 0.47181487
1798, 215716676, 0.8788334, -0.040947028, 0.058731746, 0.4717269
1799, 215733343, 0.878947, -0.03775902, 0.0590314, 0.47174352
1800, 215750010, 0.8790369, -0.034137003, 0.059887327, 0.471744
1801, 215766677, 0.8792015, -0.029823167, 0.06163565, 0.47150466
1802, 215783344, 0.8793753, -0.026765466, 0.062460538, 0.47125554
1803, 215800011, 0.87952137, -0.026172448, 0.06215705, 0.4710562
1804, 215816678, 0.87965924, -0.026368847, 0.061458506, 0.47087955
1805, 215833345, 0.8797465, -0.024616415, 0.06176211, 0.47077143
1806, 215850012, 0.87969977, -0.021297112, 0.062937155, 0.470865
1807, 215866679, 0.8795881, -0.018650461, 0.06393932, 0.47105098
1808, 215883346, 0.8794443, -0.017170018, 0.064517766, 0.47129688
1809, 215900013, 0.8793118, -0.015832473, 0.06503373, 0.47151986
1810, 215916680, 0.87901336, -0.0140187135, 0.06568503, 0.4720433
1811, 215933347, 0.87852633, -0.011642852, 0.06658264, 0.47288814
1812, 215950014, 0.87798125, -0.009029404, 0.06756583, 0.4738171
1813, 215966681, 0.8774118, -0.0069141714, 0.06820485, 0.47481474
1814, 215983348, 0.87680197, -0.005426389, 0.068592064, 0.47590372
1815, 216000015, 0.8762184, -0.004055644, 0.068941206, 0.4769408
1816, 216016682, 0.8757178, -0.0027212286, 0.06939509, 0.4778029
1817, 216033349, 0.8752423, -0.0013405123, 0.06995204, 0.47859827
1818, 216050016, 0.8747798, 2.7796254E-4, 0.0706688, 0.47933978
1819, 216066683, 0.87440264, 0.0014353095, 0.07106015, 0.47996768
1820, 216083350, 0.87410873, 0.0018199713, 0.07106803, 0.48049992
1821, 216100017, 0.87382215, 0.0017137418, 0.070867755, 0.48105115
1822, 216116684, 0.87359107, 0.001522807, 0.070643455, 0.4815043
1823, 216133351, 0.87333995, 0.0016792059, 0.070584595, 0.48196754
1824, 216150018, 0.8731768, 0.0016477464, 0.07067934, 0.48224926
1825, 216166685, 0.87317187, 0.0013827836, 0.07085015, 0.4822339
1826, 216183352, 0.87316144, 0.0012334988, 0.071051925, 0.48222354
1827, 216200019, 0.8730723, 0.0012912597, 0.07141071, 0.48233172
1828, 216216686, 0.8729595, 0.0011098013, 0.07168905, 0.48249492
1829, 216233353, 0.8729435, 4.362248E-4, 0.07191629, 0.48249114
1830, 216250020, 0.87298083, -6.019605E-4, 0.07202925, 0.4824066
1831, 216266687, 0.8730006, -0.0013588357, 0.07221499, 0.48234162
1832, 216283354, 0.87297475, -0.001772008, 0.07252527, 0.4823407
1833, 216300021, 0.87295014, -0.0023032126, 0.0727935, 0.48234227
1834, 216316688, 0.87297815, -0.0029540309, 0.07293964, 0.48226607
1835, 216333355, 0.87301624, -0.0034764302, 0.07318116, 0.48215708
1836, 216350022, 0.8730149, -0.003797547, 0.07361743, 0.48209074
1837, 216366689, 0.87295437, -0.0041034343, 0.07407756, 0.4821274
1838, 216383356, 0.8728613, -0.0043343552, 0.07459058, 0.48221454
1839, 216400023, 0.87273973, -0.004388595, 0.075170346, 0.48234406
1840, 216416690, 0.8726352, -0.004653285, 0.075633556, 0.4824584
1841, 216433357, 0.8725356, -0.0053278604, 0.075914234, 0.48258778
1842, 216450024, 0.8724007, -0.0062009236, 0.0761198, 0.4827885
1843, 216466691, 0.8722515, -0.0071730064, 0.07628963, 0.4830177
1844, 216483358, 0.8721174, -0.008067331, 0.07646898, 0.48321745
1845, 216500025, 0.87208205, -0.008953786, 0.07677229, 0.4832175
1846, 216516692, 0.87208873, -0.009824206, 0.07712604, 0.4831323
1847, 216533359, 0.8721428, -0.010545005, 0.077636115, 0.48293757
1848, 216550026, 0.8722028, -0.011321504, 0.078069545, 0.4827417
1849, 216566693, 0.87228346, -0.011960342, 0.078600176, 0.48249456
1850, 216583360, 0.8723718, -0.012518818, 0.079177804, 0.48222634
1851, 216600027, 0.8724475, -0.012918888, 0.07970104, 0.4819925
1852, 216616694, 0.87250805, -0.013094703, 0.0802161, 0.48179218
1853, 216633361, 0.87257195, -0.0133393025, 0.0806161, 0.481603
1854, 216650028, 0.8726292, -0.013748237, 0.08088765, 0.48144242
1855, 216666695, 0.8726519, -0.014293492, 0.08102211, 0.48136288
1856, 216683362, 0.8726459, -0.014716115, 0.08125703, 0.48132128
1857, 216700029, 0.8726525, -0.015153432, 0.081497535, 0.48125544
1858, 216716696, 0.8727539, -0.015861275, 0.0816531, 0.4810221
1859, 216733363, 0.8729384, -0.016513575, 0.08179228, 0.48064166
1860, 216750030, 0.87315774, -0.01696762, 0.08203518, 0.48018566
1861, 216766697, 0.8733709, -0.017080097, 0.082379825, 0.47973484
1862, 216783364, 0.8735479, -0.01714079, 0.0827162, 0.4793524
1863, 216800031, 0.8737591, -0.017292744, 0.08301452, 0.47891018
1864, 216816698, 0.87403685, -0.017534804, 0.08326484, 0.47835076
1865, 216833365, 0.87434256, -0.017665016, 0.083433814, 0.4777575
1866, 216850032, 0.8746282, -0.017652297, 0.08357524, 0.47721013
1867, 216866699, 0.8749239, -0.017675105, 0.08366654, 0.476651
1868, 216883366, 0.8752546, -0.017833604, 0.08371307, 0.47602943
1869, 216900033, 0.87557244, -0.018079642, 0.083644986, 0.47544733
1870, 216916700, 0.8758668, -0.018227372, 0.08356431, 0.47491315
1871, 216933367, 0.8761755, -0.018467724, 0.08345235, 0.47435376
1872, 216950034, 0.87655145, -0.018959796, 0.0832978, 0.4736667
1873, 216966701, 0.8769219, -0.01941734, 0.08318804, 0.47298115
1874, 216983368, 0.87727636, -0.019569103, 0.083165556, 0.47232097
1875, 217000035, 0.87759465, -0.01950743, 0.08330099, 0.47170812
1876, 217016702, 0.87795824, -0.01964725, 0.08341522, 0.4710048
1877, 217033369, 0.8783282, -0.020024601, 0.08337434, 0.470306
1878, 217050036, 0.87867296, -0.020378543, 0.08336272, 0.46964836
1879, 217066703, 0.8789793, -0.020413108, 0.083452575, 0.46905708
1880, 217083370, 0.879233, -0.020384518, 0.08361689, 0.4685532
1881, 217100037, 0.8794515, -0.02017865, 0.083818436, 0.46811602
1882, 217116704, 0.8796506, -0.019784281, 0.08403669, 0.46771973
1883, 217133371, 0.8798221, -0.019528847, 0.08409694, 0.4673967
1884, 217150038, 0.8799749, -0.01939474, 0.08412813, 0.46710876
1885, 217166705, 0.8801029, -0.019351143, 0.0840532, 0.46688303
1886, 217183372, 0.8801992, -0.019415893, 0.08384076, 0.46673718
1887, 217200039, 0.88027346, -0.01957146, 0.08356036, 0.4666409
1888, 217216706, 0.8803265, -0.019704394, 0.08334934, 0.46657294
1889, 217233373, 0.8803674, -0.019738888, 0.08332643, 0.46649835
1890, 217250040, 0.88041174, -0.019796874, 0.08323558, 0.4664283
1891, 217266707, 0.8805012, -0.020185763, 0.082886666, 0.46630478
1892, 217283374, 0.8805923, -0.02065895, 0.08254721, 0.4661724
1893, 217300041, 0.88063955, -0.020864898, 0.0823911, 0.46610174
1894, 217316708, 0.88063806, -0.020625722, 0.08248974, 0.46609753
1895, 217333375, 0.880678, -0.020378308, 0.08264938, 0.4660048
1896, 217350042, 0.88070714, -0.020492204, 0.08259932, 0.46595344
1897, 217366709, 0.88073075, -0.02084887, 0.08240309, 0.46592775
1898, 217383376, 0.88071793, -0.021199893, 0.08220407, 0.46597132
1899, 217400043, 0.8806999, -0.021284318, 0.08220334, 0.46600172
