DeviceTag:,Xsens DOT 5,,,,,,,,,,,,,,,,,
FirmwareVersion:,1.3.0,,,,,,,,,,,,,,,,,
AppVersion:,2020.1.1,,,,,,,,,,,,,,,,,
Measurement Mode:,Sensor fusion Mode - Orientation (Quaternion),,,,,,,,,,,,,,,,,
StartTime:,2020-08-04 10:55:34.216 +0200,,,,,,,,,,,,,,,,,
© Xsens Technologies B. V. 2005-2020,,,,,,,,,,,,,,,,,,,
PacketCounter,SampleTimeFine,Quat_W,Quat_X,Quat_Y,Quat_Z
1, 1639782924, 0.9941567, -0.0046744216, -0.049439397, -0.095845535
2, 1639799591, 0.9941843, -0.005385152, -0.049123906, -0.09568477
3, 1639816258, 0.9941633, -0.006665494, -0.049542274, -0.09560748
4, 1639832925, 0.9941376, -0.007534553, -0.050026752, -0.09555641
5, 1639849592, 0.9941323, -0.00785601, -0.05031969, -0.09543213
6, 1639866259, 0.99413276, -0.007874585, -0.05065104, -0.09525097
7, 1639882926, 0.9941201, -0.007948413, -0.050979793, -0.095201835
8, 1639899593, 0.99408627, -0.008077882, -0.05140624, -0.09531485
9, 1639916260, 0.9940606, -0.008103208, -0.05161697, -0.09546724
10, 1639932927, 0.99405324, -0.007973328, -0.051731363, -0.0954918
11, 1639949594, 0.99407, -0.007781096, -0.05162194, -0.09539326
12, 1639966261, 0.99411047, -0.007593867, -0.051193528, -0.0952163
13, 1639982928, 0.9941424, -0.0074061933, -0.050948437, -0.095029734
14, 1639999595, 0.99416625, -0.0072003673, -0.05075298, -0.094899595
15, 1640016262, 0.99417883, -0.007104813, -0.05081312, -0.09474307
16, 1640032929, 0.99418163, -0.007104501, -0.0507487, -0.094747335
17, 1640049596, 0.9941979, -0.007091994, -0.050630026, -0.094641626
18, 1640066263, 0.9941999, -0.006962879, -0.05043713, -0.09473336
19, 1640082930, 0.9942447, -0.006962636, -0.050330337, -0.09431969
20, 1640099597, 0.9942308, -0.0070401835, -0.050635673, -0.09429635
21, 1640116264, 0.99419326, -0.007228031, -0.05082709, -0.09457451
22, 1640132931, 0.99415594, -0.0074373004, -0.05089633, -0.09491283
23, 1640149598, 0.9941737, -0.007439874, -0.05062051, -0.09487501
24, 1640166265, 0.99418753, -0.0073798266, -0.050571088, -0.094760284
25, 1640182932, 0.9941818, -0.0074771144, -0.050671328, -0.09475839
26, 1640199599, 0.99418116, -0.0076817246, -0.050706737, -0.09473049
27, 1640216266, 0.99414784, -0.0079180105, -0.050707974, -0.095060155
28, 1640232933, 0.9941607, -0.007945128, -0.050636344, -0.0949603
29, 1640249600, 0.9941883, -0.007822003, -0.050269324, -0.09487779
30, 1640266267, 0.9942223, -0.007765202, -0.050068844, -0.09463201
31, 1640282934, 0.99421096, -0.007855068, -0.050199177, -0.094673604
32, 1640299601, 0.9941852, -0.00794733, -0.050392486, -0.0948342
33, 1640316268, 0.99415994, -0.007912808, -0.050546575, -0.09501948
34, 1640332935, 0.9941441, -0.0077852984, -0.05059183, -0.09517167
35, 1640349602, 0.9941595, -0.0076467004, -0.05064433, -0.094994515
36, 1640366269, 0.9941108, -0.0076701203, -0.05093695, -0.09534456
37, 1640382936, 0.9940839, -0.007729627, -0.051266305, -0.09544405
38, 1640399603, 0.9940728, -0.0077386824, -0.051261414, -0.09555959
39, 1640416270, 0.9941114, -0.0075728893, -0.05108844, -0.095264725
40, 1640432937, 0.99412996, -0.0073959255, -0.0510915, -0.09508402
41, 1640449604, 0.9941224, -0.0073006554, -0.051302522, -0.09505673
42, 1640466271, 0.9941326, -0.0073843426, -0.051622, -0.09476944
43, 1640482938, 0.9941605, -0.007428046, -0.05171474, -0.09442197
44, 1640499605, 0.9942554, -0.0071923328, -0.05124927, -0.093691364
45, 1640516272, 0.9942474, -0.006944243, -0.051074103, -0.093890935
46, 1640532939, 0.99422324, -0.0068562683, -0.051206656, -0.09408088
47, 1640549606, 0.9942069, -0.006985809, -0.051530413, -0.094066344
48, 1640566273, 0.9942064, -0.0069934824, -0.051616192, -0.09402438
49, 1640582940, 0.9942089, -0.0068680467, -0.051544815, -0.09404716
50, 1640599607, 0.99420416, -0.006770089, -0.051476605, -0.09414071
51, 1640616274, 0.99421614, -0.0066789663, -0.05146209, -0.094029054
52, 1640632941, 0.99415076, -0.0067076036, -0.051501244, -0.094694816
53, 1640649608, 0.99413484, -0.006788837, -0.051631745, -0.09478462
54, 1640666275, 0.99414897, -0.006764891, -0.051609565, -0.09464993
55, 1640682942, 0.9941745, -0.0065898346, -0.05132078, -0.094551176
56, 1640699609, 0.9942105, -0.0064052106, -0.051013127, -0.09435197
57, 1640716276, 0.9941944, -0.006334712, -0.051187877, -0.09443225
58, 1640732943, 0.99416345, -0.0063588317, -0.051404, -0.09463962
59, 1640749610, 0.99416786, -0.0063332766, -0.05150619, -0.09453886
60, 1640766277, 0.9941925, -0.006222163, -0.051289998, -0.09440405
61, 1640782944, 0.99422544, -0.006117976, -0.051161334, -0.09413397
62, 1640799611, 0.9942366, -0.0060262745, -0.051207773, -0.09399618
63, 1640816278, 0.99423504, -0.0059081633, -0.05137859, -0.09392757
64, 1640832945, 0.9942342, -0.0057845046, -0.051485535, -0.093885146
65, 1640849612, 0.9942557, -0.0056427787, -0.05143858, -0.093692124
66, 1640866279, 0.99425614, -0.0053354413, -0.051684655, -0.09356957
67, 1640882946, 0.99423474, -0.0050620823, -0.05169564, -0.09380514
68, 1640899613, 0.99426734, -0.0049026217, -0.05195179, -0.09332601
69, 1640916280, 0.9942702, -0.0047583533, -0.051779263, -0.093399465
70, 1640932947, 0.994274, -0.0044724434, -0.05167888, -0.0934279
71, 1640949614, 0.99428105, -0.0040657637, -0.051628135, -0.093401015
72, 1640966281, 0.99433607, -0.0036782185, -0.05147367, -0.09291366
73, 1640982948, 0.99437314, -0.003434277, -0.051383454, -0.092574894
74, 1640999615, 0.9944453, -0.0032788052, -0.051107578, -0.09195693
75, 1641016282, 0.994474, -0.0032048812, -0.051135737, -0.09163358
76, 1641032949, 0.9945444, -0.0032410074, -0.05148451, -0.09066736
77, 1641049616, 0.9945655, -0.0032599878, -0.051693253, -0.09031694
78, 1641066283, 0.9945577, -0.0030703768, -0.051735144, -0.09038456
79, 1641082950, 0.9946295, -0.0028529668, -0.05147085, -0.08974982
80, 1641099617, 0.99467033, -0.0027259598, -0.051205046, -0.08945327
81, 1641116284, 0.994713, -0.002743725, -0.0510296, -0.08907735
82, 1641132951, 0.99470973, -0.0028560732, -0.051129192, -0.08905411
83, 1641149618, 0.994691, -0.0028356933, -0.05115252, -0.089249514
84, 1641166285, 0.994681, -0.002756706, -0.050947905, -0.089479476
85, 1641182952, 0.9946487, -0.0027089235, -0.050892647, -0.089869745
86, 1641199619, 0.99468136, -0.002702968, -0.050944433, -0.08947854
87, 1641216286, 0.99473274, -0.0026940657, -0.05101325, -0.088866286
88, 1641232953, 0.99472606, -0.0027126216, -0.05116036, -0.08885642
89, 1641249620, 0.9947179, -0.0026655497, -0.05105309, -0.08901103
90, 1641266287, 0.99470556, -0.0024779683, -0.050809957, -0.08929194
91, 1641282954, 0.99469215, -0.0025021455, -0.050838068, -0.089426346
92, 1641299621, 0.99470305, -0.002627658, -0.05117506, -0.08910845
93, 1641316288, 0.99469626, -0.0026908685, -0.05130208, -0.089109816
94, 1641332955, 0.99470216, -0.0027794368, -0.051362727, -0.089006715
95, 1641349622, 0.9947403, -0.0028648202, -0.051311933, -0.08860519
96, 1641366289, 0.9947465, -0.0029752, -0.051482856, -0.088431925
97, 1641382956, 0.9947832, -0.002919237, -0.05160536, -0.08794718
98, 1641399623, 0.99480397, -0.002711203, -0.051401764, -0.087838724
99, 1641416290, 0.9948342, -0.0025408766, -0.051359925, -0.08752707
100, 1641432957, 0.9948739, -0.0024432815, -0.05132228, -0.08709918
101, 1641449624, 0.9948853, -0.0025182024, -0.051590335, -0.08680718
102, 1641466291, 0.9949177, -0.00268098, -0.051862516, -0.08626885
103, 1641482958, 0.9949584, -0.0025848637, -0.051879995, -0.08578979
104, 1641499625, 0.99495846, -0.002381469, -0.052017063, -0.0857117
105, 1641516292, 0.9949622, -0.002313897, -0.052927054, -0.085110545
106, 1641532959, 0.9948114, -0.0024789863, -0.054795206, -0.08568428
107, 1641549626, 0.9946376, -0.0030558158, -0.057322208, -0.086029544
108, 1641566293, 0.9944354, -0.0035760358, -0.060879234, -0.08590246
109, 1641582960, 0.99412173, -0.003986096, -0.065852016, -0.08584723
110, 1641599627, 0.9937129, -0.0042709056, -0.07253138, -0.08518108
111, 1641616294, 0.99319303, -0.0045793657, -0.07939347, -0.08510993
112, 1641632961, 0.99259794, -0.0046505313, -0.086463116, -0.08515938
113, 1641649628, 0.9919508, -0.004426135, -0.09391544, -0.08481874
114, 1641666295, 0.9912708, -0.0041404613, -0.100873455, -0.08479283
115, 1641682962, 0.990598, -0.0038468237, -0.10687224, -0.08531902
116, 1641699629, 0.9900372, -0.0031723874, -0.1134603, -0.08332602
117, 1641716296, 0.98890364, -0.0031731923, -0.1237705, -0.08210097
118, 1641732963, 0.9872169, -0.004203973, -0.13753752, -0.080429256
119, 1641749630, 0.98517245, -0.005773361, -0.15201491, -0.07933179
120, 1641766297, 0.9831203, -0.006914583, -0.16514161, -0.07845542
121, 1641782964, 0.9811496, -0.007926251, -0.17665279, -0.07795419
122, 1641799631, 0.979323, -0.008855929, -0.18679915, -0.07716418
123, 1641816298, 0.9768072, -0.010370611, -0.19995919, -0.07587284
124, 1641832965, 0.973342, -0.012437029, -0.21661444, -0.0743576
125, 1641849632, 0.96995807, -0.014409786, -0.23142707, -0.07359108
126, 1641866299, 0.96695954, -0.015149647, -0.24365307, -0.07343769
127, 1641882966, 0.9645765, -0.015321901, -0.25297564, -0.073219255
128, 1641899633, 0.96160054, -0.015947204, -0.26425505, -0.072383985
129, 1641916300, 0.9585974, -0.016571607, -0.275009, -0.07201752
130, 1641932967, 0.95552355, -0.01698991, -0.285483, -0.07201128
131, 1641949634, 0.952638, -0.017174345, -0.29490834, -0.0722151
132, 1641966301, 0.9502444, -0.016875293, -0.30252627, -0.07231051
133, 1641982968, 0.9481656, -0.016384944, -0.3089853, -0.07239912
134, 1641999635, 0.9455632, -0.01636503, -0.3168757, -0.072334655
135, 1642016302, 0.94260794, -0.016720658, -0.32553726, -0.07236288
136, 1642032969, 0.9391334, -0.017355856, -0.3354086, -0.07230832
137, 1642049636, 0.9361567, -0.017455705, -0.34363312, -0.07226823
138, 1642066303, 0.933016, -0.017512327, -0.35211146, -0.072055124
139, 1642082970, 0.93025345, -0.017556423, -0.35940737, -0.07173986
140, 1642099637, 0.9275518, -0.017857837, -0.3663568, -0.07149526
141, 1642116304, 0.9246665, -0.018005738, -0.37361854, -0.071253695
142, 1642132971, 0.92171365, -0.018039217, -0.38088492, -0.07103099
143, 1642149638, 0.91873056, -0.018031932, -0.38810718, -0.07058378
144, 1642166305, 0.91593266, -0.018178357, -0.3947798, -0.06989996
145, 1642182972, 0.91311514, -0.018417839, -0.40135688, -0.06924075
146, 1642199639, 0.91026884, -0.018863464, -0.40781927, -0.06883741
147, 1642216306, 0.9073262, -0.019374553, -0.4143708, -0.06841679
148, 1642232973, 0.90362924, -0.0200355, -0.4224952, -0.06746088
149, 1642249640, 0.9000663, -0.020315895, -0.4302082, -0.06625018
150, 1642266307, 0.8969804, -0.020243753, -0.4367949, -0.065015465
151, 1642282974, 0.89361745, -0.020153755, -0.44383472, -0.06366067
152, 1642299641, 0.8898918, -0.020271579, -0.45147854, -0.062040843
153, 1642316308, 0.8860268, -0.020953191, -0.45926446, -0.0599505
154, 1642332975, 0.8822332, -0.021902004, -0.46670002, -0.058107052
155, 1642349642, 0.87854105, -0.022563197, -0.47374946, -0.056728963
156, 1642366309, 0.87439066, -0.023227714, -0.48153248, -0.055029355
157, 1642382976, 0.87015176, -0.024061354, -0.48931226, -0.053205956
158, 1642399643, 0.8659165, -0.024767704, -0.4969122, -0.051511444
159, 1642416310, 0.86162907, -0.024927823, -0.5044092, -0.050451938
160, 1642432977, 0.8578898, -0.024897497, -0.51080257, -0.049864218
161, 1642449644, 0.8541998, -0.024809638, -0.5170314, -0.049052443
162, 1642466311, 0.8506838, -0.024944834, -0.5228455, -0.048452582
163, 1642482978, 0.84747326, -0.025341377, -0.52802753, -0.048314504
164, 1642499645, 0.844287, -0.025745608, -0.53312105, -0.047947254
165, 1642516312, 0.8412397, -0.026237486, -0.53794634, -0.047340527
166, 1642532979, 0.83844525, -0.02675875, -0.5423164, -0.046764303
167, 1642549646, 0.836131, -0.027041001, -0.54589117, -0.04644125
168, 1642566313, 0.8335943, -0.027171787, -0.54981345, -0.04568917
169, 1642582980, 0.8310281, -0.02717349, -0.55376154, -0.044745736
170, 1642599647, 0.82874435, -0.027316462, -0.5572258, -0.044001736
171, 1642616314, 0.8272116, -0.027463518, -0.5595558, -0.043177966
172, 1642632981, 0.8256725, -0.027486883, -0.5619006, -0.042159148
173, 1642649648, 0.8238025, -0.02716347, -0.56472445, -0.04120983
174, 1642666315, 0.8220138, -0.026885288, -0.56737447, -0.04070717
175, 1642682982, 0.8207466, -0.026510723, -0.5692266, -0.04066631
176, 1642699649, 0.8200099, -0.02573575, -0.5702836, -0.041211046
177, 1642716316, 0.81913096, -0.024474826, -0.57154465, -0.041981068
178, 1642732983, 0.81762636, -0.02350604, -0.5737117, -0.042305864
179, 1642749650, 0.8170983, -0.022737991, -0.5744826, -0.042465
180, 1642766317, 0.81587774, -0.021989698, -0.57627136, -0.04209043
181, 1642782984, 0.81425077, -0.02153248, -0.57861197, -0.04172016
182, 1642799651, 0.8124911, -0.021355493, -0.581085, -0.041740127
183, 1642816318, 0.8101783, -0.021539092, -0.5842849, -0.041936737
184, 1642832985, 0.80804276, -0.021782879, -0.58722126, -0.041998155
185, 1642849652, 0.80558497, -0.021883078, -0.5905958, -0.041843485
186, 1642866319, 0.8023627, -0.02169909, -0.5949969, -0.041497555
187, 1642882986, 0.7984297, -0.021572448, -0.6002704, -0.041476596
188, 1642899653, 0.7947296, -0.021903928, -0.6051157, -0.041955482
189, 1642916320, 0.79130936, -0.022549078, -0.60951656, -0.04255464
190, 1642932987, 0.78802586, -0.02319317, -0.61369586, -0.043069016
191, 1642949654, 0.78566206, -0.02317308, -0.6166809, -0.043623004
192, 1642966321, 0.78267056, -0.022452548, -0.6205127, -0.04343894
193, 1642982988, 0.7793454, -0.021913845, -0.62474006, -0.0429012
194, 1642999655, 0.7760248, -0.02151509, -0.6289133, -0.042317353
195, 1643016322, 0.7729407, -0.021106271, -0.6327658, -0.041530475
196, 1643032989, 0.7698638, -0.020964427, -0.63655144, -0.040898696
197, 1643049656, 0.76740927, -0.020666126, -0.63952094, -0.04085525
198, 1643066323, 0.7655554, -0.020265518, -0.64175177, -0.040857356
199, 1643082990, 0.76365256, -0.019710695, -0.64407814, -0.040121175
200, 1643099657, 0.76092213, -0.019506771, -0.6473777, -0.03897616
201, 1643116324, 0.7582081, -0.01969368, -0.65061015, -0.03793549
202, 1643132991, 0.7563322, -0.020017477, -0.6528246, -0.037164625
203, 1643149658, 0.7547241, -0.020095073, -0.654719, -0.03648688
204, 1643166325, 0.75393414, -0.019772151, -0.6556433, -0.036394205
205, 1643182992, 0.75404406, -0.01938986, -0.6555041, -0.036828548
206, 1643199659, 0.7545545, -0.019038346, -0.65490234, -0.037258983
207, 1643216326, 0.7557345, -0.018584138, -0.6535258, -0.03773833
208, 1643232993, 0.75662607, -0.01810538, -0.65247583, -0.038268764
209, 1643249660, 0.7570678, -0.017709196, -0.65194815, -0.038713902
210, 1643266327, 0.7570067, -0.01741956, -0.6520209, -0.0388175
211, 1643282994, 0.757089, -0.017188702, -0.6519359, -0.03873569
212, 1643299661, 0.75774574, -0.016807724, -0.6511848, -0.038695913
213, 1643316328, 0.75815004, -0.016145434, -0.65074944, -0.03838412
214, 1643332995, 0.75868183, -0.015595627, -0.6501599, -0.038093254
215, 1643349662, 0.7587592, -0.015191146, -0.6500918, -0.037881438
216, 1643366329, 0.7590177, -0.014699419, -0.6498021, -0.03786012
217, 1643382996, 0.75864345, -0.014424625, -0.6502595, -0.037618186
218, 1643399663, 0.75872225, -0.014157316, -0.6501874, -0.037372317
219, 1643416330, 0.7587009, -0.013865212, -0.65023565, -0.03707324
220, 1643432997, 0.7582851, -0.013655758, -0.650739, -0.036827385
221, 1643449664, 0.7575697, -0.013587867, -0.6515748, -0.036800228
222, 1643466331, 0.7573476, -0.01350743, -0.65182555, -0.036954097
223, 1643482998, 0.7574618, -0.013394425, -0.651694, -0.03697923
224, 1643499665, 0.7578576, -0.013226984, -0.65123713, -0.036977723
225, 1643516332, 0.75818723, -0.013026136, -0.65085626, -0.03699757
226, 1643532999, 0.7583139, -0.0128318705, -0.6507177, -0.036904156
227, 1643549666, 0.7586878, -0.012580339, -0.65029055, -0.03683784
228, 1643566333, 0.75897944, -0.01240739, -0.6499706, -0.036531724
229, 1643583000, 0.7590773, -0.012571814, -0.6498859, -0.035944298
230, 1643599667, 0.759105, -0.013004396, -0.6498706, -0.035482224
231, 1643616334, 0.75927424, -0.013347351, -0.6496767, -0.035289213
232, 1643633001, 0.75934684, -0.013429004, -0.6495939, -0.03521131
233, 1643649668, 0.75928473, -0.013453108, -0.64967066, -0.035126094
234, 1643666335, 0.7592587, -0.013530803, -0.6496975, -0.03516521
235, 1643683002, 0.7595455, -0.013565933, -0.6493544, -0.03529387
236, 1643699669, 0.75979877, -0.013520634, -0.6490627, -0.03522785
237, 1643716336, 0.7595313, -0.013572871, -0.6493897, -0.034943342
238, 1643733003, 0.75907975, -0.013787098, -0.64991796, -0.03484921
239, 1643749670, 0.7590629, -0.0139899915, -0.6499187, -0.035121042
240, 1643766337, 0.75930184, -0.013965889, -0.6496316, -0.035282854
241, 1643783004, 0.75936276, -0.01379161, -0.6495676, -0.03521432
242, 1643799671, 0.7596101, -0.013594313, -0.6492825, -0.035217315
243, 1643816338, 0.7597415, -0.013491064, -0.64912254, -0.0353683
244, 1643833005, 0.75966895, -0.013435641, -0.64920986, -0.035343472
245, 1643849672, 0.7596771, -0.013341851, -0.6492153, -0.035103697
246, 1643866339, 0.7596487, -0.013355286, -0.6492628, -0.034831814
247, 1643883006, 0.76014066, -0.013358955, -0.6486889, -0.034795344
248, 1643899673, 0.76060295, -0.013233491, -0.64813673, -0.035027012
249, 1643916340, 0.7611177, -0.013053789, -0.64751387, -0.035432797
250, 1643933007, 0.761724, -0.012837931, -0.6467896, -0.03570669
251, 1643949674, 0.7624464, -0.012618564, -0.6459388, -0.035767697
252, 1643966341, 0.7629803, -0.012500743, -0.6453035, -0.035892338
253, 1643983008, 0.7628913, -0.012484843, -0.6454074, -0.035924416
254, 1643999675, 0.76291144, -0.012440996, -0.64538556, -0.035903085
255, 1644016342, 0.7628689, -0.012516351, -0.64543617, -0.03587063
256, 1644033009, 0.7627881, -0.012585107, -0.6455359, -0.035771422
257, 1644049676, 0.76271373, -0.012512507, -0.64563, -0.03568587
258, 1644066343, 0.7625558, -0.01243874, -0.6458256, -0.035544317
259, 1644083010, 0.7623449, -0.0123646315, -0.64608294, -0.03541652
260, 1644099677, 0.762199, -0.01232435, -0.64626116, -0.035321042
261, 1644116344, 0.76243013, -0.012401932, -0.64599246, -0.035221126
262, 1644133011, 0.7628649, -0.012581146, -0.64548427, -0.03505993
263, 1644149678, 0.76349384, -0.012685546, -0.6447458, -0.03491897
264, 1644166345, 0.7642921, -0.012658132, -0.643802, -0.034880918
265, 1644183012, 0.76579654, -0.012524972, -0.642005, -0.035053477
266, 1644199679, 0.7673888, -0.012316446, -0.6401047, -0.035055246
267, 1644216346, 0.76889944, -0.012194235, -0.63829994, -0.03490958
268, 1644233013, 0.7704343, -0.012100473, -0.6364489, -0.034893762
269, 1644249680, 0.77218384, -0.01173726, -0.6343228, -0.035059646
270, 1644266347, 0.77388334, -0.011213847, -0.6322604, -0.035013173
271, 1644283014, 0.7760733, -0.01050608, -0.62960243, -0.03465105
272, 1644299681, 0.7788113, -0.009688624, -0.6262618, -0.033994894
273, 1644316348, 0.78221244, -0.008842238, -0.6220413, -0.033621766
274, 1644333015, 0.7846655, -0.008250295, -0.6189605, -0.033469725
275, 1644349682, 0.78698283, -0.007922701, -0.61599934, -0.033768512
276, 1644366349, 0.7895468, -0.0076388996, -0.61268663, -0.03424742
277, 1644383016, 0.79249436, -0.006984036, -0.6088247, -0.03516859
278, 1644399683, 0.79564685, -0.0062845964, -0.60462016, -0.03662426
279, 1644416350, 0.799545, -0.005859878, -0.5993257, -0.03875819
280, 1644433017, 0.80391705, -0.005673772, -0.593307, -0.04089075
281, 1644449684, 0.8086676, -0.005678695, -0.5866634, -0.043017384
282, 1644466351, 0.813023, -0.005567961, -0.58045274, -0.045137428
283, 1644483018, 0.8172329, -0.0053606974, -0.57435626, -0.047082327
284, 1644499685, 0.82123727, -0.0052853213, -0.5684989, -0.0484804
285, 1644516352, 0.82599217, -0.0049852408, -0.5614227, -0.05016788
286, 1644533019, 0.8318119, -0.0039390754, -0.55253094, -0.05275844
287, 1644549686, 0.83692867, -0.0026453324, -0.54462785, -0.054076802
288, 1644566353, 0.84043, -0.0014116956, -0.53915304, -0.054679085
289, 1644583020, 0.84490395, 2.2167682E-4, -0.53207785, -0.055051316
290, 1644599687, 0.84933823, 0.0016142267, -0.5249661, -0.055069495
291, 1644616354, 0.8524938, 0.002413118, -0.51984215, -0.054889943
292, 1644633021, 0.8540308, 0.002578267, -0.5173256, -0.054765876
293, 1644649688, 0.85658413, 0.003467955, -0.51309806, -0.054610882
294, 1644666355, 0.86015594, 0.004865098, -0.50704247, -0.054921653
295, 1644683022, 0.86477757, 0.0065910467, -0.4990469, -0.055394474
296, 1644699689, 0.8686238, 0.007844011, -0.4922398, -0.055958655
297, 1644716356, 0.8723835, 0.008875629, -0.4853907, -0.057135228
298, 1644733023, 0.8762084, 0.009768143, -0.47819886, -0.059071742
299, 1644749690, 0.8800151, 0.011258478, -0.47088453, -0.06094937
300, 1644766357, 0.8837388, 0.013507677, -0.46359336, -0.06248938
301, 1644783024, 0.88875854, 0.016258249, -0.45355397, -0.06429123
302, 1644799691, 0.8941998, 0.018853456, -0.4423063, -0.06646066
303, 1644816358, 0.8974298, 0.01981064, -0.43540767, -0.0681731
304, 1644833025, 0.8995857, 0.019883037, -0.43081948, -0.06888435
305, 1644849692, 0.9022538, 0.019953445, -0.42509368, -0.069538765
306, 1644866359, 0.90495086, 0.02062526, -0.41917792, -0.070205785
307, 1644883026, 0.9074946, 0.02140966, -0.4134807, -0.07091572
308, 1644899693, 0.91065603, 0.022116864, -0.40624666, -0.07197624
309, 1644916360, 0.9138232, 0.022678219, -0.39882317, -0.073165014
310, 1644933027, 0.91677165, 0.023018086, -0.39183167, -0.07394776
311, 1644949694, 0.91875106, 0.022978675, -0.38716975, -0.07394929
312, 1644966361, 0.9214264, 0.023205202, -0.38079858, -0.073671214
313, 1644983028, 0.9241503, 0.023858765, -0.37404898, -0.07392236
314, 1644999695, 0.926912, 0.02448308, -0.3669506, -0.07471387
315, 1645016362, 0.9308384, 0.025358856, -0.3565786, -0.0758186
316, 1645033029, 0.934736, 0.026406946, -0.34579298, -0.07745146
317, 1645049696, 0.93761736, 0.027162101, -0.33746108, -0.07909713
318, 1645066363, 0.940807, 0.02800712, -0.3280887, -0.08034764
319, 1645083030, 0.94467515, 0.029392956, -0.3162964, -0.081742235
320, 1645099697, 0.9480353, 0.030870926, -0.30560672, -0.082951225
321, 1645116364, 0.95053416, 0.031925686, -0.29751816, -0.08336111
322, 1645133031, 0.95256937, 0.03181787, -0.29054275, -0.08476068
323, 1645149698, 0.95476013, 0.031185655, -0.2830836, -0.085583895
324, 1645166365, 0.9562451, 0.030524127, -0.27800295, -0.08589707
325, 1645183032, 0.95772344, 0.029958809, -0.27279887, -0.08630981
326, 1645199699, 0.95923555, 0.029158654, -0.26747096, -0.08646594
327, 1645216366, 0.9608159, 0.027696747, -0.26169255, -0.08707948
328, 1645233033, 0.96228075, 0.025985816, -0.25619203, -0.08778595
329, 1645249700, 0.96411633, 0.024281222, -0.24905229, -0.08867652
330, 1645266367, 0.9662923, 0.02246214, -0.2403662, -0.08943742
331, 1645283034, 0.9687757, 0.020815035, -0.23009834, -0.089975104
332, 1645299701, 0.9708551, 0.019743308, -0.22110482, -0.090353206
333, 1645316368, 0.97216403, 0.01907519, -0.21526428, -0.09052465
334, 1645333035, 0.97351277, 0.018247044, -0.20895588, -0.090980396
335, 1645349702, 0.97472376, 0.01692909, -0.20295238, -0.09185604
336, 1645366369, 0.9757946, 0.015398893, -0.1974464, -0.092751786
337, 1645383036, 0.9767156, 0.013914114, -0.19269945, -0.09327392
338, 1645399703, 0.9776664, 0.012408053, -0.18775125, -0.09361755
339, 1645416370, 0.9786427, 0.010981214, -0.18241264, -0.09414784
340, 1645433037, 0.9795752, 0.009498461, -0.17705561, -0.09483629
341, 1645449704, 0.980648, 0.0077573317, -0.17073172, -0.09549985
342, 1645466371, 0.9819536, 0.0059524714, -0.16311081, -0.09553308
343, 1645483038, 0.9834035, 0.004361789, -0.1546347, -0.09479856
344, 1645499705, 0.9844716, 0.0030745838, -0.14802872, -0.094308026
345, 1645516372, 0.98539317, 0.0014697175, -0.14194885, -0.09406774
346, 1645533039, 0.98633033, -2.2060038E-4, -0.1352769, -0.09409002
347, 1645549706, 0.9872483, -6.9778925E-4, -0.12895699, -0.093331605
348, 1645566373, 0.98850363, -0.0019186101, -0.119870424, -0.092130825
349, 1645583040, 0.98959446, -5.877988E-4, -0.111548305, -0.09088314
350, 1645599707, 0.9908397, -0.0010626104, -0.100606985, -0.09007716
351, 1645616374, 0.9915845, 2.2219481E-4, -0.09388805, -0.089136824
352, 1645633041, 0.99235153, -8.582136E-4, -0.08590727, -0.0886459
353, 1645649708, 0.9929947, -0.0022570277, -0.07867602, -0.08812924
354, 1645666375, 0.9936238, -0.00234236, -0.071291305, -0.08731485
355, 1645683042, 0.9942204, -1.5653859E-6, -0.06356739, -0.08651696
356, 1645699709, 0.9947156, 8.5307215E-4, -0.05617025, -0.08593751
357, 1645716376, 0.9950101, 0.0021477996, -0.05212941, -0.08504727
358, 1645733043, 0.9953491, 0.0015406164, -0.046564035, -0.084320284
359, 1645749710, 0.9956503, 8.2128437E-4, -0.04150859, -0.08340964
360, 1645766377, 0.99585956, 8.6348824E-4, -0.038423244, -0.08238223
361, 1645783044, 0.9960495, 0.0011843715, -0.035024248, -0.081593856
362, 1645799711, 0.99623954, 0.0016388188, -0.030616876, -0.08103679
363, 1645816378, 0.9964612, 0.003910126, -0.026091233, -0.07980684
364, 1645833045, 0.99672997, 0.004600123, -0.020314759, -0.078076296
365, 1645849712, 0.99695545, 0.0046520126, -0.015558812, -0.07626553
366, 1645866379, 0.9971211, 0.0050362465, -0.011906059, -0.07471904
367, 1645883046, 0.99722695, 0.0055656875, -0.009584616, -0.073592536
368, 1645899713, 0.99733037, 0.005845446, -0.0072662765, -0.07242604
369, 1645916380, 0.9974039, 0.0055751298, -0.006826644, -0.07147011
370, 1645933047, 0.9974571, 0.005461437, -0.006312905, -0.07078033
371, 1645949714, 0.9974888, 0.0053942436, -0.0061206743, -0.070354
372, 1645966381, 0.9975167, 0.0056573455, -0.005566009, -0.06998398
373, 1645983048, 0.99752533, 0.0056833434, -0.005680503, -0.06984973
374, 1645999715, 0.9975251, 0.0055094105, -0.0058788885, -0.06984974
375, 1646016382, 0.9975205, 0.004896414, -0.006666234, -0.069891855
376, 1646033049, 0.9975131, 0.0041943057, -0.0073715714, -0.06997115
377, 1646049716, 0.99749255, 0.003530621, -0.008445761, -0.070179306
378, 1646066383, 0.99747413, 0.0030128055, -0.009214737, -0.07036799
379, 1646083050, 0.9974404, 0.002171404, -0.0104325535, -0.07070585
380, 1646099717, 0.9974063, 0.0014813731, -0.011623334, -0.071018055
381, 1646116384, 0.9973701, 0.0010790873, -0.012817697, -0.071328394
382, 1646133051, 0.99735713, 8.3225395E-4, -0.013672861, -0.07135263
383, 1646149718, 0.99736, 3.8054553E-4, -0.014902472, -0.0710705
384, 1646166385, 0.99737245, -1.5764727E-4, -0.015910683, -0.07067608
385, 1646183052, 0.9973686, -7.30973E-4, -0.016690217, -0.07054906
386, 1646199719, 0.99735683, -0.0011628327, -0.017118689, -0.07060578
387, 1646216386, 0.9973466, -0.0016801944, -0.017667675, -0.07060594
388, 1646233053, 0.99734885, -0.0020814894, -0.018302407, -0.07040105
389, 1646249720, 0.99738604, -0.0020630073, -0.018051166, -0.06993796
390, 1646266387, 0.99744695, -0.0021481398, -0.017397104, -0.06922842
391, 1646283054, 0.9974652, -0.0026417603, -0.017821461, -0.068837255
392, 1646299721, 0.9974305, -0.0036890293, -0.01953313, -0.06882861
393, 1646316388, 0.9974041, -0.0048252, -0.020931365, -0.06873162
394, 1646333055, 0.99742293, -0.0052580787, -0.021421982, -0.068271175
395, 1646349722, 0.99745136, -0.0055817654, -0.021815643, -0.06770244
396, 1646366389, 0.9974556, -0.0060499078, -0.022667864, -0.067321345
397, 1646383056, 0.99746275, -0.006327291, -0.023375038, -0.0669454
398, 1646399723, 0.9974581, -0.006878905, -0.02472725, -0.06647458
399, 1646416390, 0.99749184, -0.00750135, -0.025584264, -0.065571055
400, 1646433057, 0.9975602, -0.008105812, -0.026171666, -0.064211056
401, 1646449724, 0.9976893, -0.008153784, -0.025676826, -0.062373683
402, 1646466391, 0.99784476, -0.0080670295, -0.024857005, -0.060194127
403, 1646483058, 0.998012, -0.0077614165, -0.023670074, -0.057895314
404, 1646499725, 0.9981632, -0.007352477, -0.022945024, -0.055586405
405, 1646516392, 0.99834836, -0.006784231, -0.021394467, -0.05288583
406, 1646533059, 0.99855727, -0.0065181004, -0.019892441, -0.049449414
407, 1646549726, 0.998803, -0.006152082, -0.018099502, -0.04502436
408, 1646566393, 0.9990137, -0.005715359, -0.016902607, -0.040661257
409, 1646583060, 0.99922085, -0.0047718138, -0.015065459, -0.036172394
410, 1646599727, 0.9994343, -0.004335652, -0.01377496, -0.03037606
411, 1646616394, 0.9996446, -0.0054010246, -0.012442699, -0.022956915
412, 1646633061, 0.99980867, -0.0057363035, -0.009860661, -0.01590298
413, 1646649728, 0.9999191, -0.0064324434, -0.006718434, -0.008688436
414, 1646666395, 0.9999496, -0.008873052, -0.0046565137, -7.573215E-4
415, 1646683062, 0.999904, -0.01192898, -0.004117381, 0.005737035
416, 1646699729, 0.9998354, -0.013970504, -0.0036370656, 0.0109964935
417, 1646716396, 0.9997461, -0.014856169, -0.0020945277, 0.016821533
418, 1646733063, 0.9996025, -0.015535279, -6.148945E-4, 0.023526696
419, 1646749730, 0.9993796, -0.016612137, 0.0032881268, 0.030884963
420, 1646766397, 0.9991037, -0.016473023, 0.006786238, 0.03840018
421, 1646783064, 0.9987529, -0.017004741, 0.0057837265, 0.04658868
422, 1646799731, 0.9983967, -0.015598364, 0.004508683, 0.054230686
423, 1646816398, 0.99803185, -0.013404361, 0.0029781226, 0.061188824
424, 1646833065, 0.99753857, -0.011786137, 1.7162609E-4, 0.06912318
425, 1646849732, 0.99692714, -0.010064447, -0.0031842524, 0.07762024
426, 1646866399, 0.99623543, -0.0067878775, -0.004414143, 0.08631014
427, 1646883066, 0.99533916, -0.0054553775, -0.0031353987, 0.0962317
428, 1646899733, 0.99425125, -0.00635964, -0.0027955833, 0.10684723
429, 1646916400, 0.9931051, -0.0049957456, -0.0032116612, 0.11707793
430, 1646933067, 0.99198395, -0.001891442, -0.004702747, 0.12626371
431, 1646949734, 0.99080247, -6.465408E-4, -0.0053464193, 0.13521133
432, 1646966401, 0.98976964, 0.0012380178, -0.007948622, 0.14244825
433, 1646983068, 0.9885475, 0.004707129, -0.01039481, 0.15047832
434, 1646999735, 0.9870255, 0.0074827923, -0.011402758, 0.15998429
435, 1647016402, 0.98566383, 0.008591022, -0.013148314, 0.16798969
436, 1647033069, 0.984126, 0.013188835, -0.017108154, 0.17615229
437, 1647049736, 0.98229235, 0.018329931, -0.020291872, 0.18534923
438, 1647066403, 0.9800938, 0.023278158, -0.02445764, 0.1956441
439, 1647083070, 0.9777743, 0.029153315, -0.02773799, 0.20576264
440, 1647099737, 0.97547764, 0.034697577, -0.03000515, 0.21526633
441, 1647116404, 0.97299165, 0.038390614, -0.030846465, 0.22552633
442, 1647133071, 0.97024924, 0.041206088, -0.03431215, 0.23609614
443, 1647149738, 0.9675495, 0.04261709, -0.03856879, 0.2460577
444, 1647166405, 0.96479446, 0.043448932, -0.041309867, 0.25608137
445, 1647183072, 0.9618393, 0.042822503, -0.04317576, 0.26677173
446, 1647199739, 0.95931613, 0.040821917, -0.04444394, 0.27581
447, 1647216406, 0.956982, 0.040503286, -0.04567672, 0.28365284
448, 1647233073, 0.95435345, 0.038913064, -0.045291293, 0.29265043
449, 1647249740, 0.9516373, 0.036165968, -0.043679986, 0.30194506
450, 1647266407, 0.949178, 0.032543644, -0.041160714, 0.31033552
451, 1647283074, 0.9462978, 0.029600287, -0.03896, 0.3195727
452, 1647299741, 0.94331, 0.02326648, -0.034689825, 0.32927448
453, 1647316408, 0.94041854, 0.016077874, -0.029606435, 0.33834633
454, 1647333075, 0.93742025, 0.009483738, -0.025776664, 0.3471157
455, 1647349742, 0.9345036, 0.0047579063, -0.021877894, 0.3552491
456, 1647366409, 0.93198, 0.0029380475, -0.02017009, 0.3619363
457, 1647383076, 0.9294711, -1.21286954E-4, -0.017071059, 0.36850014
458, 1647399743, 0.9264551, -0.0017247591, -0.016050037, 0.37605906
459, 1647416410, 0.92341197, -0.0014668537, -0.015046483, 0.38351277
460, 1647433077, 0.92042434, 3.1579737E-4, -0.0130807785, 0.3907022
461, 1647449744, 0.91663593, -0.0027176782, -0.0077397935, 0.39963934
462, 1647466411, 0.91334516, -7.4635056E-4, -0.005614877, 0.40714696
463, 1647483078, 0.910179, 0.0012223595, -0.004481837, 0.41418937
464, 1647499745, 0.9066083, 0.00212922, -0.001849988, 0.4219641
465, 1647516412, 0.90326613, 0.0022034685, 2.8700812E-4, 0.42907536
466, 1647533079, 0.8997797, 0.003933611, -9.3251234E-5, 0.43632707
467, 1647549746, 0.8961461, 0.00674925, 2.1912542E-4, 0.443708
468, 1647566413, 0.8918454, 0.008721106, 0.0020837598, 0.45225185
469, 1647583080, 0.88694704, 0.008916263, 0.0032012549, 0.46177408
470, 1647599747, 0.88316905, 0.009280387, 0.0018872799, 0.46895957
471, 1647616414, 0.8793246, 0.010951539, 6.2347E-4, 0.47609705
472, 1647633081, 0.8749367, 0.012031075, 0.0010248949, 0.48408714
473, 1647649748, 0.8704686, 0.012969495, 0.0018904939, 0.49204955
474, 1647666415, 0.86634845, 0.015263242, 0.0028619566, 0.49919868
475, 1647683082, 0.8623087, 0.016581703, 0.0039802357, 0.506096
476, 1647699749, 0.858571, 0.016478183, 0.0038213574, 0.5124156
477, 1647716416, 0.8550563, 0.018310215, 0.003444227, 0.51820046
478, 1647733083, 0.8514016, 0.02022071, 0.0019151351, 0.5241211
479, 1647749750, 0.8475506, 0.01986021, 0.0011470307, 0.5303416
480, 1647766417, 0.8431226, 0.021808125, -0.0015210264, 0.53727716
481, 1647783084, 0.838673, 0.02516964, -0.003538214, 0.54404205
482, 1647799751, 0.8347928, 0.025164919, -0.006567491, 0.54995
483, 1647816418, 0.8312647, 0.023593506, -0.009985615, 0.5552863
484, 1647833085, 0.82781, 0.022795888, -0.013398767, 0.5603853
485, 1647849752, 0.8241074, 0.020430446, -0.013992622, 0.56589234
486, 1647866419, 0.82083607, 0.015284957, -0.014534574, 0.5707745
487, 1647883086, 0.81803644, 0.009760581, -0.016035002, 0.5748604
488, 1647899753, 0.8152449, 0.0059645795, -0.015558647, 0.57887673
489, 1647916420, 0.81294453, 0.0010388646, -0.014948459, 0.5821484
490, 1647933087, 0.81154245, -0.0038448914, -0.015142963, 0.5840848
491, 1647949754, 0.80970365, -0.0057848534, -0.016412351, 0.58658105
492, 1647966421, 0.8076383, -0.008780457, -0.016704913, 0.58937633
493, 1647983088, 0.8055119, -0.013391108, -0.016306484, 0.59220433
494, 1647999755, 0.80302846, -0.0150799, -0.015662286, 0.5955441
495, 1648016422, 0.80002606, -0.014881691, -0.015267422, 0.5995864
496, 1648033089, 0.7967454, -0.016778396, -0.013397822, 0.6039337
497, 1648049756, 0.7938916, -0.020324638, -0.011768787, 0.60760576
498, 1648066423, 0.79128194, -0.02121727, -0.00983676, 0.6110044
499, 1648083090, 0.7888432, -0.020408692, -0.007795785, 0.61420643
500, 1648099757, 0.78694606, -0.020561375, -0.006738733, 0.6166424
501, 1648116424, 0.7855879, -0.019433798, -0.0070844116, 0.6184043
502, 1648133091, 0.7836793, -0.015517641, -0.0088517405, 0.6209089
503, 1648149758, 0.7811721, -0.011996866, -0.01067395, 0.62410945
504, 1648166425, 0.7794698, -0.011167087, -0.012861204, 0.6262082
505, 1648183092, 0.7784233, -0.010831847, -0.013637674, 0.62749815
506, 1648199759, 0.7777262, -0.011570092, -0.013214654, 0.628358
507, 1648216426, 0.7768368, -0.012458743, -0.012709805, 0.6294506
508, 1648233093, 0.77577597, -0.012959669, -0.0116595775, 0.63076794
509, 1648249760, 0.77518135, -0.014038406, -0.011586669, 0.63147676
510, 1648266427, 0.77491814, -0.016038507, -0.009893351, 0.631781
511, 1648283094, 0.7747583, -0.019045662, -0.007771604, 0.63192296
512, 1648299761, 0.77426916, -0.021274984, -0.006892603, 0.63246125
513, 1648316428, 0.77307385, -0.02193337, -0.0057175336, 0.6339111
514, 1648333095, 0.7714398, -0.02349804, -0.004076738, 0.6358553
515, 1648349762, 0.76960266, -0.026305659, -0.0018573581, 0.6379783
516, 1648366429, 0.76803523, -0.028142363, -1.0203718E-4, 0.639789
517, 1648383096, 0.7668005, -0.028274382, 0.0016753498, 0.6412603
518, 1648399763, 0.7656511, -0.028334051, 0.0029609525, 0.64262515
519, 1648416430, 0.76432896, -0.027464956, 0.004111276, 0.6442284
520, 1648433097, 0.7632357, -0.025454469, 0.004941695, 0.6455999
521, 1648449764, 0.7627113, -0.023510527, 0.005543196, 0.64628804
522, 1648466431, 0.76242036, -0.022896564, 0.0063659763, 0.64664584
523, 1648483098, 0.7624433, -0.023878846, 0.0074461745, 0.64657164
524, 1648499765, 0.7624597, -0.0242972, 0.007886557, 0.64653146
525, 1648516432, 0.7618687, -0.022916127, 0.007158882, 0.6472867
526, 1648533099, 0.7612618, -0.021778962, 0.007178309, 0.64803916
527, 1648549766, 0.76103675, -0.021199662, 0.0066382787, 0.64832854
528, 1648566433, 0.7610396, -0.020559562, 0.0051220735, 0.6483594
529, 1648583100, 0.7610772, -0.020415528, 0.003759628, 0.6483292
530, 1648599767, 0.76096904, -0.020208929, 0.0033988843, 0.6484648
531, 1648616434, 0.7609267, -0.020204484, 0.0032243675, 0.64851534
532, 1648633101, 0.7611181, -0.020149693, 0.003390807, 0.64829165
533, 1648649768, 0.761436, -0.020412743, 0.0035510599, 0.64790905
534, 1648666435, 0.7615569, -0.020293936, 0.0033305383, 0.6477718
535, 1648683102, 0.7615662, -0.019666735, 0.0031997282, 0.64778095
536, 1648699769, 0.76159346, -0.018937498, 0.0031226862, 0.6477711
537, 1648716436, 0.7616143, -0.019388111, 0.0033672303, 0.6477319
538, 1648733103, 0.76176894, -0.020230591, 0.0038411934, 0.64752185
539, 1648749770, 0.76210874, -0.020771828, 0.004264482, 0.647102
540, 1648766437, 0.7622842, -0.020282052, 0.004554166, 0.64690864
541, 1648783104, 0.76250666, -0.020374153, 0.005451009, 0.64663655
542, 1648799771, 0.7630199, -0.02147265, 0.0061107096, 0.6459893
543, 1648816438, 0.7637038, -0.022572136, 0.0065988093, 0.64513844
544, 1648833105, 0.7646615, -0.02361022, 0.007317343, 0.64395815
545, 1648849772, 0.7661884, -0.025743093, 0.008620163, 0.6420424
546, 1648866439, 0.7682294, -0.028238984, 0.00957924, 0.6394797
547, 1648883106, 0.7704741, -0.029473484, 0.00920139, 0.63672346
548, 1648899773, 0.7727619, -0.030510508, 0.008844792, 0.6339009
549, 1648916440, 0.77511203, -0.032875035, 0.009923078, 0.6308901
550, 1648933107, 0.7779984, -0.035727337, 0.010869817, 0.62715566
551, 1648949774, 0.7814874, -0.03863059, 0.011679895, 0.6226145
552, 1648966441, 0.7847527, -0.041504283, 0.012778107, 0.61828595
553, 1648983108, 0.786937, -0.04195928, 0.014379769, 0.6154372
554, 1648999775, 0.78902894, -0.040677287, 0.015203045, 0.61281943
555, 1649016442, 0.7919237, -0.039277215, 0.015478398, 0.6091591
556, 1649033109, 0.79585826, -0.040014606, 0.015077533, 0.6039713
557, 1649049776, 0.799777, -0.040447474, 0.014731069, 0.59875196
558, 1649066443, 0.8040006, -0.03848973, 0.012399139, 0.5932521
559, 1649083110, 0.80880326, -0.034972187, 0.008729596, 0.58697385
560, 1649099777, 0.8142635, -0.031733736, 0.0042335507, 0.57961226
561, 1649116444, 0.8193978, -0.029577132, 9.1501925E-4, 0.57246125
562, 1649133111, 0.8235178, -0.02715701, -0.00142144, 0.5666385
563, 1649149778, 0.82711524, -0.024981862, -0.001561803, 0.5614749
564, 1649166445, 0.830951, -0.023934497, -0.0026282403, 0.55582464
565, 1649183112, 0.83465254, -0.023217998, -0.004180592, 0.5502717
566, 1649199779, 0.83800244, -0.021257244, -0.0061652265, 0.5452177
567, 1649216446, 0.8408097, -0.020724535, -0.0057026064, 0.54090405
568, 1649233113, 0.8445077, -0.021943051, -0.00544614, 0.53506625
569, 1649249780, 0.8495482, -0.02639687, -0.00314144, 0.5268409
570, 1649266447, 0.8553465, -0.03285516, 3.8407982E-4, 0.51701355
571, 1649283114, 0.8609562, -0.038952082, 0.0030562575, 0.5071767
572, 1649299781, 0.86666566, -0.04430537, 0.005236316, 0.49689072
573, 1649316448, 0.87188894, -0.04858792, 0.005558947, 0.48725578
574, 1649333115, 0.8764158, -0.049307138, 0.0033714974, 0.47901264
575, 1649349782, 0.880172, -0.049563996, 0.0020606674, 0.47205582
576, 1649366449, 0.8842673, -0.04948794, 0.0022441288, 0.46434647
577, 1649383116, 0.8898057, -0.04985408, 0.003796202, 0.4535928
578, 1649399783, 0.89535147, -0.049175747, 0.0048603183, 0.44261062
579, 1649416450, 0.89940023, -0.046338975, 0.0050576646, 0.43463403
580, 1649433117, 0.9030073, -0.04322954, 0.005587608, 0.42740837
581, 1649449784, 0.906353, -0.041387204, 0.0057408675, 0.4204508
582, 1649466451, 0.90971047, -0.0399387, 0.0044927564, 0.41329405
583, 1649483118, 0.91303027, -0.040619884, 0.00385141, 0.40584603
584, 1649499785, 0.91661114, -0.042045098, 0.0038944797, 0.397544
585, 1649516452, 0.9203284, -0.042575445, 0.0050132466, 0.3887905
586, 1649533119, 0.9241145, -0.041552078, 0.0051228306, 0.3798151
587, 1649549786, 0.9270286, -0.04355572, 0.0047535165, 0.37242252
588, 1649566453, 0.93022513, -0.044897802, 0.004402749, 0.36420614
589, 1649583120, 0.9342665, -0.044592805, 0.004438499, 0.3537487
590, 1649599787, 0.9386697, -0.0459542, 0.0051831417, 0.34170294
591, 1649616454, 0.9433943, -0.046065953, 0.0058696656, 0.32840696
592, 1649633121, 0.9473991, -0.048251264, 0.0041463887, 0.31636995
593, 1649649788, 0.9510993, -0.051744677, 0.0021217922, 0.3045135
594, 1649666455, 0.954942, -0.05247013, 2.2189849E-4, 0.29211813
595, 1649683122, 0.95866287, -0.054883692, 6.6705295E-5, 0.27920157
596, 1649699789, 0.9622588, -0.05624528, -4.570069E-4, 0.26626033
597, 1649716456, 0.96537596, -0.057399176, -0.002504123, 0.2544577
598, 1649733123, 0.96811604, -0.05860882, -0.0041009216, 0.24351572
599, 1649749790, 0.9705389, -0.060410876, -0.005701605, 0.23317894
600, 1649766457, 0.97268265, -0.062354818, -0.007492904, 0.22348237
601, 1649783124, 0.97442997, -0.06525706, -0.011053308, 0.21472329
602, 1649799791, 0.97585016, -0.06743492, -0.014401777, 0.20727219
603, 1649816458, 0.9772809, -0.06884427, -0.017976912, 0.19964916
604, 1649833125, 0.9786913, -0.06755786, -0.01996212, 0.19287601
605, 1649849792, 0.9799451, -0.06610537, -0.021851689, 0.186709
606, 1649866459, 0.98117524, -0.06528731, -0.025083708, 0.18001
607, 1649883126, 0.9824505, -0.06495553, -0.02809434, 0.17257658
608, 1649899793, 0.9837981, -0.06475293, -0.030012729, 0.16446222
609, 1649916460, 0.985175, -0.06503587, -0.030826347, 0.1557259
610, 1649933127, 0.9865883, -0.0652393, -0.032204434, 0.14611828
611, 1649949794, 0.9878328, -0.06426342, -0.03491193, 0.13725197
612, 1649966461, 0.98884296, -0.06307997, -0.036090374, 0.13003132
613, 1649983128, 0.98967916, -0.062341407, -0.037671592, 0.12340769
614, 1649999795, 0.99051386, -0.061573625, -0.038464636, 0.11666855
615, 1650016462, 0.9913494, -0.06082782, -0.03918981, 0.10950152
616, 1650033129, 0.9920266, -0.060114183, -0.04004656, 0.103275545
617, 1650049796, 0.9926759, -0.058437534, -0.0412548, 0.09735505
618, 1650066463, 0.9933526, -0.056718692, -0.042779483, 0.09057505
619, 1650083130, 0.99391854, -0.05564318, -0.04522336, 0.08357465
620, 1650099797, 0.99438787, -0.055203103, -0.046904825, 0.07710714
621, 1650116464, 0.9948983, -0.053999662, -0.04745504, 0.07077869
622, 1650133131, 0.9953484, -0.05189191, -0.047663517, 0.06570502
623, 1650149798, 0.99573445, -0.049825154, -0.04813714, 0.060937718
624, 1650166465, 0.99607676, -0.04830372, -0.048917595, 0.05572335
625, 1650183132, 0.9963271, -0.047870237, -0.050224993, 0.050183203
626, 1650199799, 0.99655515, -0.04799934, -0.050836086, 0.044607617
627, 1650216466, 0.9967766, -0.048054274, -0.05131106, 0.038661327
628, 1650233133, 0.99699926, -0.047357675, -0.051541876, 0.03306614
629, 1650249800, 0.9972268, -0.045906555, -0.05169685, 0.027551034
630, 1650266467, 0.99736375, -0.04503692, -0.052137878, 0.022786632
631, 1650283134, 0.99743444, -0.04533468, -0.05220408, 0.018555248
632, 1650299801, 0.9974791, -0.04558294, -0.05274778, 0.013249542
633, 1650316468, 0.9975414, -0.044354465, -0.053725958, 0.007579529
634, 1650333135, 0.9976695, -0.04154244, -0.05402646, 0.0033813799
635, 1650349802, 0.9978227, -0.038111113, -0.053827077, -5.8628456E-4
636, 1650366469, 0.99791616, -0.035488535, -0.053645857, -0.0051288167
637, 1650383136, 0.99794906, -0.03375927, -0.053347543, -0.010592158
638, 1650399803, 0.9978811, -0.032419182, -0.05404128, -0.016191283
639, 1650416470, 0.9978481, -0.030779265, -0.05440053, -0.019811988
640, 1650433137, 0.99798995, -0.028491512, -0.05274998, -0.02054382
641, 1650449804, 0.9981256, -0.026118657, -0.05108434, -0.02129728
642, 1650466471, 0.9981531, -0.024334656, -0.050390422, -0.023650665
643, 1650483138, 0.99813217, -0.022737404, -0.0498834, -0.026959071
644, 1650499805, 0.9980643, -0.021329239, -0.05011934, -0.030013878
645, 1650516472, 0.9980163, -0.01963263, -0.05020511, -0.032523453
646, 1650533139, 0.99806833, -0.01721898, -0.049011238, -0.03407859
647, 1650549806, 0.99813646, -0.014299303, -0.047115445, -0.03604818
648, 1650566473, 0.9981587, -0.011799045, -0.045204297, -0.03868863
649, 1650583140, 0.99815696, -0.00933414, -0.042752188, -0.042049076
650, 1650599807, 0.9980802, -0.0067670555, -0.041258983, -0.04569349
651, 1650616474, 0.9980847, -0.004383926, -0.039054736, -0.047777265
652, 1650633141, 0.99807024, -0.0018982652, -0.037094865, -0.04976366
653, 1650649808, 0.99801385, 4.7268003E-4, -0.03588182, -0.051777367
654, 1650666475, 0.998024, 0.0025033746, -0.03417185, -0.052674394
655, 1650683142, 0.99800783, 0.0038848836, -0.03363524, -0.0532404
656, 1650699809, 0.9979632, 0.004958556, -0.033341847, -0.05416016
657, 1650716476, 0.9978877, 0.0057939566, -0.033228364, -0.055522807
658, 1650733143, 0.99782896, 0.0066216984, -0.032696594, -0.05678638
659, 1650749810, 0.99777913, 0.0072837966, -0.032376867, -0.057756294
660, 1650766477, 0.9978086, 0.00698988, -0.03163024, -0.057697974
661, 1650783144, 0.9978516, 0.006587713, -0.03107309, -0.057300277
662, 1650799811, 0.9978625, 0.006552438, -0.030644042, -0.05734723
663, 1650816478, 0.99782217, 0.0065517616, -0.03126564, -0.05771275
664, 1650833145, 0.99784106, 0.0065891305, -0.031007351, -0.05751877
665, 1650849812, 0.9978453, 0.006653544, -0.030947601, -0.05747019
666, 1650866479, 0.9978379, 0.0061703227, -0.03125808, -0.0574839
667, 1650883146, 0.99781567, 0.005319482, -0.032085665, -0.0574994
668, 1650899813, 0.9978129, 0.004875134, -0.03228032, -0.05747629
669, 1650916480, 0.99779093, 0.005176563, -0.032491405, -0.057714526
670, 1650933147, 0.9977448, 0.0055731395, -0.03320346, -0.058070198
671, 1650949814, 0.9977257, 0.005266938, -0.03373081, -0.05811922
672, 1650966481, 0.9977282, 0.004758376, -0.03406134, -0.057928372
673, 1650983148, 0.9977448, 0.004334341, -0.033975463, -0.057726674
674, 1650999815, 0.99772024, 0.0042547504, -0.034400266, -0.057905816
675, 1651016482, 0.99769044, 0.0047147484, -0.03489939, -0.058084376
676, 1651033149, 0.9976767, 0.0054350733, -0.035096847, -0.05814026
677, 1651049816, 0.9976779, 0.005757612, -0.03514423, -0.05805689
678, 1651066483, 0.99765813, 0.0058833724, -0.035629064, -0.05808838
679, 1651083150, 0.99762946, 0.00656379, -0.0363527, -0.0580607
680, 1651099817, 0.99759156, 0.007928591, -0.03707496, -0.058085386
681, 1651116484, 0.99754936, 0.009617042, -0.03799121, -0.057964727
682, 1651133151, 0.9975471, 0.0116618555, -0.038446087, -0.057321634
683, 1651149818, 0.99754, 0.014894581, -0.03868917, -0.056530785
684, 1651166485, 0.9975113, 0.019082649, -0.03844925, -0.055936392
685, 1651183152, 0.9973846, 0.024137959, -0.03924143, -0.055694085
686, 1651199819, 0.9972125, 0.030617824, -0.03955303, -0.055367652
687, 1651216486, 0.99696374, 0.039155807, -0.03904481, -0.054827224
688, 1651233153, 0.99660903, 0.048441924, -0.039204538, -0.053730827
689, 1651249820, 0.9961795, 0.057387825, -0.039825432, -0.052412298
690, 1651266487, 0.99566257, 0.066244416, -0.039883893, -0.05174162
691, 1651283154, 0.99505854, 0.07536162, -0.039317656, -0.05131901
692, 1651299821, 0.9942841, 0.08539791, -0.038900673, -0.050925963
693, 1651316488, 0.99333066, 0.09651698, -0.038545314, -0.049930196
694, 1651333155, 0.99228424, 0.107910536, -0.037231777, -0.048388824
695, 1651349822, 0.9911515, 0.118501395, -0.036833998, -0.04711162
696, 1651366489, 0.9898459, 0.1292658, -0.036710966, -0.046347912
697, 1651383156, 0.9882182, 0.140893, -0.03765186, -0.046438977
698, 1651399823, 0.98638767, 0.1529552, -0.038038213, -0.046875767
699, 1651416490, 0.98449063, 0.16495578, -0.0372318, -0.0467091
700, 1651433157, 0.98232496, 0.17768292, -0.0367156, -0.04603083
701, 1651449824, 0.9799413, 0.1909643, -0.035264954, -0.044772107
702, 1651466491, 0.9776603, 0.2035041, -0.030936802, -0.042539924
703, 1651483158, 0.9755402, 0.2145988, -0.025939172, -0.039948203
704, 1651499825, 0.9730354, 0.22640604, -0.021689199, -0.038367964
705, 1651516492, 0.9700506, 0.23915473, -0.01890184, -0.038075786
706, 1651533159, 0.9669548, 0.2515174, -0.017027685, -0.03804898
707, 1651549826, 0.963795, 0.26336285, -0.016997311, -0.03808806
708, 1651566493, 0.9602888, 0.27582726, -0.017392475, -0.03824117
709, 1651583160, 0.95660955, 0.2882381, -0.017532816, -0.03885509
710, 1651599827, 0.9529869, 0.29992482, -0.016812908, -0.039733365
711, 1651616494, 0.9491745, 0.3117688, -0.015694002, -0.04027582
712, 1651633161, 0.94508606, 0.32393754, -0.014120063, -0.040959403
713, 1651649828, 0.9409606, 0.33570248, -0.011997516, -0.041873902
714, 1651666495, 0.93688357, 0.34689772, -0.009060553, -0.042770755
715, 1651683162, 0.93258697, 0.3582591, -0.006935542, -0.043410257
716, 1651699829, 0.92824095, 0.36930272, -0.0069792825, -0.043995395
717, 1651716496, 0.92382175, 0.38032812, -0.0054270932, -0.043297935
718, 1651733163, 0.91918164, 0.39156216, -0.003662236, -0.04208174
719, 1651749830, 0.9143542, 0.40277395, -0.0034895744, -0.041443985
720, 1651766497, 0.9096086, 0.41350952, -0.0021362836, -0.040220864
721, 1651783164, 0.9053192, 0.4229493, 3.863238E-4, -0.03887189
722, 1651799831, 0.9014964, 0.43112472, 0.0018175722, -0.037848648
723, 1651816498, 0.8969461, 0.44052354, 0.0011810286, -0.037753157
724, 1651833165, 0.8916608, 0.45105866, 0.001481405, -0.038535982
725, 1651849832, 0.88693595, 0.46019742, 0.0027164367, -0.039442666
726, 1651866499, 0.88243103, 0.4687325, 0.003731668, -0.039896406
727, 1651883166, 0.8773031, 0.47824392, 0.0041817483, -0.040058337
728, 1651899833, 0.87141275, 0.48893434, 0.005882749, -0.03935529
729, 1651916500, 0.8650295, 0.50016546, 0.008849171, -0.038474303
730, 1651933167, 0.85867596, 0.51095223, 0.011322774, -0.038411137
731, 1651949834, 0.8524261, 0.5212396, 0.013856376, -0.038566004
732, 1651966501, 0.84492254, 0.5332374, 0.015965983, -0.03885053
733, 1651983168, 0.83679354, 0.54580677, 0.015476483, -0.04039979
734, 1651999835, 0.8295278, 0.55674434, 0.015773283, -0.04087409
735, 1652016502, 0.82335204, 0.56577, 0.015226014, -0.042002264
736, 1652033169, 0.8183884, 0.5727386, 0.012991024, -0.045193493
737, 1652049836, 0.8131045, 0.58007747, 0.012259708, -0.047128666
738, 1652066503, 0.80710727, 0.5883231, 0.01178458, -0.04811355
739, 1652083170, 0.80124074, 0.59631443, 0.010741823, -0.048036046
740, 1652099837, 0.79635775, 0.60288566, 0.009689379, -0.04742956
741, 1652116504, 0.79233193, 0.6080377, 0.007898699, -0.04937764
742, 1652133171, 0.78777224, 0.61376303, 0.0073758555, -0.051535405
743, 1652149838, 0.78287137, 0.61991906, 0.0069979117, -0.052575395
744, 1652166505, 0.7776967, 0.62654597, 0.008179726, -0.050608452
745, 1652183172, 0.77175665, 0.63403946, 0.009719031, -0.047867887
746, 1652199839, 0.76652807, 0.64039946, 0.010276069, -0.047093388
747, 1652216506, 0.7610008, 0.6469496, 0.012280871, -0.04672688
748, 1652233173, 0.75478023, 0.65425843, 0.016351826, -0.044561245
749, 1652249840, 0.7486417, 0.6613713, 0.018687075, -0.042128343
750, 1652266507, 0.7427572, 0.66802436, 0.019648854, -0.040857792
751, 1652283174, 0.7379288, 0.6733007, 0.018754829, -0.042138215
752, 1652299841, 0.73335844, 0.678279, 0.01914157, -0.0419145
753, 1652316508, 0.72815216, 0.68399364, 0.021245169, -0.038681738
754, 1652333175, 0.72395253, 0.68862, 0.022597099, -0.03441931
755, 1652349842, 0.72045875, 0.69238865, 0.02176137, -0.032611817
756, 1652366509, 0.71733695, 0.69566816, 0.021230657, -0.031982016
757, 1652383176, 0.71509326, 0.698043, 0.022316702, -0.029665355
758, 1652399843, 0.7140517, 0.6992015, 0.022516947, -0.027213246
759, 1652416510, 0.71376544, 0.6995944, 0.020996176, -0.025805596
760, 1652433177, 0.71466595, 0.69874686, 0.01859876, -0.025684841
761, 1652449844, 0.71577317, 0.6976026, 0.017047547, -0.027002443
762, 1652466511, 0.7162879, 0.6970203, 0.015393744, -0.029283302
763, 1652483178, 0.71664864, 0.69660825, 0.013039189, -0.031334464
764, 1652499845, 0.7177934, 0.6953842, 0.009473872, -0.033524066
765, 1652516512, 0.7189996, 0.69404787, 0.006707619, -0.03594969
766, 1652533179, 0.71942717, 0.6934527, 0.005219698, -0.03899569
767, 1652549846, 0.7199161, 0.69276315, 0.0036814425, -0.04226982
768, 1652566513, 0.72036374, 0.6921963, 0.002911462, -0.043958012
769, 1652583180, 0.72113454, 0.69129276, 0.0010373581, -0.04558998
770, 1652599847, 0.7220006, 0.6902602, -6.509437E-4, -0.0474988
771, 1652616514, 0.72284037, 0.6892657, -7.5082894E-4, -0.049135968
772, 1652633181, 0.7234623, 0.6885281, 4.4278955E-4, -0.050314367
773, 1652649848, 0.72375643, 0.6881858, 0.001249551, -0.05075273
774, 1652666515, 0.7241276, 0.68781126, 0.0013740277, -0.050530937
775, 1652683182, 0.7243069, 0.68763, 0.001226909, -0.05042949
776, 1652699849, 0.72450966, 0.68742335, 0.001029984, -0.050340038
777, 1652716516, 0.72419167, 0.68771887, -3.098689E-4, -0.050884996
778, 1652733183, 0.7238022, 0.6881314, -0.0018888456, -0.05081661
779, 1652749850, 0.7236386, 0.68832016, -0.0032715336, -0.050518226
780, 1652766517, 0.72357184, 0.68836874, -0.0045556934, -0.050712977
781, 1652783184, 0.7233476, 0.68847156, -0.006459928, -0.052286506
782, 1652799851, 0.7230518, 0.6887057, -0.007681039, -0.0531208
783, 1652816518, 0.7232956, 0.6883747, -0.009665318, -0.053764854
784, 1652833185, 0.7233879, 0.6882412, -0.011075163, -0.053959712
785, 1652849852, 0.72356063, 0.6880205, -0.011642337, -0.054336034
786, 1652866519, 0.7237432, 0.6877731, -0.012062431, -0.054942645
787, 1652883186, 0.72353566, 0.6879152, -0.012997573, -0.05567902
788, 1652899853, 0.7230231, 0.6883287, -0.014914195, -0.056737006
789, 1652916520, 0.7227891, 0.6884758, -0.016599424, -0.057460293
790, 1652933187, 0.72292, 0.68819183, -0.018018931, -0.05877254
791, 1652949854, 0.7230917, 0.6879212, -0.018437907, -0.059691153
792, 1652966521, 0.72336, 0.68763256, -0.01768072, -0.05999429
793, 1652983188, 0.7235889, 0.687399, -0.01683914, -0.060152862
794, 1652999855, 0.7237765, 0.68717974, -0.016279388, -0.060555156
795, 1653016522, 0.72396195, 0.68698597, -0.01576108, -0.060675178
796, 1653033189, 0.7247564, 0.68614656, -0.015651856, -0.060713064
797, 1653049856, 0.7258423, 0.68500996, -0.015079516, -0.060721718
798, 1653066523, 0.72749406, 0.68330914, -0.013878887, -0.06040419
799, 1653083190, 0.7302167, 0.6804327, -0.012983636, -0.06022174
800, 1653099857, 0.7336925, 0.67677885, -0.011308297, -0.059481256
801, 1653116524, 0.73688686, 0.6734199, -0.008518868, -0.058576275
802, 1653133191, 0.74021673, 0.6699263, -0.0043734782, -0.05708809
803, 1653149858, 0.7444307, 0.6653821, -3.9004124E-5, -0.055583708
804, 1653166525, 0.7496353, 0.6595028, 0.003382559, -0.05560291
805, 1653183192, 0.7549772, 0.65326035, 0.0050241672, -0.056878027
806, 1653199859, 0.7603868, 0.64688987, 0.0056045796, -0.05756782
807, 1653216526, 0.766866, 0.63916713, 0.006768208, -0.0577621
808, 1653233193, 0.77323574, 0.63145435, 0.00911649, -0.05735208
809, 1653249860, 0.77823037, 0.62515014, 0.011769551, -0.058364995
810, 1653266527, 0.783812, 0.61806977, 0.014539445, -0.058458805
811, 1653283194, 0.79019153, 0.60982436, 0.017370086, -0.05839683
812, 1653299861, 0.7973216, 0.6004368, 0.020832866, -0.057620756
813, 1653316528, 0.8034511, 0.5921902, 0.025649091, -0.05585458
814, 1653333195, 0.808653, 0.5850437, 0.029251756, -0.054304052
815, 1653349862, 0.81526077, 0.57583755, 0.0301223, -0.05342251
816, 1653366529, 0.8235421, 0.5640902, 0.026779033, -0.053514794
817, 1653383196, 0.8318999, 0.55199844, 0.026022408, -0.050632343
818, 1653399863, 0.8382113, 0.54251546, 0.033758227, -0.044037435
819, 1653416530, 0.84475327, 0.532171, 0.04289138, -0.036693625
820, 1653433197, 0.8506699, 0.52255034, 0.04674466, -0.033420037
821, 1653449864, 0.8573896, 0.5114848, 0.046181526, -0.033671387
822, 1653466531, 0.86418796, 0.5000976, 0.04644757, -0.030404631
823, 1653483198, 0.86977524, 0.49052224, 0.046766605, -0.026311396
824, 1653499865, 0.8751799, 0.4809391, 0.04720007, -0.023022808
825, 1653516532, 0.8812249, 0.4699477, 0.046176128, -0.021437354
826, 1653533199, 0.88817805, 0.45689502, 0.04458421, -0.019980486
827, 1653549866, 0.8936572, 0.4463254, 0.043270078, -0.017270323
828, 1653566533, 0.8984006, 0.43693626, 0.04179636, -0.014710922
829, 1653583200, 0.9036578, 0.42616528, 0.04035819, -0.012542184
830, 1653599867, 0.90925246, 0.41425428, 0.03932498, -0.0103626065
831, 1653616534, 0.9147584, 0.40220246, 0.03695157, -0.009231137
832, 1653633201, 0.91983896, 0.3907005, 0.034332782, -0.008417509
833, 1653649868, 0.9246522, 0.37929085, 0.033327725, -0.0068104942
834, 1653666535, 0.9298858, 0.36629155, 0.033497274, -0.0045910603
835, 1653683202, 0.93524593, 0.35251427, 0.032311168, -0.0022361372
836, 1653699869, 0.9396406, 0.34063238, 0.032318506, 9.937087E-4
837, 1653716536, 0.94392127, 0.32838827, 0.034079038, 0.0035619503
838, 1653733203, 0.9488552, 0.31378216, 0.03459827, 0.004208808
839, 1653749870, 0.9538341, 0.29857105, 0.03236052, 0.0029900759
840, 1653766537, 0.9582882, 0.28432143, 0.029009117, 0.0020133497
841, 1653783204, 0.9620297, 0.27163818, 0.026628174, 0.001656564
842, 1653799871, 0.96555823, 0.25898743, 0.024937242, 0.0011545917
843, 1653816538, 0.969, 0.24601012, 0.022766976, 2.057284E-4
844, 1653833205, 0.9720228, 0.23401324, 0.02023113, -6.148983E-4
845, 1653849872, 0.9750439, 0.22127841, 0.01798133, -0.0015098082
846, 1653866539, 0.9778172, 0.208839, 0.015974505, -0.0022401987
847, 1653883206, 0.9795209, 0.20082793, 0.013881595, -0.003790494
848, 1653899873, 0.981564, 0.19065078, 0.012387625, -0.005584688
849, 1653916540, 0.9839715, 0.1779113, 0.009219546, -0.007939261
850, 1653933207, 0.9863426, 0.16429357, 0.005678, -0.0101951305
851, 1653949874, 0.9879961, 0.15405086, 0.0040389793, -0.010773071
852, 1653966541, 0.98920673, 0.14612335, 0.0023057961, -0.010633304
853, 1653983208, 0.99047136, 0.13733731, 0.0010846347, -0.010193503
854, 1653999875, 0.99171007, 0.128069, -0.0012315387, -0.010391394
855, 1654016542, 0.9928715, 0.11859962, -0.004198259, -0.011087519
856, 1654033209, 0.99374694, 0.11081538, -0.0071719633, -0.011664046
857, 1654049876, 0.9944474, 0.10426466, -0.007925962, -0.01186433
858, 1654066543, 0.9951596, 0.09724157, -0.0073821167, -0.012124866
859, 1654083210, 0.99589974, 0.08929154, -0.006011101, -0.0132188
860, 1654099877, 0.99661964, 0.080717646, -0.004811405, -0.01451995
861, 1654116544, 0.9971892, 0.072868004, -0.005692904, -0.016483076
862, 1654133211, 0.9975815, 0.06659646, -0.0070285895, -0.018626586
863, 1654149878, 0.99783295, 0.06241926, -0.006578264, -0.019753734
864, 1654166545, 0.99805194, 0.058414146, -0.0061817905, -0.021027515
865, 1654183212, 0.9982271, 0.05425644, -0.008035221, -0.023114359
866, 1654199879, 0.9983566, 0.050121564, -0.01057, -0.025699215
867, 1654216546, 0.9984553, 0.045590572, -0.012995291, -0.02898183
868, 1654233213, 0.9984577, 0.042511743, -0.015782285, -0.032032512
869, 1654249880, 0.99845004, 0.040905662, -0.01745743, -0.033458106
870, 1654266547, 0.9984605, 0.03865514, -0.019281715, -0.03479829
871, 1654283214, 0.99841934, 0.03531026, -0.022674423, -0.037393063
872, 1654299881, 0.99831975, 0.033410385, -0.025107762, -0.04013989
873, 1654316548, 0.99826413, 0.032142334, -0.026190953, -0.041829083
874, 1654333215, 0.9982039, 0.0301215, -0.027878508, -0.04364346
875, 1654349882, 0.9980878, 0.027737541, -0.030234257, -0.04623106
876, 1654366549, 0.99791116, 0.025139747, -0.03353876, -0.049158383
877, 1654383216, 0.99780715, 0.024099782, -0.03524493, -0.050579388
878, 1654399883, 0.99782765, 0.023700733, -0.0347247, -0.050719865
879, 1654416550, 0.9978655, 0.02362073, -0.03374833, -0.050673723
880, 1654433217, 0.9978802, 0.022951746, -0.033261493, -0.051011417
881, 1654449884, 0.9978182, 0.021211803, -0.03420678, -0.0523383
882, 1654466551, 0.9976728, 0.019395903, -0.036346223, -0.054330416
883, 1654483218, 0.9976014, 0.018684704, -0.037577864, -0.055048667
884, 1654499885, 0.9976352, 0.019219497, -0.037204515, -0.054503478
885, 1654516552, 0.99767506, 0.01918686, -0.036545128, -0.05423066
886, 1654533219, 0.99764866, 0.017664393, -0.037369657, -0.054670624
887, 1654549886, 0.9975768, 0.015581506, -0.038764387, -0.05563626
888, 1654566553, 0.9975012, 0.014006626, -0.03995557, -0.056558456
889, 1654583220, 0.9974974, 0.013482314, -0.040044807, -0.056690503
890, 1654599887, 0.9975584, 0.013313891, -0.03923605, -0.05621909
891, 1654616554, 0.9975725, 0.012396874, -0.039409164, -0.05606034
892, 1654633221, 0.99753684, 0.010546028, -0.040296525, -0.05643973
893, 1654649888, 0.99745005, 0.008720103, -0.04166684, -0.057285767
894, 1654666555, 0.9973628, 0.007875667, -0.042626377, -0.05821254
895, 1654683222, 0.99732953, 0.007143627, -0.043004233, -0.058599863
896, 1654699889, 0.99733096, 0.006249335, -0.043168217, -0.05855614
897, 1654716556, 0.9973376, 0.004819236, -0.04327676, -0.058498595
898, 1654733223, 0.9972826, 0.0023636536, -0.043823954, -0.059173197
899, 1654749890, 0.99709696, -8.5817865E-4, -0.045642026, -0.060940914
900, 1654766557, 0.99690914, -0.003509182, -0.047778804, -0.062267363
901, 1654783224, 0.9968703, -0.004981393, -0.04848761, -0.062241036
902, 1654799891, 0.9968638, -0.0056933328, -0.04899758, -0.06188521
903, 1654816558, 0.99684125, -0.0060496004, -0.049474552, -0.061833963
904, 1654833225, 0.996769, -0.0066769742, -0.050188698, -0.062354743
905, 1654849892, 0.99665046, -0.007761954, -0.05148015, -0.063070096
906, 1654866559, 0.9965989, -0.008568681, -0.05225151, -0.06314246
907, 1654883226, 0.9966193, -0.008766059, -0.052332647, -0.06272915
908, 1654899893, 0.9966477, -0.008453817, -0.05206113, -0.06254376
909, 1654916560, 0.99664676, -0.008134959, -0.051924746, -0.06271497
910, 1654933227, 0.9966479, -0.0077334517, -0.051805206, -0.06284826
911, 1654949894, 0.9966562, -0.0074581765, -0.05175049, -0.062793374
912, 1654966561, 0.9966849, -0.007141547, -0.051579665, -0.062513866
913, 1654983228, 0.99667746, -0.0071199276, -0.051662985, -0.06256619
914, 1654999895, 0.9966226, -0.0071205865, -0.052044727, -0.06312189
915, 1655016562, 0.99658734, -0.006862371, -0.05208334, -0.063672215
916, 1655033229, 0.9965768, -0.0067036976, -0.052028254, -0.063898996
917, 1655049896, 0.99658984, -0.0065196757, -0.051893007, -0.06382443
918, 1655066563, 0.9966323, -0.0061435704, -0.051411193, -0.06358961
919, 1655083230, 0.99667084, -0.0058441106, -0.05098407, -0.0633555
920, 1655099897, 0.9966915, -0.0054634702, -0.05072707, -0.06327005
921, 1655116564, 0.9967004, -0.005293301, -0.050635923, -0.06321756
922, 1655133231, 0.9966897, -0.005326445, -0.05094835, -0.06313353
923, 1655149898, 0.9966915, -0.0054275976, -0.051141076, -0.06293939
924, 1655166565, 0.9967079, -0.005243766, -0.051165003, -0.062674
925, 1655183232, 0.99673176, -0.004878695, -0.050924495, -0.0625228
926, 1655199899, 0.99676853, -0.004446766, -0.050648585, -0.06219139
927, 1655216566, 0.9968333, -0.0040928307, -0.050175454, -0.06155716
928, 1655233233, 0.9968678, -0.003978592, -0.05009386, -0.06107238
929, 1655249900, 0.99689126, -0.004015531, -0.049918316, -0.060829364
930, 1655266567, 0.9969131, -0.0040246584, -0.04979847, -0.060568597
931, 1655283234, 0.9969496, -0.0039952863, -0.049539123, -0.060180277
932, 1655299901, 0.99697226, -0.003912982, -0.049489547, -0.059849788
933, 1655316568, 0.99700844, -0.0037663938, -0.04929092, -0.05941916
934, 1655333235, 0.9970287, -0.003762278, -0.049318433, -0.059055198
935, 1655349902, 0.9970286, -0.0037955798, -0.049359918, -0.059019066
936, 1655366569, 0.9970177, -0.0037364117, -0.0494098, -0.05916746
937, 1655383236, 0.9969877, -0.004073292, -0.049728, -0.05938222
938, 1655399903, 0.99695086, -0.004642984, -0.050144445, -0.059608273
939, 1655416570, 0.9969114, -0.0051766266, -0.050642025, -0.059803054
940, 1655433237, 0.99692017, -0.005165193, -0.05057102, -0.059719466
941, 1655449904, 0.9969617, -0.0048533697, -0.050072487, -0.059471916
942, 1655466571, 0.996974, -0.0048092916, -0.049891364, -0.059421044
943, 1655483238, 0.9969795, -0.0049932143, -0.04987427, -0.05932673
944, 1655499905, 0.99699867, -0.0051209396, -0.04974891, -0.059098687
945, 1655516572, 0.997023, -0.005143297, -0.049593065, -0.05881767
946, 1655533239, 0.9970526, -0.0049917703, -0.049421337, -0.058472805
947, 1655549906, 0.99707866, -0.0048513315, -0.049302746, -0.05813974
948, 1655566573, 0.9970901, -0.004850938, -0.049408507, -0.057849724
949, 1655583240, 0.9971243, -0.0048914733, -0.049176663, -0.057452396
950, 1655599907, 0.9971572, -0.0049394765, -0.048976824, -0.05704853
951, 1655616574, 0.99719274, -0.004741598, -0.048789155, -0.056604046
952, 1655633241, 0.9972407, -0.0044224686, -0.048473023, -0.056056246
953, 1655649908, 0.99726754, -0.004411316, -0.048399366, -0.05564051
954, 1655666575, 0.9972664, -0.0043370486, -0.0486239, -0.05546796
955, 1655683242, 0.99727464, -0.0042172736, -0.048641007, -0.0553153
956, 1655699909, 0.997276, -0.004220829, -0.048771232, -0.05517471
957, 1655716576, 0.9972805, -0.0043032677, -0.048920937, -0.05495766
958, 1655733243, 0.9973094, -0.004286828, -0.04875566, -0.05457858
959, 1655749910, 0.99735934, -0.0037073358, -0.048150316, -0.05424495
960, 1655766577, 0.99739623, -0.0033413873, -0.04769754, -0.05399071
961, 1655783244, 0.99741393, -0.0034286587, -0.047592357, -0.053749375
962, 1655799911, 0.99741614, -0.0037604827, -0.04773206, -0.05355992
963, 1655816578, 0.997425, -0.00389898, -0.047733054, -0.053384483
964, 1655833245, 0.99744403, -0.004168023, -0.047568902, -0.05315612
965, 1655849912, 0.9974718, -0.004414533, -0.047338147, -0.052819487
966, 1655866579, 0.9974972, -0.004801493, -0.047191527, -0.052438304
967, 1655883246, 0.99750936, -0.0053728297, -0.047249798, -0.05209581
968, 1655899913, 0.9975124, -0.0059082354, -0.047375455, -0.051865324
969, 1655916580, 0.9975199, -0.0063024587, -0.047358207, -0.0516893
970, 1655933247, 0.9975241, -0.006814171, -0.047268875, -0.051625878
971, 1655949914, 0.9975266, -0.0073187454, -0.04717334, -0.051593874
972, 1655966581, 0.9975262, -0.00784931, -0.047192153, -0.051504657
973, 1655983248, 0.99748707, -0.008568091, -0.04782721, -0.051565714
974, 1655999915, 0.99743724, -0.00917577, -0.048496246, -0.05179983
975, 1656016582, 0.99743176, -0.009334885, -0.04852273, -0.051850278
976, 1656033249, 0.99743813, -0.009340743, -0.048453867, -0.051790252
977, 1656049916, 0.9974287, -0.009419756, -0.048642673, -0.051782854
978, 1656066583, 0.9974, -0.009386911, -0.048994403, -0.052010633
979, 1656083250, 0.9973885, -0.009051494, -0.04895609, -0.05232445
980, 1656099917, 0.9974015, -0.008391352, -0.048567783, -0.0525482
981, 1656116584, 0.99742854, -0.00767586, -0.047989685, -0.0526757
982, 1656133251, 0.9974243, -0.0072585777, -0.047849145, -0.05294102
983, 1656149918, 0.99741685, -0.0069045103, -0.0477936, -0.0531771
984, 1656166585, 0.9974134, -0.006535559, -0.047606893, -0.053457256
985, 1656183252, 0.9974191, -0.0061085033, -0.04716008, -0.053794786
986, 1656199919, 0.9974294, -0.005657782, -0.046824776, -0.053948127
987, 1656216586, 0.9974493, -0.0054104957, -0.046388064, -0.05398113
988, 1656233253, 0.9974583, -0.005314978, -0.046059076, -0.05410656
989, 1656249920, 0.99747646, -0.0050805225, -0.045643114, -0.054145556
990, 1656266587, 0.99748486, -0.0048416383, -0.045422573, -0.054197315
991, 1656283254, 0.9975, -0.004644492, -0.045189336, -0.054130778
992, 1656299921, 0.99753314, -0.0044623255, -0.044911306, -0.053767778
993, 1656316588, 0.9975643, -0.0044731763, -0.044687994, -0.053373117
994, 1656333255, 0.99757165, -0.0046192184, -0.04474205, -0.053178698
995, 1656349922, 0.99758387, -0.0046310476, -0.044779662, -0.05291505
996, 1656366589, 0.99761325, -0.0044208737, -0.044711374, -0.052436925
997, 1656383256, 0.99765146, -0.004416398, -0.044490073, -0.051893655
998, 1656399923, 0.9976944, -0.004594763, -0.044176903, -0.051319037
999, 1656416590, 0.9977224, -0.0047495114, -0.044113465, -0.05081215
1000, 1656433257, 0.997746, -0.0044621676, -0.04402327, -0.05044877
1001, 1656449924, 0.99777514, -0.0039825407, -0.043880187, -0.05003746
1002, 1656466591, 0.9978113, -0.0037789382, -0.043709703, -0.049477838
1003, 1656483258, 0.99784297, -0.0036922211, -0.043591082, -0.048948474
1004, 1656499925, 0.9978564, -0.0035663366, -0.04370659, -0.048580408
1005, 1656516592, 0.9978606, -0.003274938, -0.04389368, -0.04834366
1006, 1656533259, 0.9978806, -0.0028328963, -0.04391421, -0.04793772
1007, 1656549926, 0.9979207, -0.0022689628, -0.04376211, -0.047270454
1008, 1656566593, 0.99796677, -0.001725445, -0.04350398, -0.046549834
1009, 1656583260, 0.9980118, -0.0012904654, -0.04316244, -0.04591361
1010, 1656599927, 0.9980385, -0.001024647, -0.042974018, -0.045517273
1011, 1656616594, 0.9980475, -8.2989084E-4, -0.043074872, -0.045223795
1012, 1656633261, 0.99805933, -6.0425664E-4, -0.04313986, -0.044905808
1013, 1656649928, 0.99807054, -4.0759143E-4, -0.04322268, -0.044579208
1014, 1656666595, 0.99806607, -3.7600004E-4, -0.04353468, -0.044373773
1015, 1656683262, 0.99807006, -1.7857832E-4, -0.043707713, -0.04411483
1016, 1656699929, 0.9980791, -1.18097916E-4, -0.043824997, -0.04379033
1017, 1656716596, 0.9980654, -5.567042E-5, -0.0439499, -0.04397828
1018, 1656733263, 0.9980395, 1.7298115E-4, -0.044231836, -0.044283822
1019, 1656749930, 0.998022, 2.372343E-4, -0.04448741, -0.04442139
1020, 1656766597, 0.9980253, 1.7314007E-4, -0.04430245, -0.04452813
1021, 1656783264, 0.998033, 6.142107E-5, -0.044037312, -0.04462263
1022, 1656799931, 0.99804366, -1.0749579E-4, -0.043906014, -0.044511743
1023, 1656816598, 0.9980601, -3.2306905E-4, -0.043727875, -0.044317294
1024, 1656833265, 0.9980659, -4.1657334E-4, -0.043537695, -0.044373572
1025, 1656849932, 0.9980514, -4.4304004E-4, -0.043783534, -0.04445763
1026, 1656866599, 0.9980563, -3.3874236E-4, -0.043898165, -0.04423533
1027, 1656883266, 0.9980723, 5.5958866E-5, -0.043837875, -0.043934375
1028, 1656899933, 0.9980515, 2.2762202E-4, -0.044359177, -0.043883048
1029, 1656916600, 0.9980331, 3.2315098E-4, -0.044832062, -0.043820687
1030, 1656933267, 0.9980238, 5.6849356E-4, -0.045015734, -0.043839205
1031, 1656949934, 0.9980197, 9.013398E-4, -0.04503683, -0.04390581
1032, 1656966601, 0.9980193, 0.0012842686, -0.0450432, -0.043899957
1033, 1656983268, 0.99801743, 0.0015371786, -0.045201294, -0.04377108
1034, 1656999935, 0.99801046, 0.001631934, -0.04545048, -0.043669797
1035, 1657016602, 0.998009, 0.0018658923, -0.045552876, -0.04358697
1036, 1657033269, 0.9980085, 0.0021874923, -0.04559949, -0.04353283
1037, 1657049936, 0.9980034, 0.0022964478, -0.04579516, -0.043438207
1038, 1657066603, 0.9979971, 0.0025051718, -0.046074238, -0.043278378
1039, 1657083270, 0.9980077, 0.0027618946, -0.046250246, -0.042825084
1040, 1657099937, 0.9980199, 0.0028774214, -0.046316896, -0.042462908
1041, 1657116604, 0.9980193, 0.0029988338, -0.04629329, -0.0424904
1042, 1657133271, 0.99801177, 0.0029589543, -0.046391897, -0.042566497
1043, 1657149938, 0.99800915, 0.0028597217, -0.04646647, -0.042552892
1044, 1657166605, 0.99800843, 0.0028012006, -0.04655441, -0.042476524
1045, 1657183272, 0.99801064, 0.0028722398, -0.04669347, -0.042267673
1046, 1657199939, 0.9979958, 0.0029688922, -0.046954084, -0.04232381
1047, 1657216606, 0.99796766, 0.0029112922, -0.047301926, -0.042603143
1048, 1657233273, 0.99794686, 0.00278897, -0.047556195, -0.04281127
1049, 1657249940, 0.99793327, 0.0028067033, -0.047772728, -0.042885624
1050, 1657266607, 0.997914, 0.003160693, -0.04802234, -0.043030873
1051, 1657283274, 0.9978976, 0.0033615676, -0.04817208, -0.043225612
1052, 1657299941, 0.99787116, 0.003315577, -0.04853994, -0.043430146
1053, 1657316608, 0.9978589, 0.0032898583, -0.048777632, -0.043449778
1054, 1657333275, 0.99785596, 0.003413511, -0.048878983, -0.04339212
1055, 1657349942, 0.9978642, 0.0036237792, -0.048735075, -0.04334757
1056, 1657366609, 0.9978864, 0.003722536, -0.048404653, -0.043197837
1057, 1657383276, 0.9979056, 0.0037001062, -0.04813574, -0.04305679
1058, 1657399943, 0.99789435, 0.0035812203, -0.048243325, -0.043207172
1059, 1657416610, 0.9978837, 0.0035794936, -0.048287448, -0.043401722
1060, 1657433277, 0.99789405, 0.0036439528, -0.048107974, -0.043359883
1061, 1657449944, 0.99790657, 0.003691653, -0.047997635, -0.04319065
1062, 1657466611, 0.9979114, 0.0036577291, -0.048073005, -0.042995177
1063, 1657483278, 0.99791306, 0.0034586126, -0.048178393, -0.0428548
1064, 1657499945, 0.9979057, 0.0034905574, -0.048301797, -0.042885885
1065, 1657516612, 0.99790597, 0.0034636655, -0.048326384, -0.04285343
1066, 1657533279, 0.99788743, 0.0033813745, -0.048647843, -0.04292893
1067, 1657549946, 0.99788564, 0.0032255957, -0.048759557, -0.042855363
