DeviceTag:;Xsens DOT 3;;;;;;;;;;;
FirmwareVersion:;1.3.0;;;;;;;;;;;
AppVersion:;2020.1.1;;;;;;;;;;;
Measurement Mode:;Inertial Mode - High Fidelity (with mag);;;;;;;;;;;
StartTime:;2020-07-29 17:14:08.110 +0200;;;;;;;;;;;
© Xsens Technologies B. V. 2005-2020;;;;;;;;;;;;
PacketCounter;SampleTimeFine;dQ_W;dQ_X;dQ_Y;dQ_Z;dV[1];dV[2];dV[3];Mag_X;Mag_Y;Mag_Z;Status
2;2323271121; 0.9999999765956952; 1.9315923702495352E-4; 5.835609566734457E-5; 7.805564869745041E-5; -0.1573099818464507; 0.03608173446048252; 0.026249313498873987; 0.666748046875; -0.282958984375; -0.46484375;0
3;2323287788; 0.9999999600884459; 2.4344830918021643E-4; 1.2422448923821164E-4; 7.158424130193632E-5; -0.15764227064025557; 0.03620036641149553; 0.02607956796350698; 0.6630859375; -0.283935546875; -0.46435546875;0
4;2323304455; 0.9999999613737154; 2.3890885988520072E-4; 1.2514100965049793E-4; 6.719264846921646E-5; -0.15859977082402002; 0.03645689675412615; 0.025314978416034743; 0.666015625; -0.282958984375; -0.460205078125;0
5;2323321122; 0.9999999848501441; 1.0850095172648677E-4; 1.0932429862253734E-4; 8.108916595722661E-5; -0.1584960328381409; 0.036814576357055324; 0.025776394382898353; 0.66455078125; -0.28466796875; -0.4638671875;0
6;2323337789; 0.9999999836828022; -7.52534349818812E-5; 1.3852718766133035E-4; 8.821300434574963E-5; -0.1583756223980457; 0.03665864005441781; 0.02609013769010585; 0.6630859375; -0.282958984375; -0.46484375;0
7;2323354456; 0.9999999639053162; -1.8419899004368245E-4; 1.4766761591217262E-4; 1.2827460204983823E-4; -0.15777231502368386; 0.036069011007450504; 0.026604577828099673; 0.667236328125; -0.281982421875; -0.46484375;0
8;2323371123; 0.9999999729776194; -1.3179811336733183E-4; 9.202216608839021E-5; 1.679462369760243E-4; -0.15802631205928425; 0.03480590996403133; 0.026882723329431518; 0.66552734375; -0.283935546875; -0.4638671875;0
9;2323387790; 0.9999999822676797; 6.034072228172649E-5; 2.1099602629859326E-5; 1.771396178303353E-4; -0.15844387050368675; 0.03411120575591099; 0.026880625608648692; 0.6650390625; -0.282958984375; -0.461181640625;0
10;2323404457; 0.9999999622193396; 2.3871346511322722E-4; -3.5081411671189506E-5; 1.317060958390126E-4; -0.1586236540799662; 0.03426588563370942; 0.02611829937078679; 0.6650390625; -0.282958984375; -0.462890625;0
11;2323421124; 0.9999999556030028; 2.9659139686999403E-4; -2.537753173376123E-5; 1.3546835467059816E-5; -0.1580803827237609; 0.03563313846881726; 0.025715112535979905; 0.66455078125; -0.282958984375; -0.460693359375;0
12;2323437791; 0.9999999762896808; 2.0303546216071666E-4; -9.74576839074537E-6; -7.811695633891391E-5; -0.15783250656379016; 0.036692025324049124; 0.0254314987175867; 0.6650390625; -0.2841796875; -0.46240234375;0
13;2323454458; 0.9999999936131585; 4.809795604154843E-5; 2.6103024169332745E-5; -9.888833010746058E-5; -0.15763014675089582; 0.03744294163554975; 0.02561964022605767; 0.663330078125; -0.28466796875; -0.461181640625;0
14;2323471125; 0.9999999958425083; -6.071425035358846E-5; 4.755474339662725E-5; -4.865500596351602E-5; -0.15745123550600842; 0.037669643520544915; 0.025455548350572864; 0.663330078125; -0.281982421875; -0.462890625;0
15;2323487792; 0.9999999882138123; -1.4654642165351506E-4; 4.3298948579961756E-5; 1.4890349036622565E-5; -0.15761595956685578; 0.03728760477845906; 0.02537355461132477; 0.667236328125; -0.282958984375; -0.4638671875;0
16;2323504459; 0.9999999698750296; -2.3355319309426026E-4; -9.501023690572376E-6; 7.491713004115219E-5; -0.15797887947204925; 0.03739819301451928; 0.025119399053130827; 0.666015625; -0.281494140625; -0.461181640625;0
17;2323521126; 0.9999999584895793; -2.7105082776335276E-4; 4.718687300897528E-6; 9.762183343298149E-5; -0.15832078839712876; 0.03693322818024364; 0.02523647743432498; 0.6650390625; -0.280029296875; -0.461181640625;0
18;2323537793; 0.999999942993797; -3.1656409452479606E-4; 3.354476305006405E-5; 1.125803074691345E-4; -0.1582946418206565; 0.03646950454911432; 0.025196017291680858; 0.66552734375; -0.281982421875; -0.460693359375;0
19;2323554460; 0.9999999472669028; -2.840790651094105E-4; 7.143649010266097E-5; 1.402216257478384E-4; -0.15849481703586005; 0.0358127495634973; 0.025539384404909885; 0.66455078125; -0.281982421875; -0.46484375;0
20;2323571127; 0.9999999690706518; -2.0266490812326232E-4; 5.3954815157297726E-5; 1.3369558085302158E-4; -0.15871697324636866; 0.035367145361901935; 0.025437766469201376; 0.666015625; -0.282958984375; -0.46337890625;0
21;2323587794; 0.9999999852230981; -1.055741581003633E-4; 3.4511152794236555E-5; 1.3121311270969385E-4; -0.15847828418980298; 0.035210812567673326; 0.025247891905106026; 0.6669921875; -0.282470703125; -0.460693359375;0
22;2323604461; 0.9999999910193252; -8.01785281623335E-5; 2.860519563230302E-5; 1.0351084838694513E-4; -0.15792277579139596; 0.03531921055781567; 0.02556729635561717; 0.6650390625; -0.281494140625; -0.460693359375;0
23;2323621128; 0.9999999955311873; -2.7869285399884092E-5; 4.204471359064988E-5; 7.995730218546272E-5; -0.15752663493275343; 0.035062865666199254; 0.025706301939237036; 0.6650390625; -0.281005859375; -0.4619140625;0
24;2323637795; 0.9999999935921875; 7.175204810261349E-5; 3.257902367898025E-5; 8.127653849987482E-5; -0.15788660375019145; 0.034948100754863; 0.025396646941861223; 0.663330078125; -0.283447265625; -0.4619140625;0
25;2323654462; 0.9999999833539628; 1.6714871379447382E-4; 1.217858175950326E-5; 7.21461284014513E-5; -0.15791016272472044; 0.0352787348275691; 0.02443853183313126; 0.6640625; -0.281005859375; -0.465576171875;0
26;2323671129; 0.9999999723636042; 2.2437684206061403E-4; 1.6285043937191993E-5; 6.828338753617214E-5; -0.1580475741392955; 0.035579467890124034; 0.02440178949301477; 0.6650390625; -0.281005859375; -0.460693359375;0
27;2323687796; 0.9999999869317505; 1.5351850553846358E-4; 1.7919501192231738E-5; 4.7407368997220985E-5; -0.1582347728371017; 0.0364388756492638; 0.02410293688301834; 0.667724609375; -0.283447265625; -0.462890625;0
28;2323704463; 0.9999999981662007; -7.573327430177024E-6; 4.7128878630620104E-5; 3.727079529780575E-5; -0.1581548488657713; 0.036614970583088685; 0.024206086665679076; 0.662841796875; -0.28515625; -0.459716796875;0
29;2323721130; 0.999999989756703; -1.2872340968489437E-4; 6.23727095416804E-5; 5.150034955825334E-6; -0.15798129588683718; 0.03619605222381599; 0.02429952407022137; 0.666015625; -0.282958984375; -0.461181640625;0
30;2323737797; 0.9999999886405909; -1.3050893744581682E-4; 7.540548870926812E-5; -4.97643655561486E-7; -0.15797960352703555; 0.035496223926758656; 0.024658240025523154; 0.6640625; -0.281982421875; -0.46240234375;0
31;2323754464; 0.9999999974656417; -1.1773794106606505E-5; 7.019492329929379E-5; -1.663466141388348E-6; -0.15791744083611786; 0.03534107920042494; 0.02493661490285596; 0.66650390625; -0.281982421875; -0.46337890625;0
32;2323771131; 0.9999999952827259; 8.279433627639277E-5; 5.079020614429109E-5; -3.321097247210858E-8; -0.157726819928676; 0.035593356318727704; 0.02480934692938556; 0.66748046875; -0.282958984375; -0.45751953125;0
33;2323787798; 0.9999999860508252; 1.5484522066300244E-4; 6.226248679780388E-5; 6.685036113285304E-6; -0.15767778698669963; 0.035896364809907544; 0.024645241491077333; 0.668212890625; -0.281982421875; -0.462890625;0
34;2323804465; 0.9999999895586345; 1.2126279202140378E-4; 7.748707101162823E-5; 1.3184081030626071E-5; -0.1578042664157855; 0.03646645050262535; 0.024547124815457524; 0.66552734375; -0.281982421875; -0.46240234375;0
35;2323821132; 0.9999999910226082; 1.16757350324459E-4; 5.8552610184559046E-5; 2.9901449752678392E-5; -0.1581980145100567; 0.03612055403924662; 0.02486621315144572; 0.667236328125; -0.2841796875; -0.46240234375;0
36;2323837799; 0.9999999854312827; 1.6312252948214034E-4; 2.4454814808949624E-5; 4.3936736909055973E-5; -0.15853983272458883; 0.03585049407599837; 0.024731653357077315; 0.666015625; -0.282958984375; -0.459228515625;0
37;2323854466; 0.9999999780760479; 1.974111887326213E-4; -2.313725332525607E-5; 6.58892543231593E-5; -0.15879460290396039; 0.035572764339559915; 0.02481913520271636; 0.666015625; -0.28466796875; -0.462890625;0
38;2323871133; 0.999999970365439; 2.1421515752662046E-4; -9.067575701182663E-5; 7.182544583184125E-5; -0.15895752329070367; 0.03590261236450178; 0.02467733663261685; 0.667724609375; -0.281982421875; -0.460205078125;0
39;2323887800; 0.9999999713752582; 2.091501349683056E-4; -8.861069886767493E-5; 7.519207355094483E-5; -0.15838287175607474; 0.03564619612052281; 0.02483235510932324; 0.66748046875; -0.2841796875; -0.458251953125;0
40;2323904467; 0.9999999806791782; 1.6200689262935164E-4; -8.00699512358838E-5; 7.735769503697254E-5; -0.1584194544863502; 0.03579434783492685; 0.024933175109630074; 0.6669921875; -0.281982421875; -0.459228515625;0
41;2323921134; 0.9999999786064878; 1.801833323779034E-4; -7.861147100618471E-5; 6.435236782814659E-5; -0.15816668370695236; 0.03493708229975349; 0.025356078846653977; 0.667236328125; -0.283447265625; -0.4619140625;0
42;2323937801; 0.99999996029826; 2.574897558328959E-4; -1.0072530971572126E-4; 5.4377533316274373E-5; -0.15818047181785885; 0.034831276324721244; 0.02537586911772023; 0.6650390625; -0.28466796875; -0.459716796875;0
43;2323954468; 0.999999921580542; 3.7389295089329533E-4; -1.2581656241367203E-4; 3.483050381114517E-5; -0.157873915944652; 0.03489132318177885; 0.025322112926243142; 0.66650390625; -0.28466796875; -0.460205078125;0
44;2323971135; 0.9999998788597395; 4.7900042114340513E-4; -1.1330666246661682E-4; -8.384859657706301E-7; -0.15793491296614334; 0.03533380322344336; 0.024550373545653405; 0.66650390625; -0.2861328125; -0.4619140625;0
45;2323987802; 0.9999998653327984; 5.138853773047902E-4; -6.956625612797307E-5; -2.0414214089881092E-5; -0.15777987030272297; 0.03601018795517003; 0.024635625139461367; 0.6650390625; -0.28564453125; -0.459716796875;0
46;2324004469; 0.9999999057902613; 4.2692735427335426E-4; -1.668418598160804E-5; -7.664294267489824E-5; -0.15760626562721344; 0.036646154686814474; 0.024852921012660293; 0.667236328125; -0.2880859375; -0.460693359375;0
47;2324021136; 0.9999999254073395; 3.800680220129582E-4; 1.3645373867554602E-5; -6.743454440594211E-5; -0.157552444238707; 0.03634493296781385; 0.02486469768159777; 0.667724609375; -0.2880859375; -0.459228515625;0
48;2324037803; 0.9999999407205863; 3.3766029258996966E-4; 4.8571480659564965E-5; -4.6745714881224476E-5; -0.1575396441298799; 0.036929070735458036; 0.025216117657124632; 0.668701171875; -0.288818359375; -0.459228515625;0
49;2324054470; 0.9999999584073878; 2.700588468356191E-4; 7.956712291118384E-5; -6.262998449535485E-5; -0.15774653731901225; 0.036947452211968435; 0.025433190817194317; 0.666015625; -0.2880859375; -0.45556640625;0
50;2324071137; 0.9999999711246498; 2.1959326587628336E-4; 7.243629482983628E-5; -6.544066336477972E-5; -0.1582683534667897; 0.0368573779248335; 0.025338159257634097; 0.66650390625; -0.2880859375; -0.458740234375;0
51;2324087804; 0.9999999790893879; 1.8440354544618787E-4; 2.592315552402136E-5; -8.452541850839658E-5; -0.15809943500325643; 0.03698816909498093; 0.025589030966712306; 0.663818359375; -0.28662109375; -0.45703125;0
52;2324104471; 0.999999990822753; 1.0659089152187384E-4; 2.4622431350040944E-5; -7.991627870468365E-5; -0.15771359022632458; 0.036946709160848225; 0.02585457652362477; 0.6669921875; -0.28466796875; -0.45751953125;0
53;2324121138; 0.9999999921675786; 6.288384573832628E-5; 8.559872277841274E-5; -6.620667076145949E-5; -0.15723722874309767; 0.03670179136967026; 0.026118192497238936; 0.6669921875; -0.289306640625; -0.455078125;0
54;2324137805; 0.9999999863804421; 1.061883300868538E-4; 1.16470081865383E-4; -4.8968093950996217E-5; -0.1578490680612876; 0.036387434913435844; 0.026148538949765123; 0.6669921875; -0.2880859375; -0.459228515625;0
55;2324154472; 0.9999999781152074; 1.912135124139125E-4; 8.321908000974433E-5; -1.6779822125556624E-5; -0.15793803899441441; 0.03677850478510949; 0.025896832525803364; 0.668701171875; -0.28662109375; -0.45654296875;0
56;2324171139; 0.9999999813379435; 1.8965495761452678E-4; 2.486192078615668E-5; -2.714764475469922E-5; -0.15855195837784763; 0.03657359526795549; 0.02589630820102781; 0.66650390625; -0.287109375; -0.45654296875;0
57;2324187806; 0.9999999571400843; 2.7566117953331526E-4; 9.531644069488143E-5; -2.5407083759365626E-5; -0.15745603651448983; 0.03550341624526257; 0.025740124104309953; 0.666015625; -0.2880859375; -0.45556640625;0
58;2324204473; 0.9999999058150587; 4.263222344095263E-4; 3.6596129182331356E-5; 7.266326136956547E-5; -0.15867095434877976; 0.03838259618013865; 0.025080750584065708; 0.6669921875; -0.289306640625; -0.453857421875;0
59;2324221140; 0.9999999390214331; -1.448716622889923E-4; 2.4772751989737834E-4; 1.9899851070565025E-4; -0.15648512117297736; 0.043061686948030156; 0.02317637906638342; 0.66796875; -0.28515625; -0.45458984375;0
60;2324237807; 0.9999996539768148; -6.344618026833948E-4; 4.561369202243926E-4; 2.853832186180405E-4; -0.1570973708734929; 0.03970113349575844; 0.024250140931595356; 0.66748046875; -0.2861328125; -0.45654296875;0
61;2324254474; 0.9999997857407998; -4.907134403598912E-4; 3.134888541440617E-4; 2.990709146977744E-4; -0.15883294810817095; 0.03360648233713738; 0.027489524519163647; 0.670654296875; -0.288818359375; -0.45654296875;0
62;2324271141; 0.9999998113940669; -3.0019231834022E-4; 3.3597561582365826E-4; 4.1739284643937946E-4; -0.15682634598474998; 0.03566259669255227; 0.02499401329937335; 0.670166015625; -0.290283203125; -0.453857421875;0
63;2324287808; 0.999999823329933; -2.2588355809016747E-4; 3.225194665392173E-4; 4.453065401289203E-4; -0.15859334473262154; 0.03481003717418997; 0.025487399462907685; 0.669677734375; -0.28662109375; -0.452880859375;0
64;2324304475; 0.9999998772845808; -2.6073333939280463E-5; 2.0738378503232238E-4; 4.491580682899343E-4; -0.1588354173632776; 0.03540100758612835; 0.025115692109553216; 0.66796875; -0.290283203125; -0.453857421875;0
65;2324321142; 0.999999927067251; 7.722758137307384E-5; -3.238751399842199E-5; 3.7262909460139554E-4; -0.15867789857978962; 0.036151957292630856; 0.024718227952833616; 0.66796875; -0.290283203125; -0.452880859375;0
66;2324337809; 0.9999999409899736; 4.5772497560936376E-5; -1.9059932417736516E-4; 2.821290936728116E-4; -0.15887445246391288; 0.03674325001883056; 0.023885394754554225; 0.668701171875; -0.291259765625; -0.455078125;0
67;2324354476; 0.9999999372901056; 4.860672838907787E-5; -2.2523371524213467E-4; 2.689366920657355E-4; -0.15796210011305323; 0.03664984685120916; 0.023360173755687615; 0.66748046875; -0.290283203125; -0.453369140625;0
68;2324371143; 0.9999999583118138; 2.886784856198643E-5; -1.5115872961091184E-4; 2.443236715915509E-4; -0.15724588464252337; 0.03663589029139079; 0.02353903038210447; 0.6669921875; -0.290771484375; -0.45654296875;0
69;2324387810; 0.9999999841024356; 5.809988699517765E-5; -8.471419196903751E-5; 1.457499136099383E-4; -0.15660162628551189; 0.03643812178875186; 0.024036096548165825; 0.668701171875; -0.289306640625; -0.4560546875;0
70;2324404477; 0.9999999794129519; 1.6610618741208505E-4; -9.692821618928484E-5; 6.471283722819798E-5; -0.15716442563787358; 0.03602946844133657; 0.024519251462086677; 0.66796875; -0.291259765625; -0.452880859375;0
71;2324421144; 0.9999999492451851; 2.7045969428518557E-4; -1.6746944349771423E-4; 1.775293038702719E-5; -0.15783962596566228; 0.036489633281035154; 0.023915195113866156; 0.66748046875; -0.291259765625; -0.453369140625;0
72;2324437811; 0.9999999267280832; 2.631335762129927E-4; -2.7752710945766484E-4; -1.6830111524701596E-5; -0.15836193405499988; 0.03738649169191478; 0.023891418891441807; 0.66748046875; -0.289306640625; -0.453857421875;0
73;2324454478; 0.9999999442221874; 1.6425008406251163E-4; -2.906276233500815E-4; -1.063562945974317E-5; -0.15795069927444957; 0.03811239037712777; 0.02370321229967154; 0.6650390625; -0.288818359375; -0.45556640625;0
74;2324471145; 0.9999999745482939; -1.4040207739984822E-5; -2.2491797838031238E-4; -1.0871382392474427E-5; -0.15772225513090543; 0.03803657711903992; 0.023803878130113997; 0.669677734375; -0.290283203125; -0.453857421875;0
75;2324487812; 0.9999999707923359; -1.994139801826389E-4; -1.3311551593364615E-4; -3.0490183162146248E-5; -0.15775647653933625; 0.03750695586301613; 0.023894467111733115; 0.66650390625; -0.290771484375; -0.4560546875;0
76;2324504479; 0.9999999696533588; -2.4427967727541633E-4; -2.966226544376394E-5; -1.1868891075572652E-5; -0.1575688922040731; 0.03654747027670682; 0.024183195087975815; 0.669677734375; -0.291259765625; -0.459228515625;0
77;2324521146; 0.9999999665713898; -2.58513996343801E-4; 5.974813894193964E-7; 5.232203432847805E-6; -0.15776998599927275; 0.0363059433740025; 0.02420764242157701; 0.66650390625; -0.290771484375; -0.45703125;0
78;2324537813; 0.9999999768380985; -2.144271786269636E-4; -1.0804039391298927E-5; -1.5101662902750057E-5; -0.15791712699168756; 0.03575168660477754; 0.0245592681090001; 0.66650390625; -0.291259765625; -0.45556640625;0
79;2324554480; 0.9999999921008078; -1.1388310578541727E-4; -2.888935558575945E-5; -4.4659016123549396E-5; -0.15832838729964538; 0.035280957944510076; 0.024634465557458334; 0.663330078125; -0.290283203125; -0.4560546875;0
80;2324571147; 0.9999999974297187; 1.8830329905350496E-6; -1.4363199526523653E-5; -7.021905299176012E-5; -0.15830090167179656; 0.03559864605971636; 0.02458822200444441; 0.669189453125; -0.287109375; -0.4580078125;0
81;2324587814; 0.9999999879091974; 1.1990512598908376E-4; -2.280807020854647E-5; -9.635433343158085E-5; -0.15848903684933296; 0.035777665038293646; 0.024664274376037368; 0.667724609375; -0.292236328125; -0.459716796875;0
82;2324604481; 0.9999999762891911; 1.8351280382439272E-4; -5.935868132506129E-5; -1.0110002400509632E-4; -0.15878969529863457; 0.03637354081452581; 0.024968802474614294; 0.66748046875; -0.29345703125; -0.45556640625;0
83;2324621148; 0.9999999658382239; 2.211905066092923E-4; -1.1004995011298925E-4; -8.536579657603129E-5; -0.1586993025942409; 0.036902055369554154; 0.024930358137215426; 0.66796875; -0.287109375; -0.455078125;0
84;2324637815; 0.9999999589503473; 2.392683293981901E-4; -1.4863339587478655E-4; -5.2517461560264156E-5; -0.15825810737582224; 0.03698302320167185; 0.024972912420014263; 0.66455078125; -0.291259765625; -0.45703125;0
85;2324654482; 0.99999995633082; 2.1727690697626034E-4; -1.9655805880364197E-4; -3.865272655267927E-5; -0.1579285087152545; 0.037258744133152534; 0.025052266052808213; 0.668701171875; -0.289306640625; -0.45654296875;0
86;2324671149; 0.9999999511028834; 2.223265335266067E-4; -2.187198643138211E-4; -2.2951342608379388E-5; -0.15831865456961744; 0.03710077744329453; 0.024774379440093874; 0.66650390625; -0.290283203125; -0.45703125;0
87;2324687816; 0.9999999303125437; 2.6763063062046344E-4; -2.5897784477058044E-4; -2.6062019922390437E-5; -0.15768338342157057; 0.03715638713784363; 0.02460460471907449; 0.668701171875; -0.289794921875; -0.4560546875;0
88;2324704483; 0.9999999252988965; 2.702805148829257E-4; -2.741210705198283E-4; -3.4760373662290345E-5; -0.1577812804378871; 0.03719349049668034; 0.02500989362747254; 0.661865234375; -0.292236328125; -0.45458984375;0
89;2324721150; 0.9999999397984028; 2.2117691033601838E-4; -2.63857569344661E-4; -4.316419998007249E-5; -0.15753589389507816; 0.037653320963149876; 0.024403807105027642; 0.666015625; -0.292236328125; -0.458740234375;0
90;2324737817; 0.9999999563175059; 1.7094693041691533E-4; -2.3894590709144794E-4; -3.23571730702632E-5; -0.1572658276336336; 0.03748874256362399; 0.024461981466846396; 0.6669921875; -0.290283203125; -0.458251953125;0
91;2324754484; 0.9999999657379912; 1.4058152906720744E-4; -2.192301963941379E-4; -2.6438061649258774E-5; -0.15742853683921615; 0.03778129119293182; 0.024833220053832185; 0.66650390625; -0.29443359375; -0.4560546875;0
92;2324771151; 0.9999999670548698; 1.198321479853881E-4; -2.2594978032985938E-4; -2.1845186919444703E-5; -0.15761931991125172; 0.03755995503210593; 0.02498795545632002; 0.663330078125; -0.291748046875; -0.45751953125;0
93;2324787818; 0.9999999746807944; 7.905781189926353E-5; -2.105366035446976E-4; -7.91275406369918E-6; -0.15762363720670178; 0.037709736820794246; 0.025205531807573782; 0.662841796875; -0.291748046875; -0.4560546875;0
94;2324804485; 0.9999999813246125; 4.894791133641663E-5; -1.8675417862773494E-4; 8.817792574833394E-6; -0.1574205612152174; 0.03711377328620168; 0.024914052480841054; 0.662841796875; -0.291748046875; -0.45703125;0
95;2324821152; 0.9999999837732497; 4.148376155266309E-5; -1.751714054141207E-4; -6.897577884912299E-6; -0.15756883174874914; 0.03690060558672567; 0.02498861546704485; 0.66650390625; -0.290771484375; -0.459228515625;0
96;2324837819; 0.9999999863743064; 5.0029293895359483E-5; -1.5471788963689062E-4; -2.8475100706804035E-5; -0.1575127778086514; 0.036423787587943325; 0.02468613882056929; 0.662841796875; -0.291748046875; -0.45654296875;0
97;2324854486; 0.9999999731616265; 1.517632316518358E-4; -1.7258716632512217E-4; -2.9297406724138057E-5; -0.15726054737711517; 0.03599487850156735; 0.025188574035577407; 0.662841796875; -0.28857421875; -0.459228515625;0
98;2324871153; 0.9999999627923636; 2.2711073790371294E-4; -1.3358995554124678E-4; -7.063786511218861E-5; -0.1574029551995434; 0.03691857453984186; 0.02503849170637381; 0.666015625; -0.294921875; -0.461181640625;0
99;2324887820; 0.9999999502308907; 2.6734184172511055E-4; -1.564881949102093E-4; -5.981639039220888E-5; -0.15771347474725728; 0.03730791093556974; 0.024881277544596535; 0.6640625; -0.2939453125; -0.45751953125;0
100;2324904487; 0.999999950072731; 2.520210900684994E-4; -1.9032502873783666E-4; -1.0783748394638248E-5; -0.15812980108738042; 0.03785990045034561; 0.024526336192163795; 0.6650390625; -0.293212890625; -0.45703125;0
101;2324921154; 0.9999999532273816; 1.9132406866950724E-4; -2.3780712218002265E-4; 1.9700458331439744E-5; -0.15817864653827723; 0.03797642669296673; 0.024439622470309445; 0.65966796875; -0.290771484375; -0.457763671875;0
102;2324937821; 0.999999967186205; 1.1349869255883327E-4; -2.243473467433699E-4; 4.913149331353672E-5; -0.15795335718861173; 0.037429875995437914; 0.02444035924018175; 0.660888671875; -0.293701171875; -0.458251953125;0
103;2324954488; 0.9999999821239283; 8.895487188514961E-5; -1.5624218829102257E-4; 5.854530316801166E-5; -0.15708749357393653; 0.03666920962427391; 0.02515106619372996; 0.663818359375; -0.293212890625; -0.45703125;0
104;2324971155; 0.9999999754160598; 1.7211927883198364E-4; -1.2651168207900024E-4; 5.9477963278320445E-5; -0.15713238818683656; 0.03579590290739955; 0.025520385162092308; 0.6650390625; -0.293212890625; -0.460693359375;0
105;2324987822; 0.9999999255807279; 3.625685424560321E-4; -1.2852091214260453E-4; 2.941029934128148E-5; -0.15761486688057158; 0.035352313116968646; 0.025437589330618886; 0.666015625; -0.2939453125; -0.461181640625;0
106;2325004489; 0.9999998500639253; 5.259185212309614E-4; -1.5227222688291023E-4; 9.747038926810614E-6; -0.15784253375305807; 0.03601201576551246; 0.0251062482192588; 0.6640625; -0.291748046875; -0.461181640625;0
107;2325021156; 0.9999998434615958; 5.306826623296956E-4; -1.7461406254976056E-4; -3.1026196705530314E-5; -0.15802316718106674; 0.03760868134538585; 0.02416595846975476; 0.660400390625; -0.294921875; -0.459716796875;0
108;2325037823; 0.9999999197521411; 3.6110981011677756E-4; -1.6854648106900963E-4; -4.107919176382646E-5; -0.15802232657241372; 0.038823652537744766; 0.024622458485273606; 0.662353515625; -0.298828125; -0.460205078125;0
109;2325054490; 0.9999999829793625; 1.2750433349117962E-4; -1.3309321345650327E-4; -8.373535574923709E-6; -0.15786672438891958; 0.038773964871775125; 0.024810588492668345; 0.662353515625; -0.29638671875; -0.458251953125;0
110;2325071157; 0.9999999887040656; -2.680410963740165E-7; -1.438865627457209E-4; 4.345634589542069E-5; -0.15763468349449275; 0.03796104070414545; 0.02521845798308412; 0.66357421875; -0.29443359375; -0.459716796875;0
111;2325087824; 0.9999999863764739; 8.747801450714743E-6; -1.3996738873284234E-4; 8.7061231605734E-5; -0.1573361029304295; 0.036327570144979664; 0.02544173909574611; 0.662841796875; -0.293701171875; -0.460205078125;0
112;2325104491; 0.999999972097664; 1.755173664904075E-4; -1.3086971487191737E-4; 8.872115349017884E-5; -0.1569107181822957; 0.03588449549760899; 0.0253297209677024; 0.661865234375; -0.2958984375; -0.459228515625;0
113;2325121158; 0.9999999372194455; 3.434376541539552E-4; -7.90704493771055E-5; 3.687203263819106E-5; -0.15714391174365933; 0.03605147749290557; 0.024845751694940084; 0.662353515625; -0.2958984375; -0.458740234375;0
114;2325137825; 0.999999904802005; 4.3374857419370416E-4; -4.095891822747389E-5; 2.409403230790863E-5; -0.15777376406238947; 0.03692117758151754; 0.02498914150153956; 0.659912109375; -0.29736328125; -0.458740234375;0
115;2325154492; 0.9999998943790669; 4.525475589890471E-4; -7.642832817011948E-5; 2.452086199905557E-5; -0.1581153433210846; 0.03801085211061335; 0.025082259017633682; 0.65966796875; -0.2958984375; -0.45654296875;0
116;2325171159; 0.9999999076269601; 3.8978585200555305E-4; -1.6019910461367862E-4; 8.455357870479352E-5; -0.15807074099787885; 0.03830092275976907; 0.02488203435975894; 0.662353515625; -0.293701171875; -0.461181640625;0
117;2325187826; 0.9999999107652315; 3.47112616191414E-4; -2.0695142203736028E-4; 1.2309942918597996E-4; -0.15790251710091718; 0.03826994493137559; 0.024997980235606128; 0.661865234375; -0.29638671875; -0.458251953125;0
118;2325204493; 0.999999905249949; 3.4628833390543123E-4; -2.245276615401859E-4; 1.3846231313552337E-4; -0.1577883574297517; 0.03737758046126065; 0.025087149295196027; 0.660888671875; -0.29638671875; -0.458251953125;0
119;2325221160; 0.9999999006731266; 3.800943655163924E-4; -1.9284690949100683E-4; 1.3035367165448178E-4; -0.15683423533291987; 0.03727952121817395; 0.02499340391981932; 0.660888671875; -0.300537109375; -0.45654296875;0
120;2325237827; 0.9999999008426714; 4.255253448425256E-4; -1.0499576343103724E-4; 7.885884757552475E-5; -0.15622950959573306; 0.03746741016704791; 0.025423434728319975; 0.660400390625; -0.301025390625; -0.460693359375;0
121;2325254494; 0.9999999063762567; 4.285200708936121E-4; -2.5974279851181947E-5; 5.4252774527530086E-5; -0.15693712699812393; 0.038388091967675335; 0.025463564509234093; 0.661376953125; -0.302001953125; -0.460693359375;0
122;2325271161; 0.9999999371618159; 3.479399073966216E-4; -1.7618991104417783E-6; 6.790494016378767E-5; -0.15747506336434727; 0.03940693318548684; 0.025320846034888808; 0.659423828125; -0.303466796875; -0.459716796875;0
123;2325287828; 0.999999988232575; 1.3471766954609166E-4; -3.1922777140591667E-6; 7.331990762404762E-5; -0.15773860899861436; 0.04021467580065064; 0.02494333067422822; 0.661376953125; -0.299560546875; -0.458251953125;0
124;2325304495; 0.9999999887290442; -8.99420635803172E-5; 8.932109489601105E-6; 1.1988558766756752E-4; -0.15781248455054275; 0.040087979769623173; 0.02481900390573842; 0.660888671875; -0.300537109375; -0.458251953125;0
125;2325321162; 0.99999995457005; -2.6040612786437656E-4; 1.7694342167584587E-6; 1.5180716581486567E-4; -0.15763592724186504; 0.03919633058002383; 0.024610535555183465; 0.65869140625; -0.302001953125; -0.45703125;0
126;2325337829; 0.9999999234367156; -3.4419327166690383E-4; 4.209381377118238E-5; 1.813440525077481E-4; -0.15745196061098693; 0.03814199650692218; 0.025204740447288484; 0.660888671875; -0.300048828125; -0.45654296875;0
127;2325354496; 0.9999999070721486; -3.821484199171832E-4; 9.692247157511159E-5; 1.74425668394429E-4; -0.15757349661738781; 0.03728792604269008; 0.025755382943965996; 0.660400390625; -0.299560546875; -0.458740234375;0
128;2325371163; 0.9999999369297154; -3.1393703792154115E-4; 5.5243465181986646E-5; 1.5662777770741876E-4; -0.15805246795784203; 0.0362510502241062; 0.026346918935432555; 0.661376953125; -0.300537109375; -0.458251953125;0
129;2325387830; 0.999999977157275; -1.8217724672037194E-4; -4.133295122693559E-5; 1.0386764428055308E-4; -0.15816745271591715; 0.03562747089841781; 0.02595661258310689; 0.658935546875; -0.302001953125; -0.4619140625;0
130;2325404497; 0.9999999910665189; -5.356038684484199E-5; -1.0081902380237874E-4; 6.952532949427992E-5; -0.15801722659116374; 0.036025173621868904; 0.025959793048364422; 0.659423828125; -0.300048828125; -0.459716796875;0
131;2325421164; 0.9999999906457722; 3.898971501309356E-5; -1.2068967570877388E-4; 5.120800728181108E-5; -0.1582130391589181; 0.03673208234804918; 0.025333858201739494; 0.660400390625; -0.300537109375; -0.460205078125;0
132;2325437831; 0.999999992021221; 2.776645862301308E-5; -1.1603589828013129E-4; 4.1500022358698097E-5; -0.15840671611919993; 0.037306148035628615; 0.024684089063018656; 0.6591796875; -0.300537109375; -0.458251953125;0
133;2325454498; 0.9999999871089713; -2.9176963264265776E-5; -1.5477637051997117E-4; 3.122558555962441E-5; -0.15824523177669692; 0.037644283643418625; 0.02471370402054831; 0.659912109375; -0.301513671875; -0.459716796875;0
134;2325471165; 0.9999999749723045; -1.0249186777927521E-4; -1.9273184381379818E-4; 4.9043284769179074E-5; -0.15846974293646376; 0.03798039009423553; 0.02479400929582463; 0.659912109375; -0.301025390625; -0.458740234375;0
135;2325487832; 0.9999999542364519; -2.0079011239737543E-4; -2.2039680544666543E-4; 5.133880362034882E-5; -0.15824921251875637; 0.03742803056642242; 0.024940802326119938; 0.660888671875; -0.300537109375; -0.459228515625;0
136;2325504499; 0.999999931941411; -2.9465138043394123E-4; -2.0922740161311018E-4; 7.430768330596305E-5; -0.15804512041556634; 0.03713006433030233; 0.02527528893421901; 0.659423828125; -0.300537109375; -0.460693359375;0
137;2325521166; 0.9999999193572439; -3.324596538145652E-4; -2.1450440298681483E-4; 6.887630674695667E-5; -0.15808207068929853; 0.03645704885594737; 0.025315866276226853; 0.65673828125; -0.302490234375; -0.459228515625;0
138;2325537833; 0.9999999352755973; -2.546010578344804E-4; -2.4689272160532966E-4; 6.058949206849684E-5; -0.1588353393710684; 0.03544920345006336; 0.02549656070288927; 0.659423828125; -0.2978515625; -0.4619140625;0
139;2325554500; 0.9999999445946528; -9.168544069221296E-5; -3.185378790408478E-4; 3.0628270032417866E-5; -0.15862398017907542; 0.035305679441471866; 0.025022256145336416; 0.659423828125; -0.29931640625; -0.460693359375;0
140;2325571167; 0.9999999484614682; 4.939222279415345E-5; -3.1298629801912453E-4; -5.174018247289247E-5; -0.15843740529399225; 0.03565142943487644; 0.02557038753140412; 0.658935546875; -0.29931640625; -0.46337890625;0
141;2325587834; 0.9999999525320307; 1.5967856772491906E-4; -2.457805195217322E-4; -9.502961356644414E-5; -0.15866779292555988; 0.03632850534633882; 0.026425543202102008; 0.660888671875; -0.298828125; -0.465576171875;0
142;2325604501; 0.9999999495725738; 1.4243676221559198E-4; -2.556593553456055E-4; -1.233082018015086E-4; -0.15974563197023192; 0.03783337235862004; 0.026687112737473366; 0.65771484375; -0.302001953125; -0.46142578125;0
143;2325621168; 0.999999930074742; 8.43374421186649E-5; -3.5545397521435934E-4; -7.99385915529749E-5; -0.15970502961626595; 0.038530665538529865; 0.02671664050940447; 0.655029296875; -0.29833984375; -0.46240234375;0
144;2325637835; 0.9999998930513494; 1.2393701209534314E-5; -4.62069262165743E-4; -1.53519713713135E-5; -0.15876252371888128; 0.03806982439639755; 0.02643663903929061; 0.658447265625; -0.298828125; -0.466064453125;0
145;2325654502; 0.9999998951645099; 4.464011264554424E-5; -4.519612148823904E-4; 5.838912389882767E-5; -0.15811595621032565; 0.03673085439415846; 0.026128480147564765; 0.654541015625; -0.2998046875; -0.462890625;0
146;2325671169; 0.9999999116093957; 1.0773867089824973E-4; -4.0345269805780465E-4; 4.898469078151724E-5; -0.1580504655427474; 0.03579188210619951; 0.026047215094411262; 0.6572265625; -0.29833984375; -0.4638671875;0
147;2325687836; 0.9999999192708071; 2.7562623601617986E-4; -2.909222205003115E-4; -2.920306344422752E-5; -0.15807436334703048; 0.0349520161379373; 0.02647034207137588; 0.658447265625; -0.301025390625; -0.465087890625;0
148;2325704503; 0.9999998804116497; 4.2455438220428965E-4; -2.172718306618915E-4; -1.0827379381250779E-4; -0.15812203374250328; 0.035208914241170904; 0.02682984649494978; 0.653076171875; -0.302490234375; -0.466064453125;0
149;2325721170; 0.9999998368925522; 5.014233336861906E-4; -2.0350131995106047E-4; -1.826929725279869E-4; -0.15790732801081098; 0.03523565718709104; 0.027161830092074714; 0.652099609375; -0.301025390625; -0.464599609375;0
150;2325737837; 0.999999811525063; 5.140146002058921E-4; -2.435582545116666E-4; -2.311237892149154E-4; -0.157733061978669; 0.03645531695450897; 0.026651763294394424; 0.65673828125; -0.2998046875; -0.46923828125;0
151;2325754504; 0.9999998405928934; 4.654897424589688E-4; -2.5308813240804145E-4; -1.9514067971831975E-4; -0.1565733636240023; 0.03624747166630939; 0.02651248909593072; 0.654052734375; -0.298828125; -0.4619140625;0
152;2325771171; 0.9999998744530112; 3.99343032160715E-4; -2.4279304368429735E-4; -1.80750220990733E-4; -0.1559875458844163; 0.036351778158340606; 0.02576640229992517; 0.65380859375; -0.303466796875; -0.467041015625;0
153;2325787838; 0.999999911602182; 3.4642319944194755E-4; -1.8507413732571365E-4; -1.5011381966750784E-4; -0.15572742468400136; 0.0347574586822268; 0.02533314104392956; 0.653076171875; -0.301025390625; -0.466552734375;0
154;2325804505; 0.9999998695935948; 4.520220257714924E-4; -1.4173350995927428E-4; -1.9078913421438637E-4; -0.15562256274995714; 0.033604456311090485; 0.02533441813450383; 0.652587890625; -0.301513671875; -0.465087890625;0
155;2325821172; 0.9999997025940794; 7.201600379679873E-4; -1.7777981420319391E-4; -2.1112936771128246E-4; -0.15666322716971165; 0.0343649404565053; 0.025234058736565815; 0.654052734375; -0.298828125; -0.46435546875;0
156;2325837839; 0.9999996213159523; 8.172927195675417E-4; -2.0489781758470385E-4; -2.1775547468588785E-4; -0.15626739820657787; 0.03440140420605303; 0.02553978891504375; 0.653564453125; -0.302490234375; -0.466064453125;0
157;2325854506; 0.9999995997425334; 8.554292306333089E-4; -1.789613502695131E-4; -1.9164665291060426E-4; -0.1558299821681264; 0.035149175486269606; 0.025425840272198273; 0.654296875; -0.303955078125; -0.467041015625;0
158;2325871173; 0.9999995853552976; 8.8016227942872E-4; -8.095605608376967E-5; -2.192024445373808E-4; -0.15641591746035743; 0.034950899717922944; 0.02597272132511002; 0.653076171875; -0.30712890625; -0.466064453125;0
159;2325887840; 0.9999994797131855; 9.934768887480683E-4; -1.9932525073373956E-5; -2.3060729490886891E-4; -0.15749748895129395; 0.0349404649998445; 0.027043497666224398; 0.65576171875; -0.3056640625; -0.4638671875;0
160;2325904507; 0.9999993747058884; 0.0010862592396989057; 1.3675129447165981E-6; -2.657570811145926E-4; -0.15771946941341164; 0.03601770554769406; 0.027825254567056357; 0.653564453125; -0.304931640625; -0.4619140625;0
161;2325921174; 0.9999993918594401; 0.0010668783237910429; 1.758190441442098E-5; -2.788230065847164E-4; -0.15754395804918078; 0.037796798215462314; 0.027772137235856944; 0.653564453125; -0.30615234375; -0.4638671875;0
162;2325937841; 0.9999995721740227; 8.966541030124842E-4; -5.151077918041925E-6; -2.272370075409036E-4; -0.15708945884844552; 0.03828816630796654; 0.02768457326024577; 0.65625; -0.30712890625; -0.46142578125;0
163;2325954508; 0.9999997375566818; 7.004578462398436E-4; -2.0147772006873236E-5; -1.8395499609380475E-4; -0.15707532737861346; 0.03817276323875497; 0.027098259790699245; 0.65576171875; -0.3076171875; -0.4619140625;0
164;2325971175; 0.9999997686717699; 6.641789033576817E-4; -1.8854820178937363E-5; -1.4548981658996096E-4; -0.1568349788556884; 0.03654598171835879; 0.02705332051405974; 0.6552734375; -0.30712890625; -0.46142578125;0
165;2325987842; 0.9999996785523668; 7.870968182162597E-4; 2.4363014930972593E-5; -1.5093112734498873E-4; -0.15668266052726187; 0.03592078341919531; 0.026576842504025103; 0.65576171875; -0.3095703125; -0.460693359375;0
166;2326004509; 0.9999994776856642; 0.001008413868114011; 9.811108430779482E-5; -1.3455141986634667E-4; -0.15611209787845867; 0.035880738323741855; 0.026186264554180414; 0.654052734375; -0.3076171875; -0.459228515625;0
167;2326021176; 0.9999991897324818; 0.0012594517958722795; 1.6638547483183166E-4; -8.143357600132185E-5; -0.15645053472938197; 0.03663711374589297; 0.02657979692424574; 0.658203125; -0.311279296875; -0.4560546875;0
168;2326037843; 0.9999989644221432; 0.001428316681494679; 1.744709755987506E-4; 2.5019538150428122E-5; -0.1572064918688548; 0.03760442592402333; 0.026637040583639037; 0.655029296875; -0.313232421875; -0.4560546875;0
169;2326054510; 0.9999987253363634; 0.0015854388170832845; 1.179059610377231E-4; 1.4767393225978423E-4; -0.15868208351008067; 0.037296878490538546; 0.02785276160932695; 0.65771484375; -0.313720703125; -0.45556640625;0
170;2326071177; 0.9999983355605886; 0.0018020370861243085; -7.205782334113177E-5; 2.7630791310495617E-4; -0.15965524024474875; 0.03657284499208202; 0.027948510863148635; 0.65673828125; -0.31640625; -0.45556640625;0
171;2326087844; 0.9999977800654405; 0.002071994903408869; -2.1256938826114127E-4; 3.1861507585689847E-4; -0.16002012700480495; 0.035224063786922846; 0.028058985170573293; 0.655029296875; -0.321533203125; -0.4541015625;0
172;2326104511; 0.9999968747050129; 0.0024550690429121502; -3.1640910529645577E-4; 3.5085820409980206E-4; -0.1614572251859957; 0.033234447736967744; 0.02929537267055632; 0.654052734375; -0.323974609375; -0.451904296875;0
173;2326121178; 0.9999939742376311; 0.003375715810789104; -5.947294694387262E-4; 5.498436605000935E-4; -0.16511420765355433; 0.026589779943633075; 0.0317056673749853; 0.653076171875; -0.3271484375; -0.4560546875;0
174;2326137845; 0.9999866255174295; 0.005029728215349305; -9.725789616450432E-4; 7.104298047675428E-4; -0.1643039375241125; 0.019172120885544784; 0.036052195109871975; 0.64990234375; -0.330810546875; -0.452880859375;0
175;2326154512; 0.999975689116381; 0.006825957251218484; -0.0012269157744762007; 7.226074355081714E-4; -0.16584989649769982; 0.013848570583648058; 0.03769535853186421; 0.64990234375; -0.340576171875; -0.44677734375;0
176;2326171179; 0.9999607951010894; 0.008712412973338524; -0.001367105735044727; 7.957027639327041E-4; -0.16821717130870942; 0.0033956417568241776; 0.03930465616898536; 0.64990234375; -0.351806640625; -0.442626953125;0
177;2326187846; 0.9999456975041376; 0.010187699851719745; -0.0015614825473106442; 0.001540969483649013; -0.17471774105121954; -0.023448209555074102; 0.04107971889261509; 0.64892578125; -0.362548828125; -0.4404296875;0
178;2326204513; 0.9999116703283337; 0.01300878290882157; -0.0012531398215675507; 0.00241924554778411; -0.17220541895952193; -0.07111810376419107; 0.04850470573876052; 0.640869140625; -0.380615234375; -0.429931640625;0
179;2326221180; 0.9998263326569543; 0.018463475877822932; -9.961884182240202E-4; 0.0023264120206125676; -0.18566694355804783; -0.1116954633123071; 0.05149058843381352; 0.63818359375; -0.402099609375; -0.420166015625;0
180;2326237847; 0.99970804880869; 0.024100947847480403; -0.0017164708978256173; 1.2323811006453855E-4; -0.18660447043071776; -0.1256335588180691; 0.047949890139043154; 0.637451171875; -0.428466796875; -0.404541015625;0
181;2326254514; 0.9996140941454079; 0.027234679865021483; -0.003058228734923063; -0.004536764872696276; -0.1884821629564378; -0.11899924088260112; 0.038384920142713275; 0.638916015625; -0.451171875; -0.38671875;0
182;2326271181; 0.9996693723173726; 0.023259576691178174; -0.0031827118323199404; -0.010488493129606813; -0.18514221325252153; -0.09695315927553232; 0.0429427790432239; 0.64013671875; -0.466552734375; -0.366943359375;0
183;2326287848; 0.9997751219274431; 0.01366430569909416; -6.798758838658104E-4; -0.01620278042529844; -0.18862357852014705; -0.09505237553995073; 0.0591866962633578; 0.650390625; -0.464599609375; -0.355224609375;0
184;2326304515; 0.9997569088617524; 0.005238837140161767; 0.002966405608990031; -0.02121033253807486; -0.20662086641415664; -0.1198556648696727; 0.09619753064910183; 0.66845703125; -0.4423828125; -0.3447265625;0
185;2326321182; 0.9996016335436664; 0.0028435584044403384; 0.007824872434235575; -0.026967754148655158; -0.23989008082561736; -0.13417289188836062; 0.13573506642771271; 0.6962890625; -0.4091796875; -0.330078125;0
186;2326337849; 0.9993799748635745; 0.007759188838691089; 0.011612958675982445; -0.032320272601521594; -0.3062772472042541; -0.1396365819672382; 0.1601893818609647; 0.728759765625; -0.368896484375; -0.310546875;0
187;2326354516; 0.999234344142639; 0.017045099100016337; 0.008006358847727381; -0.03429414382226471; -0.3909718976629769; -0.12414763719951394; 0.16704033410353739; 0.757568359375; -0.325927734375; -0.285400390625;0
188;2326371183; 0.9991385921836264; 0.025507622159226695; -0.003708150839983993; -0.03252206079649522; -0.4511750843578591; -0.06609096872225328; 0.14978107591515286; 0.77685546875; -0.2978515625; -0.26953125;0
189;2326387850; 0.9990000264967548; 0.02792093059671516; -0.018515149042652335; -0.029606721365679937; -0.45141994757728576; 0.015803592933871194; 0.1340215100587375; 0.779541015625; -0.269287109375; -0.279052734375;0
190;2326404517; 0.998882319300103; 0.025434463898511367; -0.028778841661449787; -0.027549564578552344; -0.4367225275560687; 0.08360103671021618; 0.14525059081024824; 0.77197265625; -0.2490234375; -0.3046875;0
191;2326421184; 0.99879357089624; 0.023779543399575623; -0.03383593661147389; -0.02647764048531884; -0.4335145786174692; 0.0974386918494701; 0.17354438019499233; 0.7529296875; -0.233154296875; -0.347412109375;0
192;2326437851; 0.998684057282225; 0.02826743122845611; -0.03593318586300554; -0.023236011185074318; -0.4382535674528184; 0.09006770047841017; 0.18358930959003383; 0.73095703125; -0.217041015625; -0.388916015625;0
193;2326454518; 0.9986089073816927; 0.03419418319104324; -0.03692299391399434; -0.0157385022879015; -0.4388301789125244; 0.11822755477445653; 0.16576847211662277; 0.6982421875; -0.22900390625; -0.431396484375;0
194;2326471185; 0.9986047077266257; 0.03620086784848231; -0.037742694525477634; -0.0073228330032723; -0.42847095077615693; 0.163632937318457; 0.14010015094923117; 0.66064453125; -0.25732421875; -0.46240234375;0
195;2326487852; 0.9985827384697828; 0.03581423972115087; -0.03934553224726851; 0.0013355731221244007; -0.42978480736801106; 0.17299959392621644; 0.10191471129116725; 0.6142578125; -0.298583984375; -0.49609375;0
196;2326504519; 0.9984335075265002; 0.034882518636728366; -0.04230525959808607; 0.011135795985334734; -0.43148735465437743; 0.1646414636036192; 0.05179286488135658; 0.557373046875; -0.358154296875; -0.52197265625;0
197;2326521186; 0.9981509099252048; 0.03373347187949699; -0.04608261189630336; 0.020813619849884394; -0.4180526651312521; 0.14740919028377902; 0.004645389921678386; 0.4853515625; -0.42236328125; -0.545654296875;0
198;2326537853; 0.9978254958091903; 0.032777316845695986; -0.04948562779873695; 0.02865484348072936; -0.39146958274156934; 0.12790217652237088; -0.034350654497323885; 0.39453125; -0.488037109375; -0.5625;0
199;2326554520; 0.9976120586622709; 0.031146851370442985; -0.051131271063665946; 0.03443322785838091; -0.3620323224289214; 0.1152562351195013; -0.06848822668124929; 0.292724609375; -0.558349609375; -0.5634765625;0
200;2326571187; 0.9975890931027576; 0.02760693640916584; -0.050666346140664405; 0.03855878308858213; -0.3335052261937344; 0.10144186744311295; -0.10218071311535762; 0.17724609375; -0.6171875; -0.55517578125;0
201;2326587854; 0.9977485014086516; 0.02126981863406835; -0.04745342992324439; 0.0423520334881781; -0.2988108239311484; 0.09506154521745633; -0.12446790407097197; 0.064453125; -0.661376953125; -0.53759765625;0
202;2326604521; 0.9980246706273218; 0.01378835208380702; -0.041023477060543136; 0.04553803350938605; -0.25554119909369066; 0.07738468741767816; -0.13091358400113906; -0.053955078125; -0.683349609375; -0.519775390625;0
203;2326621188; 0.9983309960641912; 0.006922578211424502; -0.03264884593174202; 0.047131232401793656; -0.22118513541457605; 0.0612012258916885; -0.12933839063242575; -0.1640625; -0.6884765625; -0.49951171875;0
204;2326637855; 0.9986138648004415; 0.0023738930653267043; -0.024411800646704705; 0.04657013688218528; -0.20329530685374053; 0.041627533338371256; -0.12323635908800251; -0.25830078125; -0.672119140625; -0.488525390625;0
205;2326654522; 0.9987918179670885; 3.065578430476723E-4; -0.017293635539738048; 0.045997179849485; -0.1889127045942145; 0.02098251543424637; -0.1135992338134499; -0.34228515625; -0.650146484375; -0.474853515625;0
206;2326671189; 0.998830395164691; 5.175018080899596E-4; -0.012093691970045862; 0.04681149967219156; -0.17746934591030405; -0.006825657404869028; -0.10239779128850263; -0.41552734375; -0.617919921875; -0.467529296875;0
207;2326687856; 0.9987679966302714; 0.0028964882202679454; -0.008728014895575847; 0.0487639315388625; -0.15407683458446705; -0.02979251291648454; -0.08948395066461332; -0.481201171875; -0.57763671875; -0.45947265625;0
208;2326704523; 0.9987113767269244; 0.005938217287926595; -0.0059062926256841656; 0.05005436323710896; -0.12705712098915206; -0.04442959153235579; -0.0756676063991107; -0.546875; -0.533203125; -0.4462890625;0
209;2326721190; 0.9987144643152195; 0.009160880588880926; -0.0021484560129930164; 0.049808444777573575; -0.09993908476804743; -0.05041156589263625; -0.06119211791868957; -0.598876953125; -0.48828125; -0.431884765625;0
210;2326737857; 0.9988089510930396; 0.0114176136037476; 0.0024741544416779786; 0.04737294455505425; -0.08396881078639568; -0.046479011200973266; -0.05291725600456467; -0.64599609375; -0.443359375; -0.426025390625;0
211;2326754524; 0.998970008126555; 0.012171768949465311; 0.00645687369519174; 0.04323285424715551; -0.08172670135917907; -0.0401929929842256; -0.050305499678896845; -0.673095703125; -0.398193359375; -0.425048828125;0
212;2326771191; 0.9991419108593678; 0.012312246711704722; 0.008373928116082828; 0.03864877582935733; -0.09107147541135178; -0.039576148808965456; -0.05420536699662225; -0.6962890625; -0.360595703125; -0.42724609375;0
213;2326787858; 0.9992292517928149; 0.013004869422802379; 0.008765141502035015; 0.035985386302175244; -0.08455925447776447; -0.05412526052517358; -0.05765922460459113; -0.705322265625; -0.324462890625; -0.431640625;0
214;2326804525; 0.9992495689149756; 0.014550308498809561; 0.010398827521270847; 0.03435770556960699; -0.06447547502863511; -0.05554773148044854; -0.05654994190486054; -0.7138671875; -0.293701171875; -0.437255859375;0
215;2326821192; 0.9992640831488988; 0.014850860561275214; 0.014177727937247546; 0.032399631166383565; -0.05915768517048951; -0.046503903916041894; -0.05537686121790983; -0.717529296875; -0.26220703125; -0.451904296875;0
216;2326837859; 0.999278358152226; 0.013783718835571834; 0.019049883897485218; 0.02983075505490429; -0.07706194859432114; -0.039061673710996996; -0.06141094172253438; -0.713134765625; -0.239013671875; -0.47021484375;0
217;2326854526; 0.9992921744336174; 0.010252357841463056; 0.02336506059960379; 0.027642597880813583; -0.10598298291828928; -0.025673056713362154; -0.07170898367995639; -0.6982421875; -0.210205078125; -0.49462890625;0
218;2326871193; 0.9992317707138033; 0.0022440628512551686; 0.02865448091807495; 0.02664119556987965; -0.12875063450474425; -0.024413073802372467; -0.0694991825867349; -0.67236328125; -0.1845703125; -0.53173828125;0
219;2326887860; 0.9989795652033117; -0.006572156317258687; 0.03512990086304086; 0.02761385762433272; -0.14224485278388688; -0.06166703278576513; -0.050755862540959575; -0.63720703125; -0.14453125; -0.57373046875;0
220;2326904527; 0.9986871234789206; -0.009816833452023326; 0.0416771210679377; 0.028118975050004935; -0.15353700195327946; -0.11320476265463777; -0.020579445182632897; -0.5830078125; -0.09423828125; -0.624755859375;0
221;2326921194; 0.9985260953475078; -0.006038842892323475; 0.04735404743894739; 0.025821763644869326; -0.18554947065174665; -0.14263643040765678; -0.005174699520747311; -0.51513671875; -0.05126953125; -0.676025390625;0
222;2326937861; 0.9984954752033877; -9.232500509080005E-4; 0.05084781561879224; 0.020504469134842274; -0.22876164547954927; -0.12675203916429575; -0.006401735342897771; -0.432373046875; -0.0263671875; -0.720947265625;0
223;2326954528; 0.9984686958583905; 5.650689582757541E-4; 0.05343882853720617; 0.01429110536271472; -0.2616684461340444; -0.09967379678023076; -0.003710398670813811; -0.3408203125; -0.01416015625; -0.76025390625;0
224;2326971195; 0.9983242215102812; -0.0018397951145809489; 0.05705784316133251; 0.00947451495349061; -0.28164455514954495; -0.08417412526574508; 0.01763460391204294; -0.240478515625; -0.0048828125; -0.7900390625;0
225;2326987862; 0.9979500721325529; -0.005753926305398692; 0.06328635508074643; 0.007575164902363985; -0.3043914980460812; -0.09743111632805525; 0.042153074228029365; -0.12158203125; 0.009521484375; -0.80859375;0
226;2327004529; 0.9978377203599639; -0.0022044287112260447; 0.0654958732303935; 0.005031392518559663; -0.35522352301772336; -0.14945112972003216; 0.05470439907960134; 0.00341796875; 0.01904296875; -0.814208984375;0
227;2327021196; 0.9981079685056066; 0.015133176428043904; 0.05959023245210548; 6.887474956335239E-4; -0.38263378698913697; -0.19318621175911876; 0.046914170413228554; 0.125732421875; 0.0048828125; -0.802734375;0
228;2327037863; 0.9980435838800062; 0.038370033825583585; 0.049129963483656496; -0.004794983657020024; -0.41065878131699773; -0.1911522742274455; 0.011198733824947533; 0.2236328125; -0.047607421875; -0.778076171875;0
229;2327054530; 0.997564175875932; 0.057103421855382364; 0.03829753741318881; -0.01175639610868401; -0.4668136137590518; -0.15660730217562688; -0.027215051492159935; 0.302978515625; -0.1337890625; -0.7490234375;0
230;2327071197; 0.9970229679182356; 0.06920091560237049; 0.026653375284346862; -0.02111947701194805; -0.5582018683589641; -0.10981652001583628; -0.058246477079485236; 0.36474609375; -0.235107421875; -0.703125;0
231;2327087864; 0.9968021021876868; 0.07118519914035507; 0.016516566659381535; -0.032333257233726494; -0.6331861569364964; -0.035936430539329045; -0.04877706562214127; 0.409912109375; -0.324462890625; -0.649169921875;0
232;2327104531; 0.9965874540400405; 0.06759655309573326; 0.01373238210360256; -0.045338439996613744; -0.6921283645865246; 0.01867287154499192; -0.009480475868700988; 0.460205078125; -0.386962890625; -0.59130859375;0
233;2327121198; 0.9960622352044449; 0.06372365609510344; 0.010526154654807052; -0.06073318138860407; -0.7633535037244179; 0.08910508854674787; 0.013492183812765964; 0.5185546875; -0.414794921875; -0.52685546875;0
234;2327137865; 0.9955070978016597; 0.06000846634039908; 0.007003881399911816; -0.07290780369292421; -0.7895433234148761; 0.14689953291108684; 0.06173868861253312; 0.585693359375; -0.4130859375; -0.466796875;0
235;2327154532; 0.9952710229350218; 0.05714052801021796; 0.010268659677332594; -0.07787878782454123; -0.7682870741526843; 0.20239465612061106; 0.161314156198761; 0.6552734375; -0.377685546875; -0.40966796875;0
236;2327171199; 0.9956680489512086; 0.05418942875964544; 0.01934012680409614; -0.0730383570707775; -0.7578250290537555; 0.24505277006539639; 0.2499620570893012; 0.71875; -0.325927734375; -0.34814453125;0
237;2327187866; 0.9965899964072418; 0.051228837270462624; 0.025112787625357513; -0.05960984139061271; -0.7428180882165354; 0.2805974588510969; 0.29252691144528736; 0.77783203125; -0.269287109375; -0.273193359375;0
238;2327204533; 0.9975707411043182; 0.054238963837032694; 0.016243413813328392; -0.04058205024583046; -0.7393686964747476; 0.26382862966546927; 0.27793375050640634; 0.81591796875; -0.234375; -0.214111328125;0
239;2327221200; 0.9973812049019508; 0.0685506071923698; -0.005182986667910284; -0.022465151036449024; -0.705701494517993; 0.2272009296906098; 0.23896477608939903; 0.82958984375; -0.227783203125; -0.18310546875;0
240;2327237867; 0.9958285830899121; 0.08499941765015852; -0.032879542820390295; -0.004412228937197304; -0.6770387986177657; 0.22697200888868702; 0.1458738829240786; 0.8193359375; -0.26416015625; -0.186767578125;0
241;2327254534; 0.9935270742576956; 0.09524380527148699; -0.06029415842354058; 0.014042248194191047; -0.5997226884847845; 0.24147678417660476; 0.02415731675909884; 0.781982421875; -0.337158203125; -0.21826171875;0
242;2327271201; 0.9912982374805035; 0.09889378951498945; -0.0818075605532443; 0.02924629548745461; -0.4823667628492135; 0.27423752609192464; -0.11281997054892713; 0.707275390625; -0.45068359375; -0.259521484375;0
243;2327287868; 0.9912013436349331; 0.08653775389031132; -0.0922841060862118; 0.03891988298790306; -0.3816798704772609; 0.34424154016356046; -0.18405019560129626; 0.597900390625; -0.57470703125; -0.291259765625;0
244;2327304535; 0.9929230057715174; 0.06313098683417734; -0.09177397676192402; 0.04118155291268258; -0.30284912722917157; 0.33771604363728946; -0.17783323038330554; 0.47021484375; -0.68359375; -0.30908203125;0
245;2327321202; 0.9941760086446658; 0.047335204499422134; -0.08723357529712705; 0.04199697121507221; -0.2858597009970878; 0.26653011109571195; -0.16848916582164564; 0.333251953125; -0.760498046875; -0.308837890625;0
246;2327337869; 0.994829272174373; 0.04464435191518573; -0.07972508990968903; 0.04433408514870227; -0.2722544698568992; 0.2078128000965082; -0.13920799981162196; 0.19189453125; -0.824462890625; -0.283935546875;0
247;2327354536; 0.9953578473606925; 0.049230883899941735; -0.06610583337402866; 0.04968998452247451; -0.23727176556765767; 0.18877039813715438; -0.10776519893199916; 0.0576171875; -0.8759765625; -0.2255859375;0
248;2327371203; 0.9957360461629294; 0.053980574307053664; -0.051477300567589125; 0.0542762516720824; -0.22001304113400386; 0.1796967919538109; -0.08681902841014766; -0.071044921875; -0.9091796875; -0.13037109375;0
249;2327387870; 0.9962346908991878; 0.0548956185481117; -0.03643249640802801; 0.056352328423046126; -0.20608745333249034; 0.17398382390468234; -0.08502989276550807; -0.1884765625; -0.9228515625; -0.022216796875;0
250;2327404537; 0.9968207349402034; 0.05078443575740488; -0.02211537103644803; 0.057273674947525485; -0.20971230833145807; 0.17549932195475534; -0.10323567426951423; -0.296630859375; -0.90478515625; 0.083740234375;0
251;2327421204; 0.9975465384019131; 0.0386262643414188; -0.011309263601309074; 0.057280153475557656; -0.21061867003677637; 0.1887030525210879; -0.11893973746993139; -0.396240234375; -0.869873046875; 0.168701171875;0
252;2327437871; 0.998103776906942; 0.02465340102233915; -0.0030014498680330797; 0.05632096981426102; -0.2008478399369502; 0.1653506655238402; -0.09435336728852783; -0.490478515625; -0.81982421875; 0.21630859375;0
253;2327454538; 0.9983619931322433; 0.01559655917318431; 0.003938521712044729; 0.05490506404418275; -0.19166703324234474; 0.1257449233933491; -0.062016263435093186; -0.577392578125; -0.761962890625; 0.236572265625;0
254;2327471205; 0.9984475366015959; 0.012833652352175984; 0.010463275633493476; 0.05318208236357444; -0.17435879285521197; 0.08860297777802911; -0.04090778955548001; -0.65673828125; -0.6953125; 0.247314453125;0
255;2327487872; 0.9984214075722466; 0.01360667596536308; 0.016744215457004833; 0.05185732850192632; -0.16345262423901707; 0.06328419034306462; -0.025714508454733033; -0.731689453125; -0.620849609375; 0.24365234375;0
256;2327504539; 0.998362799011268; 0.015815118579345644; 0.022273471431179474; 0.05025431369655947; -0.16383811944741145; 0.06069234799616252; -0.023178807193615737; -0.794921875; -0.54443359375; 0.230224609375;0
257;2327521206; 0.9983454833693577; 0.015157572495831328; 0.02626020675896054; 0.04885637494753107; -0.16463282909327082; 0.06462053807566014; -0.03627209865723798; -0.84326171875; -0.4619140625; 0.203857421875;0
258;2327537873; 0.9983245251688561; 0.012241726216691173; 0.02973300292105766; 0.04810645614582221; -0.17063194478544824; 0.06267063763328516; -0.044540032949374975; -0.88916015625; -0.37939453125; 0.162841796875;0
259;2327554540; 0.9982763014076401; 0.00911589123252704; 0.033501366077220186; 0.047317914640009846; -0.16723534288435732; 0.05790343094283333; -0.043634650612239555; -0.919189453125; -0.29638671875; 0.1103515625;0
260;2327571207; 0.9981105523821746; 0.008269032921274677; 0.03970733198223845; 0.04615491419935125; -0.15263343480344427; 0.046525575431742475; -0.042203545762905546; -0.9384765625; -0.21484375; 0.046142578125;0
261;2327587874; 0.9977861686085343; 0.008619507950009486; 0.04855377688838736; 0.04462058455549437; -0.13451484128060362; 0.048759103944123534; -0.04644409240090071; -0.942138671875; -0.13427734375; -0.037109375;0
262;2327604541; 0.9973080197843445; 0.008861346192259867; 0.05915340936603467; 0.042415379025361466; -0.13156571579484946; 0.054567212016281966; -0.0530862806532182; -0.92529296875; -0.059814453125; -0.141357421875;0
263;2327621208; 0.9968240010943265; 0.007955853501173893; 0.06857296649729332; 0.039703444474342604; -0.15250499538745166; 0.064872656746738; -0.07585339574929188; -0.883056640625; 0.0078125; -0.2587890625;0
264;2327637875; 0.9963310930923832; 0.004944593229764066; 0.07630706158811383; 0.03843353076307976; -0.17728990411149315; 0.07333597911337189; -0.09308698735400113; -0.811767578125; 0.06494140625; -0.38623046875;0
265;2327654542; 0.9958347734210793; 4.1469896451443167E-4; 0.08304652260253625; 0.03763252786862648; -0.18981546533910856; 0.08557731604731744; -0.09739222931095158; -0.70849609375; 0.120849609375; -0.505859375;0
266;2327671209; 0.9956480559539418; -0.001806245329482481; 0.08601258690912193; 0.03582626196167937; -0.2169884232023767; 0.06852958453890712; -0.1020948117115916; -0.57861328125; 0.1689453125; -0.609130859375;0
267;2327687876; 0.9957351786855846; -7.204832480788015E-4; 0.08490221338143265; 0.03609084364225646; -0.24460643209849897; 0.05657423689659953; -0.10596732482403205; -0.42724609375; 0.20458984375; -0.688232421875;0
268;2327704543; 0.9960517303023098; 2.7063956632425445E-4; 0.08019533382624087; 0.038073425752060575; -0.24220722813608692; 0.05284810378687396; -0.09808202604037314; -0.268798828125; 0.236328125; -0.739990234375;0
269;2327721210; 0.9965341485775895; 0.0031132864729130905; 0.07263729800432464; 0.04042055299853448; -0.2326091130191546; 0.05451172626374183; -0.08137421787943984; -0.1123046875; 0.245849609375; -0.767578125;0
270;2327737877; 0.9970914545974883; 0.004154068284968025; 0.06421569640654189; 0.0408377181092649; -0.21725081762643605; 0.09230799721524129; -0.04664262147585454; 0.031982421875; 0.240478515625; -0.768310546875;0
271;2327754544; 0.9975845731663228; -4.8316269697596184E-4; 0.058555846366887244; 0.037363067200532014; -0.22299611854849058; 0.14396576530579774; 0.01459793404337575; 0.1630859375; 0.2314453125; -0.75390625;0
272;2327771211; 0.997851662497834; -0.008254696244539929; 0.05582453307759246; 0.03327974078757351; -0.2560842860386512; 0.16227171564543402; 0.08511428836550654; 0.278076171875; 0.228515625; -0.72314453125;0
273;2327787878; 0.9980327879564022; -0.011804367040254386; 0.05230855315133155; 0.03248116915944416; -0.3031504441959504; 0.12362624838660594; 0.1690536781168882; 0.386962890625; 0.2236328125; -0.676513671875;0
274;2327804545; 0.9984589858550491; -0.007646217381761262; 0.042032785943033286; 0.03541798739235469; -0.36620603691434206; 0.10086251332480446; 0.23334434881612448; 0.481689453125; 0.208984375; -0.624755859375;0
275;2327821212; 0.9989340380275321; -7.728593493519613E-4; 0.024197528733865565; 0.03930228952120902; -0.3944665329095876; 0.08622105215526225; 0.2743067358682624; 0.5439453125; 0.16845703125; -0.595703125;0
276;2327837879; 0.9990437105616121; 0.010723604309085154; 0.004801947193132234; 0.04211424938262981; -0.4040614367659886; 0.0477467267231593; 0.31595866245399873; 0.573974609375; 0.11083984375; -0.584716796875;0
277;2327854546; 0.9987987193913277; 0.022577135761354797; -0.011902677024055314; 0.04182962302864266; -0.3900188489318427; 0.06841800847668779; 0.333644194878017; 0.575439453125; 0.03173828125; -0.599853515625;0
278;2327871213; 0.9986232690730228; 0.02833418939977337; -0.02180124459734559; 0.03838549089139956; -0.3599579729242417; 0.10402148555159182; 0.3364954448423801; 0.550048828125; -0.05517578125; -0.622314453125;0
279;2327887880; 0.9986138568501591; 0.031080572646950758; -0.026818579526879705; 0.03294126140492932; -0.3391874604618579; 0.12094777768556367; 0.3400594852475547; 0.50732421875; -0.142578125; -0.64501953125;0
280;2327904547; 0.9986522987668783; 0.032193614925066255; -0.02970139209398544; 0.02783854581987663; -0.3166810512386388; 0.14391128762997676; 0.3440646217379445; 0.453857421875; -0.223876953125; -0.66650390625;0
281;2327921214; 0.9987430756462847; 0.032307217542845934; -0.030914165426298143; 0.02264568213223864; -0.2884170373939955; 0.165098991398311; 0.3575664297693908; 0.39453125; -0.296875; -0.677978515625;0
282;2327937881; 0.9989290060243675; 0.028333430724072683; -0.032267718881853334; 0.01722939188523684; -0.2773247648610037; 0.21706219607669924; 0.3581447895489193; 0.327392578125; -0.358642578125; -0.682373046875;0
283;2327954548; 0.9990794844785452; 0.022065049238876505; -0.034534368987930934; 0.012676539542628444; -0.271962277182764; 0.2443241531481467; 0.35874504008166674; 0.26416015625; -0.4091796875; -0.690673828125;0
284;2327971215; 0.9990403492141606; 0.019611654609523466; -0.03765319919288341; 0.01077034057334976; -0.27427045134286643; 0.23745122037788163; 0.3510505392338925; 0.195556640625; -0.445068359375; -0.6904296875;0
285;2327987882; 0.9988545558921683; 0.021127259801115017; -0.04123866346832053; 0.011941009258102724; -0.2694022444132848; 0.24251664690249378; 0.321982022410493; 0.11767578125; -0.4853515625; -0.68603515625;0
286;2328004549; 0.9986101088531313; 0.021717869301110276; -0.04595217710462624; 0.013949267676196392; -0.2674819506721851; 0.24980031559175805; 0.2777624058309008; 0.031005859375; -0.521240234375; -0.67236328125;0
287;2328021216; 0.9982663556251414; 0.024203757849413227; -0.05084303822950329; 0.017130288860933863; -0.2659094124121344; 0.23276242513517006; 0.2388185418530954; -0.062744140625; -0.557861328125; -0.6484375;0
288;2328037883; 0.9978822365504504; 0.028092148704394193; -0.05449236875408842; 0.0217360278296114; -0.2635352970701246; 0.21354563498659582; 0.1917052689925342; -0.16845703125; -0.594970703125; -0.607666015625;0
289;2328054550; 0.9974227572874211; 0.03417954068536233; -0.05693954801658235; 0.02715676923647509; -0.26245135008836734; 0.17722734106772187; 0.14341013004387024; -0.28076171875; -0.629150390625; -0.545166015625;0
290;2328071217; 0.9968540391277665; 0.04226345949363941; -0.05822599027936393; 0.033249943192046105; -0.2631191437277887; 0.13585743489767801; 0.09208855278489927; -0.39501953125; -0.658203125; -0.455810546875;0
291;2328087884; 0.9961597378973511; 0.051780976497773995; -0.05825043020990817; 0.03989228553966646; -0.2595080479712287; 0.09550707435309118; 0.033919912512955536; -0.5107421875; -0.67822265625; -0.33740234375;0
292;2328104551; 0.9955411151348482; 0.05965980859279785; -0.05674315428848221; 0.04603053069569277; -0.23960956048384435; 0.062387844094215675; -0.03228822576747917; -0.61376953125; -0.67333984375; -0.198974609375;0
293;2328121218; 0.9953325287025405; 0.06361934907903599; -0.052718420345268246; 0.04986485621824117; -0.19867752185262033; 0.035857559220787955; -0.07995753386492227; -0.702392578125; -0.63916015625; -0.048095703125;0
294;2328137885; 0.995742303760268; 0.06271731147071333; -0.044780679790119744; 0.050581558513103975; -0.1513236205158595; 0.02888654797402433; -0.10346357387962324; -0.779052734375; -0.578857421875; 0.094970703125;0
295;2328154552; 0.9967612937192625; 0.0551167014736835; -0.03332445151674291; 0.04815136023905465; -0.11120579449361137; 0.03337726169807835; -0.10585825059843386; -0.828369140625; -0.49951171875; 0.212890625;0
296;2328171219; 0.9979537788279861; 0.041465898657075256; -0.02084116575926859; 0.043982728215731404; -0.0916087342672885; 0.04041142047880232; -0.0992885485294387; -0.864013671875; -0.4150390625; 0.291015625;0
297;2328187886; 0.9989091539775844; 0.023482451964882828; -0.009644065425416626; 0.03919271043923701; -0.09149476259534602; 0.039781147207509505; -0.08531923119213473; -0.89111328125; -0.3330078125; 0.33203125;0
298;2328204553; 0.9993728801996312; 0.007173733027543122; -8.590899596096492E-4; 0.0346647636712627; -0.0984426208003501; 0.023265019287393426; -0.06154328666400877; -0.91015625; -0.2626953125; 0.34228515625;0
299;2328221220; 0.9995198429132486; -0.005114456707535575; 0.004762795228294593; 0.030186780829942476; -0.11032895084335165; 0.006657632662331635; -0.04347098918803155; -0.925048828125; -0.209228515625; 0.33642578125;0
300;2328237887; 0.9995413478959054; -0.013827451482206099; 0.006897281220246466; 0.026044633683595164; -0.12678438016110086; -0.002971841217741243; -0.02871113267971088; -0.93408203125; -0.163818359375; 0.319091796875;0
301;2328254554; 0.9995525871644125; -0.018507911601022997; 0.006344519999188558; 0.02262365503357811; -0.13190913691109502; -0.014163584135135215; -0.01129417829974206; -0.943359375; -0.127685546875; 0.30029296875;0
302;2328271221; 0.999560212548953; -0.021793252939763974; 0.004486988575916674; 0.019603636114637724; -0.1312726176007244; -0.013483343824274418; -0.006636942573571732; -0.9501953125; -0.097412109375; 0.287109375;0
303;2328287888; 0.9995849794779997; -0.02388696377385338; 0.0020941668221122205; 0.015965469894574844; -0.12348237983296519; -0.023174087132102478; 0.0015701142111462785; -0.95068359375; -0.070068359375; 0.27734375;0
304;2328304555; 0.9996441173736296; -0.02397135732225314; -4.251322910494571E-4; 0.01169751644415068; -0.11656116820943196; -0.026224030139763252; 0.005283472885167201; -0.951416015625; -0.051025390625; 0.280517578125;0
305;2328321222; 0.9996883968137487; -0.023692819851419855; -0.0038408459256445426; 0.006856199094296884; -0.11792871342268171; -0.028255020013463; -0.0010598944236912752; -0.95361328125; -0.041259765625; 0.282470703125;0
306;2328337889; 0.9996644618642259; -0.02428589147571411; -0.008904483858927283; 0.001367233756034647; -0.12309121827730393; -0.024745852221755987; -0.015142702051772886; -0.950927734375; -0.04296875; 0.290283203125;0
307;2328354556; 0.9995464392469513; -0.025299191558468687; -0.015532992283431636; -0.005058937235349282; -0.1299055053893557; -0.021211524701100774; -0.03090437959914587; -0.94775390625; -0.05859375; 0.31494140625;0
308;2328371223; 0.9993176315095872; -0.026365679738772324; -0.022845152162394525; -0.012133478835780837; -0.13499804745953436; -0.01720398698820879; -0.04389582603289095; -0.938232421875; -0.082763671875; 0.35107421875;0
309;2328387890; 0.9989593445906401; -0.027878998912903574; -0.02985518311400398; -0.020289339956792028; -0.15007712311717103; 0.0014653433376175646; -0.061801046845408436; -0.923095703125; -0.12890625; 0.39453125;0
310;2328404557; 0.9984408569626401; -0.03002005189554742; -0.035879264988930466; -0.03045209312594918; -0.17545575982166017; 0.02901133433027536; -0.08309083764684563; -0.896728515625; -0.194580078125; 0.44677734375;0
311;2328421224; 0.9977777401926586; -0.030256343787125384; -0.042879386282924876; -0.04105475695539191; -0.23795751810446086; 0.05293019391639099; -0.12816029542607993; -0.855224609375; -0.277099609375; 0.500244140625;0
312;2328437891; 0.9969286200137027; -0.024952588700765832; -0.05472892264675467; -0.050154161747856196; -0.32342345314929666; 0.08988335847776306; -0.2012258034466083; -0.7861328125; -0.373779296875; 0.569091796875;0
313;2328454558; 0.9961749469859723; -0.01947026889229017; -0.06542943503592757; -0.054546976613158056; -0.3602660397112747; 0.1658745627482949; -0.268501550775136; -0.68408203125; -0.466064453125; 0.640625;0
314;2328471225; 0.9958660231248762; -0.0197498129280749; -0.06750237186915169; -0.05748250748522005; -0.3503265393588421; 0.2871146595339311; -0.30447297310281457; -0.555419921875; -0.553955078125; 0.700927734375;0
315;2328487892; 0.9959137255327323; -0.02852335929856728; -0.060146409482011255; -0.06103014579911032; -0.32456677878045503; 0.39433616972177343; -0.30947088033066605; -0.410400390625; -0.637451171875; 0.728515625;0
316;2328504559; 0.9957007595173225; -0.04129133244033695; -0.052731570244516475; -0.06398753676675001; -0.3481066402794304; 0.4824684092495676; -0.3298103867289011; -0.2646484375; -0.7177734375; 0.7119140625;0
317;2328521226; 0.9949333136128727; -0.05425233500753904; -0.05201415643015639; -0.06677509371313568; -0.3638195355844842; 0.5840158927579395; -0.33676062847368937; -0.102294921875; -0.793212890625; 0.649658203125;0
318;2328537893; 0.994372735943941; -0.062060062497728885; -0.05160518729558356; -0.06861716474998886; -0.34560289753534856; 0.6219303111229586; -0.25612608747689514; 0.06494140625; -0.847412109375; 0.544677734375;0
319;2328554560; 0.9961314667420782; -0.044040024245070586; -0.050024679278595226; -0.05727223318365788; -0.42117781876725935; 0.49158608353424404; -0.09374449106306162; 0.209716796875; -0.86474609375; 0.444091796875;0
320;2328571227; 0.9980745312181705; 9.928150533433655E-4; -0.05347828790817589; -0.0314056869740067; -0.4550536642253626; 0.43364523767293206; -7.675714620919705E-4; 0.31103515625; -0.846923828125; 0.392822265625;0
321;2328587894; 0.9973523168160376; 0.043256241312677524; -0.05813651401525871; -0.006115510390409974; -0.3793783546208939; 0.4632187147373003; -0.03693631341084955; 0.3671875; -0.819580078125; 0.403076171875;0
322;2328604561; 0.9960967852617886; 0.06575352913330246; -0.05761368260102207; 0.012179136865753004; -0.26118834918555156; 0.5364366087369682; -0.14895911357683717; 0.392822265625; -0.7861328125; 0.451416015625;0
323;2328621228; 0.9965704941553253; 0.058037450072353225; -0.05274386173660118; 0.02640056092624055; -0.16839851972315162; 0.6486142473343821; -0.2809523525627168; 0.39453125; -0.75927734375; 0.50244140625;0
324;2328637895; 0.9979375990104397; 0.027159885300509223; -0.046136220224835496; 0.03541663867601885; -0.11485756363378163; 0.6728840760940351; -0.3566286252705022; 0.386962890625; -0.759765625; 0.513916015625;0
325;2328654562; 0.9985284753017459; 4.3384669880403015E-4; -0.03896624589691974; 0.03771375702993952; -0.11094091676583981; 0.569443926409464; -0.3483500177301441; 0.36328125; -0.78271484375; 0.4892578125;0
326;2328671229; 0.9986874676355721; -0.00978620859044893; -0.03186611377028279; 0.03888602451076245; -0.12470447330097753; 0.46682294293359655; -0.3136899941757092; 0.325927734375; -0.81396484375; 0.451904296875;0
327;2328687896; 0.9987548312074949; -0.008371339110688103; -0.0244114421740915; 0.0426941367422189; -0.13912591026145107; 0.4000727324029285; -0.280719287860343; 0.27685546875; -0.84912109375; 0.419921875;0
328;2328704563; 0.9986928965755564; -0.004595443680655287; -0.016159003793039004; 0.04827283732410537; -0.15859588042035627; 0.3802534869591206; -0.27111108220948354; 0.210693359375; -0.875732421875; 0.398681640625;0
329;2328721230; 0.9985462828974793; -0.005030236025670265; -0.007577028678296821; 0.05312820600737051; -0.17712049982592212; 0.3637835077994191; -0.2713083169372217; 0.129150390625; -0.89794921875; 0.390869140625;0
330;2328737897; 0.9983824305261978; -0.010914873153174687; -1.3876270417673145E-4; 0.055797568993316046; -0.18622101762472099; 0.33367387147091127; -0.26779464342828563; 0.033447265625; -0.91259765625; 0.375732421875;0
331;2328754564; 0.9982413423053698; -0.019099105865265198; 0.0053276536764574065; 0.05586647271686996; -0.19477270971151045; 0.28508113479215863; -0.2589446287897031; -0.071044921875; -0.920654296875; 0.34130859375;0
332;2328771231; 0.9981394650748033; -0.02610212134667994; 0.00971411937236956; 0.05423950042365684; -0.19593223550163852; 0.2346645143241204; -0.2422709198620041; -0.175048828125; -0.92138671875; 0.293212890625;0
333;2328787898; 0.9980746151795575; -0.030885284825113046; 0.013299787149433293; 0.05211791800551462; -0.19149615884963267; 0.18807832878781794; -0.22953071822619858; -0.269775390625; -0.90625; 0.23779296875;0
334;2328804565; 0.9979942849475661; -0.03488581515393541; 0.01626674911685103; 0.05025713865921182; -0.18505636180448803; 0.15552790692374416; -0.22859330946439407; -0.3603515625; -0.885009765625; 0.169921875;0
335;2328821232; 0.9978811147517564; -0.03966440658326709; 0.018967538958001146; 0.04796090218152669; -0.17928556204389165; 0.1315495197522903; -0.22696984387792926; -0.44482421875; -0.84716796875; 0.089111328125;0
336;2328837899; 0.9977711318662464; -0.04426297522934475; 0.021703831707831137; 0.044972226177875274; -0.17392365333338752; 0.10768698932189033; -0.21768744724504757; -0.515869140625; -0.801025390625; -4.8828125E-4;0
337;2328854566; 0.9976896854114725; -0.04729029407934077; 0.023958423486302963; 0.042484275367451384; -0.1747151791916791; 0.08050933949814237; -0.20910549352785218; -0.572265625; -0.737548828125; -0.095458984375;0
338;2328871233; 0.9976915036942594; -0.048351087050237274; 0.0249566532033073; 0.04063251528317885; -0.17007897838888053; 0.0569672114091972; -0.19860217916763898; -0.6142578125; -0.670166015625; -0.191162109375;0
339;2328887900; 0.9977561491307744; -0.04807020245785204; 0.025005125422800024; 0.039327677403820656; -0.15857776909306598; 0.041312984288239936; -0.1879811100015188; -0.645751953125; -0.58544921875; -0.279052734375;0
340;2328904567; 0.9978031752872842; -0.04770610579420981; 0.02522642461260963; 0.038426271713883436; -0.14444341126874555; 0.03080011776255203; -0.17633547826733323; -0.665771484375; -0.492919921875; -0.36181640625;0
341;2328921234; 0.9978159245157088; -0.047468506516725406; 0.025757119864589575; 0.03803541045150111; -0.1321924337042109; 0.0244634195774801; -0.16486795031475512; -0.67333984375; -0.39404296875; -0.4345703125;0
342;2328937901; 0.9978574502926637; -0.046797114551339114; 0.02643394119573295; 0.037306644420981305; -0.11968832859231933; 0.016491926181566044; -0.14869196811824084; -0.6650390625; -0.2919921875; -0.49609375;0
343;2328954568; 0.9980137571253839; -0.043584335491683945; 0.02682158142459751; 0.03673620908731907; -0.11339648170110625; 0.0031183305825970183; -0.132432695452049; -0.645263671875; -0.1845703125; -0.55029296875;0
344;2328971235; 0.9982257189418037; -0.0382533298623462; 0.026891719429126718; 0.03686369791145405; -0.10719030987167372; -0.0021187255757559725; -0.11896795575763848; -0.619873046875; -0.083984375; -0.593017578125;0
345;2328987902; 0.9984065541464522; -0.03294546771854154; 0.026907033362850052; 0.037080457788764405; -0.10624937009752167; 0.0037827484146667747; -0.10534651080411576; -0.583740234375; 0.012939453125; -0.62158203125;0
346;2329004569; 0.998573412505705; -0.027409140509335378; 0.026744445042846846; 0.037210395222313286; -0.10403725044342944; 0.005041886584731868; -0.09232550605692749; -0.5380859375; 0.094970703125; -0.646484375;0
347;2329021236; 0.9987214818190793; -0.021054617996499464; 0.026525531462038707; 0.037530001262729824; -0.09707143691995082; 0.006842646575729375; -0.07924385974951263; -0.48779296875; 0.166748046875; -0.662841796875;0
348;2329037903; 0.9988095950733205; -0.013940372416402905; 0.026879126679090582; 0.03824357926934957; -0.09661603549511602; 0.015153220531432674; -0.06490673134541397; -0.431640625; 0.2275390625; -0.6787109375;0
349;2329054570; 0.9988473969829951; -0.006836900064965026; 0.027850749953947165; 0.0384898696386386; -0.10400738779898866; 0.03789332991078481; -0.05412575519485152; -0.36279296875; 0.271484375; -0.69091796875;0
350;2329071237; 0.9988343811918573; -0.002658135795395866; 0.02878850288947041; 0.03865275364777676; -0.11770379453486261; 0.07703477150300275; -0.057928491005995196; -0.290771484375; 0.30078125; -0.705322265625;0
351;2329087904; 0.9988456197390474; -0.005005532271157763; 0.028802037802034903; 0.038115812902924824; -0.1345848527097466; 0.11955223356866877; -0.06739177443136123; -0.219482421875; 0.326171875; -0.718505859375;0
352;2329104571; 0.9988813107576002; -0.008653852578061116; 0.028003813427969673; 0.03710827789357929; -0.15462077023910434; 0.13596391835135616; -0.06703961027473584; -0.14501953125; 0.35205078125; -0.717041015625;0
353;2329121238; 0.9989445109153919; -0.007816960696606281; 0.02630623805438606; 0.036833966347680165; -0.18829593881424583; 0.15178165653725317; -0.05263169815006225; -0.069580078125; 0.374755859375; -0.712890625;0
354;2329137905; 0.9988962067536546; -0.00446744141720673; 0.02555144212500587; 0.039160361408909716; -0.2200606598628691; 0.181999044786369; -0.035482684434684546; 0.007568359375; 0.38916015625; -0.712158203125;0
355;2329154572; 0.9986385300271468; 2.9305414523786086E-4; 0.02766706631438229; 0.04422141908671574; -0.25252712819685813; 0.20320133652546102; -0.009093251498254615; 0.086181640625; 0.38623046875; -0.703369140625;0
356;2329171239; 0.998221813395282; 0.004130570327108731; 0.031962988836821825; 0.050144959818758494; -0.29724599674734564; 0.2260871319462773; 0.015505457953142395; 0.17529296875; 0.3681640625; -0.697509765625;0
357;2329187906; 0.9979244115683118; 0.004956921571461367; 0.03543255199380144; 0.05354280515419147; -0.36267831691589947; 0.2514406918894235; 0.042559183450067775; 0.275146484375; 0.336669921875; -0.681884765625;0
358;2329204573; 0.9977932369714937; 0.0031809016728840955; 0.03647772354077048; 0.05538875159975326; -0.4394794930479601; 0.2702097426355291; 0.08026437753623045; 0.37158203125; 0.296142578125; -0.659912109375;0
359;2329221240; 0.9977450524469201; -9.675845714369469E-4; 0.03648335509886264; 0.056327958408946006; -0.5041286404446212; 0.28658096381655584; 0.12343943977142613; 0.4658203125; 0.242431640625; -0.62451171875;0
360;2329237907; 0.9977265614407176; -0.008440083707525997; 0.03572285808479269; 0.05651858979968899; -0.5859353714166549; 0.2883269550837789; 0.15910141020679408; 0.55078125; 0.193115234375; -0.582275390625;0
361;2329254574; 0.9978072128615051; -0.016749382269841906; 0.03222981525981364; 0.05533049035976335; -0.6542516380785897; 0.2517940997676704; 0.18973530371937314; 0.622314453125; 0.14111328125; -0.536376953125;0
362;2329271241; 0.9979365885474714; -0.022558051264446682; 0.02635252215971765; 0.05403002995748829; -0.6914470650997433; 0.186492266372961; 0.21852212953904207; 0.67724609375; 0.095458984375; -0.490478515625;0
363;2329287908; 0.9981211686562553; -0.025421244342740304; 0.01924406929141115; 0.05232168588114534; -0.7056723294771814; 0.12816947093798994; 0.24248188424578718; 0.71435546875; 0.045654296875; -0.45751953125;0
364;2329304575; 0.9983291103236938; -0.02723300640570446; 0.010871610585609983; 0.04979115308650722; -0.6991076754429351; 0.08408386429553646; 0.2557964928898877; 0.7373046875; -0.003173828125; -0.43017578125;0
365;2329321242; 0.9985691857452091; -0.027900270468823374; 0.0021893150770986025; 0.045567127267470205; -0.6729076821783176; 0.04861609647233289; 0.2569560818075005; 0.740966796875; -0.048583984375; -0.4248046875;0
366;2329337909; 0.998778074742326; -0.02617153068334252; -0.007513909908926004; 0.041242569677263974; -0.6320150349762891; 0.011704294811257912; 0.24925961679778372; 0.72998046875; -0.0859375; -0.4375;0
367;2329354576; 0.9988982849185392; -0.021963205033921407; -0.017997788478482244; 0.037361927430509555; -0.5709327130755619; -0.007930423617595543; 0.22411271694798468; 0.710205078125; -0.117431640625; -0.46630859375;0
368;2329371243; 0.9988892876281713; -0.016739535732841294; -0.02839224353773648; 0.03367283047246569; -0.49960611709373276; -0.019994766896361774; 0.19859405462727941; 0.667724609375; -0.145263671875; -0.50927734375;0
369;2329387910; 0.9988116687375858; -0.009962051899709154; -0.03674014573914966; 0.03043303479202947; -0.42476805589747646; -0.027453642711906798; 0.17422043605702436; 0.610595703125; -0.173828125; -0.559326171875;0
370;2329404577; 0.9987475662784321; -0.005059566687613926; -0.04124475349326969; 0.02786700463131566; -0.3504181883099816; -0.004110668599127929; 0.14486323784488372; 0.5439453125; -0.200439453125; -0.61181640625;0
371;2329421244; 0.9988134262965037; -0.003581755013500075; -0.041933106244712935; 0.02450561326577311; -0.29164164999644676; 0.014846764011307328; 0.12549662196189038; 0.46923828125; -0.219482421875; -0.65673828125;0
372;2329437911; 0.9988961619377684; -0.002688166363174871; -0.04222341488947675; 0.02040624077753423; -0.2508214731846465; 0.02016097502700196; 0.10873644227996432; 0.38671875; -0.235595703125; -0.69677734375;0
373;2329454578; 0.9989082152892077; -0.0012825811814980645; -0.043454073611650615; 0.017101926786070146; -0.22843041984715454; 0.019968222375976643; 0.08926999719529623; 0.30712890625; -0.24951171875; -0.72900390625;0
374;2329471245; 0.9988269069914961; 2.5103771490941895E-4; -0.046081225757305715; 0.014875062439234851; -0.2125644270270041; 0.030744655974410444; 0.06443528278868493; 0.220458984375; -0.256591796875; -0.757080078125;0
375;2329487912; 0.998678429924136; 7.788760956316601E-4; -0.0496757414430203; 0.013157038738875597; -0.20113119435481414; 0.038042082053575316; 0.04015033516631938; 0.127197265625; -0.26318359375; -0.7734375;0
376;2329504579; 0.9984632284232025; 0.0021119347203898894; -0.05402046220018893; 0.012186504098001164; -0.19479292864359213; 0.034176327604704446; 0.01749398081667388; 0.024169921875; -0.267578125; -0.783203125;0
377;2329521246; 0.9982648909766673; 0.004710844847018732; -0.057370090496865644; 0.012397100489682943; -0.18598209596683088; 0.030529069981400182; -0.0015498554589410338; -0.085693359375; -0.2783203125; -0.778564453125;0
378;2329537913; 0.998181770905306; 0.007650510091036539; -0.05826298980049608; 0.013418120106828094; -0.17193761719541417; 0.034553031690504; -0.011409488038872831; -0.20263671875; -0.28662109375; -0.75732421875;0
379;2329554580; 0.9982808464000164; 0.00863891107184693; -0.056229499453386185; 0.014105471193165452; -0.15551860393462302; 0.042204006895809124; -0.016209865743791227; -0.310791015625; -0.291748046875; -0.72705078125;0
380;2329571247; 0.998474057082743; 0.008366335226991414; -0.052753448224170225; 0.014022676921925853; -0.14318697163760535; 0.03931571499894315; -0.017683908128983954; -0.410888671875; -0.29931640625; -0.681640625;0
381;2329587914; 0.9986549105575596; 0.008516053002599083; -0.049262115976727305; 0.013751014145325745; -0.13972159040383803; 0.02736132167441881; -0.023238881958053688; -0.4990234375; -0.300048828125; -0.634521484375;0
382;2329604581; 0.9987663508877833; 0.009458691956959309; -0.04691309438849923; 0.013246548820750381; -0.1348021500760485; 0.016729713729874886; -0.03008029882850482; -0.57421875; -0.29833984375; -0.5791015625;0
383;2329621248; 0.9988707422186178; 0.009982841537131457; -0.04480940430551001; 0.012235215578704885; -0.12637801547728136; 0.013672476513831083; -0.038077817186899864; -0.646728515625; -0.295654296875; -0.52099609375;0
384;2329637915; 0.9989814578738869; 0.009021659435246285; -0.04279563633109119; 0.011099098892017545; -0.11657562406642388; 0.016738414306809536; -0.049009292458310906; -0.70458984375; -0.29150390625; -0.45654296875;0
385;2329654582; 0.9991358062546857; 0.006446585545279049; -0.03986276010848966; 0.009851017771755457; -0.10706544147377972; 0.011864845994375048; -0.04858638070885902; -0.7578125; -0.27978515625; -0.394775390625;0
386;2329671249; 0.999258226935855; 0.0038524772706553245; -0.03746307605467054; 0.00804190601861035; -0.09994043096319322; 0.007342835622549768; -0.04874882087666509; -0.799072265625; -0.274169921875; -0.3349609375;0
387;2329687916; 0.99934571636684; 4.832821547569033E-4; -0.03564678701372732; 0.006100179768186471; -0.0981705946914202; 6.588175011489061E-4; -0.05074938355486004; -0.834228515625; -0.261474609375; -0.277099609375;0
388;2329704583; 0.999382418182111; -0.0015758436632246908; -0.03496700376015561; 0.0030996117922291733; -0.09786507180130735; -0.012796394048001685; -0.04603052983578805; -0.865478515625; -0.258056640625; -0.2177734375;0
389;2329721250; 0.9993778567135525; -0.001453894777034656; -0.03523784502007071; -2.8280548951353795E-4; -0.1013276922326632; -0.025954692479376963; -0.04625034178269419; -0.887939453125; -0.251953125; -0.16162109375;0
390;2329737917; 0.999327221797808; -1.3693004542365828E-4; -0.0364367711903807; -0.004176928208289299; -0.10695766250843262; -0.028682842338560822; -0.05206494280279128; -0.906494140625; -0.253662109375; -0.098388671875;0
391;2329754584; 0.9992460366075954; 5.716532018393561E-4; -0.03777191493511179; -0.008961806668511473; -0.11456233405437756; -0.017993543050653895; -0.06169633299484315; -0.917724609375; -0.267822265625; -0.035400390625;0
392;2329771251; 0.9991486101479038; 2.8621496685589387E-4; -0.03857151102560236; -0.014635964529427642; -0.12886842680904545; -0.003743642199431173; -0.07330383723167665; -0.92138671875; -0.288818359375; 0.031982421875;0
393;2329787918; 0.9989999040572388; -0.0010634395326124813; -0.03966273000384957; -0.020613797287978523; -0.14889403844234286; 0.0033146529301907052; -0.08363532507470721; -0.917236328125; -0.322998046875; 0.1015625;0
394;2329804585; 0.9987933282392847; -1.8338135861295513E-4; -0.04111271053112365; -0.026862592368458144; -0.17673219973337762; 0.003498278773268358; -0.09379712227693861; -0.900634765625; -0.363037109375; 0.172607421875;0
395;2329821252; 0.9985377289441617; 0.0021791948852947773; -0.04273746334909485; -0.033032774802799904; -0.2135133363281268; 0.033035454890419744; -0.11838626946459097; -0.875244140625; -0.414794921875; 0.244384765625;0
396;2329837919; 0.9981977603975992; 0.0016630616306938517; -0.04496803434981817; -0.03970316423086717; -0.25517739381503507; 0.0798960960001508; -0.15568342103425956; -0.83056640625; -0.47705078125; 0.3193359375;0
397;2329854586; 0.997831477509201; -0.0028445420458427517; -0.04660439532491417; -0.046392687018036206; -0.2935952057527707; 0.11800516144507632; -0.18625275239260938; -0.765869140625; -0.5439453125; 0.38818359375;0
398;2329871253; 0.9974562790226551; -0.01078728112833513; -0.04592802310392181; -0.05343428391868771; -0.3209835761366298; 0.14376269055241367; -0.19627152234143616; -0.687255859375; -0.6201171875; 0.44189453125;0
399;2329887920; 0.9969533330538602; -0.01825712406136218; -0.043516046118733116; -0.06210541734824044; -0.36757136003900254; 0.1560489646651992; -0.2010547642513465; -0.582275390625; -0.701416015625; 0.478515625;0
400;2329904587; 0.9963063441679821; -0.023455276799018016; -0.04074814042768805; -0.07185476750082237; -0.42305949935635856; 0.18090602917578244; -0.19824460710099662; -0.4521484375; -0.7802734375; 0.48388671875;0
401;2329921254; 0.9955822210213592; -0.027667226035766435; -0.037035334973584744; -0.08172484171326218; -0.48353264531223344; 0.23074899182564906; -0.18899712735972474; -0.299560546875; -0.8544921875; 0.467529296875;0
402;2329937921; 0.9947678224113045; -0.03387433088906297; -0.033814247510241514; -0.09025578024262954; -0.5413749752334505; 0.32541318821584486; -0.1901477063199302; -0.123046875; -0.906494140625; 0.42041015625;0
403;2329954588; 0.9942287858838661; -0.04134405762851498; -0.03153819216377477; -0.09383566834495417; -0.5962188480776075; 0.4260644392857376; -0.17296518759777993; 0.0654296875; -0.924072265625; 0.348876953125;0
404;2329971255; 0.995427255242181; -0.03601533688799596; -0.03179999294323419; -0.08256049587225117; -0.6335348123517786; 0.3968614912049251; -0.07819527950550617; 0.24169921875; -0.905517578125; 0.268310546875;0
405;2329987922; 0.9972021181961005; -0.012642262748791572; -0.03524189026055741; -0.06470021505886726; -0.6555020159848128; 0.35987307006952185; 0.014269027601812097; 0.375; -0.86083984375; 0.206787109375;0
406;2330004589; 0.9977365235970839; 0.01782464420938333; -0.043227958090330594; -0.0483265473477581; -0.6623037012588046; 0.34256125289155026; 0.018504300997662135; 0.470458984375; -0.808837890625; 0.189697265625;0
407;2330021256; 0.9966408671628539; 0.053275658157502515; -0.05242062276236687; -0.0334778203885075; -0.6124953785508829; 0.30957827274227645; -0.013802173162673806; 0.538818359375; -0.760498046875; 0.205078125;0
408;2330037923; 0.9953686007293676; 0.07501248622720356; -0.056784880053866615; -0.019747227383668856; -0.5146154542767737; 0.39672656689617636; -0.0700286883265469; 0.58447265625; -0.7177734375; 0.237060546875;0
409;2330054590; 0.9954274198041266; 0.07605239590429001; -0.05735830906648715; -0.007092909159818361; -0.4006190803875328; 0.4475326683527904; -0.12801413294438335; 0.612060546875; -0.682373046875; 0.27587890625;0
410;2330071257; 0.9964123777766373; 0.06279128940813505; -0.05671218521301625; 0.001831785013664211; -0.2853184196613061; 0.522399472691563; -0.16858468593074888; 0.634765625; -0.65771484375; 0.28857421875;0
411;2330087924; 0.9977218241227457; 0.0423035807881853; -0.051981714852063494; 0.007711682223552952; -0.24546024611417866; 0.5520844658685129; -0.19205252741962356; 0.64599609375; -0.648681640625; 0.276611328125;0
412;2330104591; 0.9982278220154255; 0.029806067269166014; -0.04925450045029856; 0.015060142551697075; -0.2701248931255435; 0.49480937565493566; -0.20369539332439013; 0.642822265625; -0.6591796875; 0.25048828125;0
413;2330121258; 0.9981243629581459; 0.02971009635541949; -0.046961870898972524; 0.025683631472504524; -0.2728877079685421; 0.42170139274360263; -0.21158098493550154; 0.62548828125; -0.67529296875; 0.22119140625;0
414;2330137925; 0.9978682716408358; 0.03395148945538701; -0.040074496799424854; 0.038732977197275115; -0.2543885343996224; 0.377730264324469; -0.2182298015075953; 0.589599609375; -0.714111328125; 0.2158203125;0
415;2330154592; 0.9979330970470548; 0.03262683282963208; -0.02850067482949498; 0.04746298696715243; -0.2332438357535963; 0.37393850462608813; -0.2195467267883238; 0.529541015625; -0.758544921875; 0.223876953125;0
416;2330171259; 0.9983070956144334; 0.02414810415659957; -0.01450849980893257; 0.050885315610799536; -0.22486888388244736; 0.35756197879838847; -0.19787500716859763; 0.456298828125; -0.802001953125; 0.25;0
417;2330187926; 0.9985526754869699; 0.013493948527811939; -0.004157189258981259; 0.05189590936102651; -0.23775139142580182; 0.330247872870166; -0.1736593942472662; 0.374755859375; -0.8447265625; 0.26953125;0
418;2330204593; 0.9986241824253048; 0.002824839750667274; 0.0012064441672471617; 0.052347942158655444; -0.25889465442953574; 0.3142762697644685; -0.14275035450280382; 0.2880859375; -0.880126953125; 0.280029296875;0
419;2330221260; 0.998582657917405; -0.005855497039732704; 0.003134197880391543; 0.05280686759006955; -0.2824621067377655; 0.2920302658500127; -0.10660775272038328; 0.195556640625; -0.909423828125; 0.273193359375;0
420;2330237927; 0.9984475128741915; -0.012009931718459266; 0.003228623705010564; 0.05429458135422416; -0.2957685462731603; 0.2668671850255798; -0.0773836663428493; 0.09912109375; -0.928955078125; 0.25927734375;0
421;2330254594; 0.9983177480169987; -0.01722535856058449; 0.0019866503578193084; 0.0553264334390293; -0.29135275475622135; 0.24943482962870495; -0.05631632574242382; -0.00732421875; -0.9384765625; 0.22998046875;0
422;2330271261; 0.9982557998198958; -0.021155317521180272; 6.554820934861623E-4; 0.055112439700519364; -0.27811992803418034; 0.22712614494849098; -0.04589016888882794; -0.105224609375; -0.94287109375; 0.191162109375;0
423;2330287928; 0.9982193421455688; -0.025893594380392626; -4.543096442761186E-4; 0.05373509411249256; -0.2575993100015126; 0.2209947889392767; -0.04138199768990872; -0.204345703125; -0.93017578125; 0.144775390625;0
424;2330304595; 0.9981757868227202; -0.03159768349744979; -5.296478702881345E-4; 0.05144321599172949; -0.2515309141398552; 0.20445770802774985; -0.03626531363468005; -0.299560546875; -0.90478515625; 0.08935546875;0
425;2330321262; 0.9980803981630781; -0.037072540098388784; -0.0016795035979410983; 0.04958149696156198; -0.24745736390385342; 0.18294823639002075; -0.0506367264162603; -0.383544921875; -0.87060546875; 0.030517578125;0
426;2330337929; 0.9978038191640558; -0.04496443889776247; -0.003819986948912391; 0.04848861099210525; -0.246327520931794; 0.1610342692579819; -0.06626540225166765; -0.4697265625; -0.818115234375; -0.03955078125;0
427;2330354596; 0.9974609414679474; -0.05296038569699274; -0.005900196949872539; 0.047244634284270524; -0.22518371581747423; 0.12053358806061237; -0.06941435191478976; -0.542724609375; -0.755126953125; -0.113525390625;0
428;2330371263; 0.9973849758532689; -0.0553514039932243; -0.008340359968825291; 0.04571510050020067; -0.2196975137569923; 0.0639450165096371; -0.06636932255617939; -0.612548828125; -0.677490234375; -0.177734375;0
429;2330387930; 0.9975839659552711; -0.052433304461063146; -0.01103257376578523; 0.044218341990042716; -0.19730709737061186; 0.022720825167533168; -0.06075893926673555; -0.676513671875; -0.58349609375; -0.2353515625;0
430;2330404597; 0.9978075112319589; -0.048182457692600045; -0.013604793007414658; 0.04328430324044058; -0.1691933711851603; 0.005020815770876288; -0.07144726978430789; -0.731689453125; -0.489013671875; -0.26806640625;0
431;2330421264; 0.9979860223617315; -0.04478649261040413; -0.015620047405498856; 0.04211986905627465; -0.13274941441301225; -0.007725142437034607; -0.08301750551834225; -0.781005859375; -0.387451171875; -0.281982421875;0
432;2330437931; 0.9980479519018365; -0.04380405415407501; -0.017112762614619696; 0.041093112560528; -0.09571760306561537; -0.010310562069280743; -0.10456001213706351; -0.822509765625; -0.28759765625; -0.283935546875;0
433;2330454598; 0.9981029084391204; -0.04435926612704688; -0.01724843966337475; 0.03905548621151173; -0.060241298008881526; -0.015894481555405758; -0.10539868631481933; -0.854248046875; -0.1884765625; -0.2724609375;0
434;2330471265; 0.9982980869384286; -0.04274870081171975; -0.01577822870914714; 0.036394033752602944; -0.0313152936279908; -0.018957975625748476; -0.09660239396936347; -0.87939453125; -0.08935546875; -0.2548828125;0
435;2330487932; 0.9986355335677755; -0.037507453462829854; -0.012953714467974666; 0.03394795004150027; -0.020344073365357596; -0.02419242984879682; -0.0775158003834393; -0.892578125; -7.32421875E-4; -0.23095703125;0
436;2330504599; 0.9989489213732076; -0.030839455012346195; -0.010897395068614481; 0.03211272773473384; -0.017094932963133753; -0.014713943056855661; -0.0677961200442699; -0.897216796875; 0.078369140625; -0.205078125;0
437;2330521266; 0.9991989893099288; -0.023813768504298227; -0.010169045274156185; 0.03051023942634271; -0.0175151698551035; -0.0065230733217421745; -0.05794200210994823; -0.89404296875; 0.151611328125; -0.177978515625;0
438;2330537933; 0.9994310182409208; -0.013512585283952036; -0.010592921916467659; 0.02903170374145711; -0.019571348996830898; -0.01535985196487626; -0.044345037051654955; -0.889404296875; 0.215576171875; -0.156982421875;0
439;2330554600; 0.999507834601954; -0.0019428599855988854; -0.011965655357092321; 0.02893331913667455; -0.02383982952263417; -0.0024406654596629204; -0.049037422030289504; -0.88232421875; 0.265380859375; -0.13134765625;0
440;2330571267; 0.999462885837595; 0.005147990712176476; -0.01265736808918544; 0.029786390480699976; -0.0245724158219384; 0.01739824780093716; -0.05408779449004359; -0.866943359375; 0.313720703125; -0.109375;0
441;2330587934; 0.9994028809471556; 0.009582288348827794; -0.011442969051381369; 0.031162794544371795; -0.024618036314192297; 0.02879744353240358; -0.0545744102137731; -0.854736328125; 0.35986328125; -0.09521484375;0
442;2330604601; 0.9993716246101525; 0.012198609028347712; -0.008741725596388807; 0.03211124562260731; -0.03269529856924003; 0.039684601548981305; -0.05095569988483868; -0.834228515625; 0.407470703125; -0.086181640625;0
443;2330621268; 0.9993536251589534; 0.014769507588493519; -0.0055660984102934305; 0.032298793719551584; -0.043157690522297294; 0.04872056571024906; -0.049373003880454014; -0.80712890625; 0.448974609375; -0.088623046875;0
444;2330637935; 0.9993612232924264; 0.01621901735613618; -0.0014594787113105803; 0.03181129952324685; -0.05311406399903626; 0.06490331257773002; -0.04422576081405256; -0.77783203125; 0.4951171875; -0.10205078125;0
445;2330654602; 0.9993638576638637; 0.017383487904407607; 0.0035201441298635117; 0.030940312357556402; -0.07415024371169159; 0.08051547306541335; -0.026882052838164767; -0.742431640625; 0.531494140625; -0.11962890625;0
446;2330671269; 0.9993137091033089; 0.018442833136918135; 0.009213092280363768; 0.03077485393474505; -0.1010745811663519; 0.09331230873516701; -0.009935113472098597; -0.702392578125; 0.565185546875; -0.147216796875;0
447;2330687936; 0.9991609134241064; 0.019725350778535683; 0.014580709809378091; 0.03279912382402451; -0.14336251147943482; 0.10346393956890731; 0.004003922793842413; -0.658203125; 0.593505859375; -0.18603515625;0
448;2330704603; 0.9988973489926002; 0.02076619611347863; 0.018753260629291783; 0.03769836190475406; -0.18910703408441976; 0.1122613567935402; 0.016623630047719072; -0.602294921875; 0.62451171875; -0.230224609375;0
449;2330721270; 0.9986172347744648; 0.020749800362612925; 0.02154807880790821; 0.04322897750353578; -0.2309879752903089; 0.13698252997140958; 0.031780055630126425; -0.53173828125; 0.6552734375; -0.27783203125;0
450;2330737937; 0.998395711854371; 0.02050084883812292; 0.024465979458862534; 0.0467668001560797; -0.27291845677267446; 0.1616385339800182; 0.054568860514078214; -0.447021484375; 0.68017578125; -0.32666015625;0
451;2330754604; 0.998136052860743; 0.019808616334809126; 0.028722348560630388; 0.05007060406703879; -0.3297639789645865; 0.1816764327791492; 0.09802233295445358; -0.351806640625; 0.697509765625; -0.373046875;0
452;2330771271; 0.9976860677930341; 0.015166831788507723; 0.036027575877830405; 0.0556281504414774; -0.37224920195017386; 0.19351919603456957; 0.1632210888514204; -0.235595703125; 0.7138671875; -0.41259765625;0
453;2330787938; 0.9968961000249177; 0.006582858758835575; 0.04454899241436541; 0.06457723283430024; -0.4385087546024026; 0.1705338472974196; 0.23703266539485085; -0.101806640625; 0.72509765625; -0.43701171875;0
454;2330804605; 0.996154652732053; -0.003929142834035115; 0.04825075763960577; 0.07302283248461855; -0.5446773038670653; 0.14919612851066008; 0.27985937994555654; 0.0625; 0.728271484375; -0.432373046875;0
455;2330821272; 0.9961807019379267; -0.012696958917807533; 0.04415247404362244; 0.07425197207163088; -0.6094383694026366; 0.11523092691567582; 0.3288146149766803; 0.22412109375; 0.7119140625; -0.397216796875;0
456;2330837939; 0.9965314448792403; -0.01585886886422433; 0.035734263764625886; 0.07346181347095287; -0.6683142859482067; 0.04229439522719361; 0.37978174287888805; 0.37744140625; 0.68408203125; -0.349853515625;0
457;2330854606; 0.996744614409621; -0.017709350834490795; 0.025917982805310852; 0.07426177149610975; -0.7228618342863388; -0.02674369873816096; 0.407960524988186; 0.508056640625; 0.625732421875; -0.294677734375;0
458;2330871273; 0.9971565119771971; -0.02007801235080403; 0.012674790888305256; 0.07152002319245032; -0.7696125587557199; -0.06267201275858622; 0.39902211169622814; 0.616455078125; 0.552001953125; -0.25439453125;0
459;2330887940; 0.9976618670758055; -0.023413560080739942; -0.002429586622484215; 0.06416152504427487; -0.7836216327778018; -0.10971687075051657; 0.3787596096854232; 0.6904296875; 0.47705078125; -0.225341796875;0
460;2330904607; 0.9978830932237256; -0.026331289169981786; -0.015797535197161875; 0.05732742232640936; -0.7807174146188747; -0.1472603712241245; 0.34522578594886444; 0.73974609375; 0.4033203125; -0.2265625;0
461;2330921274; 0.9979234780572482; -0.02956949028842587; -0.025961136850852717; 0.050994083574651884; -0.76114165255519; -0.16403757441537747; 0.3048097470379866; 0.7646484375; 0.338134765625; -0.2431640625;0
462;2330937941; 0.9979493193549961; -0.03273184872195886; -0.03226297703852061; 0.0445520189301748; -0.7264727847167001; -0.16804100278984435; 0.25683728868217615; 0.77294921875; 0.285888671875; -0.277099609375;0
463;2330954608; 0.997965703730376; -0.03665298896233196; -0.03621744536552108; 0.03754076756351802; -0.6773056982172103; -0.17294378726895265; 0.21039910307104645; 0.7666015625; 0.25048828125; -0.316162109375;0
464;2330971275; 0.9980215676414558; -0.03827535813913818; -0.03935668833484735; 0.030643083479404087; -0.6141587283096505; -0.18263394372065528; 0.17452967503164596; 0.745361328125; 0.23193359375; -0.359130859375;0
465;2330987942; 0.9981581834730235; -0.037242593826316034; -0.04169297481491416; 0.023556863585903535; -0.5342877347055764; -0.17168173800259715; 0.14348066010533908; 0.71630859375; 0.229736328125; -0.404296875;0
466;2331004609; 0.9983215025686901; -0.03608592700995905; -0.042314914847875924; 0.01616883923606538; -0.4498899034507632; -0.14002480672054263; 0.11410566279429904; 0.674560546875; 0.24560546875; -0.448974609375;0
467;2331021276; 0.998419115253204; -0.036988816990704776; -0.04145364760698984; 0.008526008134698367; -0.35842127035147753; -0.11118687824612658; 0.09198995949449082; 0.631103515625; 0.271240234375; -0.4873046875;0
468;2331037943; 0.9984459957483858; -0.0382918060587516; -0.04047746516475432; 9.518280357051767E-4; -0.2654535016422529; -0.09565652544495465; 0.07684932457462401; 0.580810546875; 0.315673828125; -0.517333984375;0
469;2331054610; 0.998489912371381; -0.038903396316356864; -0.038357121273770514; -0.005757768251110685; -0.18192243074711112; -0.08223878619357716; 0.07170551593654174; 0.523193359375; 0.3701171875; -0.53369140625;0
470;2331071277; 0.9985582547205516; -0.04007345500139675; -0.03349672145438414; -0.012389503037022964; -0.1099404495468437; -0.060730724200596345; 0.07499578449772724; 0.460693359375; 0.43310546875; -0.53515625;0
471;2331087944; 0.9985238027266354; -0.04352385367273609; -0.025673241388370852; -0.019919192414049425; -0.05746037985939728; -0.025755030057282573; 0.07692040078118247; 0.406982421875; 0.504638671875; -0.520263671875;0
472;2331104611; 0.998305715127135; -0.04862304796618955; -0.01599932416590819; -0.027668031683002567; -0.029246699920502054; -0.013657835717948737; 0.07588634573150871; 0.354736328125; 0.584716796875; -0.484619140625;0
473;2331121278; 0.9980407350903604; -0.052137226472296905; -0.006791235031568518; -0.03391577572186113; -0.028306221307921136; -0.011579877372546316; 0.08329131665698315; 0.298583984375; 0.669921875; -0.42333984375;0
474;2331137945; 0.9978739964980994; -0.05277969344978434; -3.7513596407347255E-4; -0.038231536004537325; -0.04711531470194025; -0.019425122388670096; 0.08661954028561038; 0.240966796875; 0.744873046875; -0.345458984375;0
475;2331154612; 0.9980081843756515; -0.049445615039753865; 0.0022771419416001697; -0.039110224969099654; -0.06562061382495307; -0.04190861110662124; 0.09197047573681624; 0.178466796875; 0.806396484375; -0.2626953125;0
476;2331171279; 0.9983154629846616; -0.0426613506681493; 0.0026305076839777887; -0.039234244662216394; -0.07577639493016555; -0.04641687799689017; 0.09414925996805547; 0.11572265625; 0.8544921875; -0.18310546875;0
477;2331187946; 0.9985379931380658; -0.03608110860499619; 0.0033989317763468974; -0.040105824071055125; -0.07562970467491377; -0.03816039735864297; 0.09121136659760168; 0.038818359375; 0.88330078125; -0.1162109375;0
478;2331204613; 0.9986182823284326; -0.031574206286079876; 0.00557443109455591; -0.04163557871324708; -0.07431243045621497; -0.025845685512255814; 0.07900630840454292; -0.033935546875; 0.900390625; -0.05908203125;0
479;2331221280; 0.99855395355074; -0.031024087834030933; 0.01034033990253973; -0.042668316031370425; -0.06811299984841941; -0.008131158325260224; 0.06159013676661756; -0.1123046875; 0.90625; -0.004638671875;0
480;2331237947; 0.998408776722907; -0.03267705228360168; 0.015028869887249748; -0.04343107052140638; -0.06921096548164432; 0.0011813064867329396; 0.044126179716330795; -0.19091796875; 0.90234375; 0.055419921875;0
481;2331254614; 0.9983671953755903; -0.03193097461614647; 0.017371313905078706; -0.04406351678148541; -0.07541770305657505; -0.009146302735348088; 0.03553123819885639; -0.2666015625; 0.888427734375; 0.111328125;0
482;2331271281; 0.9985949998353294; -0.025480551449574618; 0.016615979406300194; -0.04338982634297481; -0.0840343391394662; -0.017236558295648192; 0.03275179873486155; -0.34814453125; 0.863037109375; 0.149658203125;0
483;2331287948; 0.9989417737125216; -0.015724744155441672; 0.013656513886664308; -0.04100688700438732; -0.08616787253621752; -0.01149500473287127; 0.02652877527616323; -0.421630859375; 0.83251953125; 0.170166015625;0
484;2331304615; 0.9992082200999145; -0.0075078265791007626; 0.009800745994843154; -0.03782209410864862; -0.07646598062961066; 0.016493488800041027; 0.011240194603514785; -0.48681640625; 0.799072265625; 0.176025390625;0
485;2331321282; 0.9993822665757983; -9.715298177396248E-4; 0.00640548170948399; -0.034541441598500984; -0.06280552532936647; 0.023400885070023074; 0.004956364315374582; -0.54833984375; 0.763916015625; 0.172607421875;0
486;2331337949; 0.9995040317739015; 0.006713600422848354; 0.0036812481219513087; -0.030546136406147617; -0.05009146229787603; 0.022536125124690623; 5.758539064969551E-4; -0.599365234375; 0.727783203125; 0.15869140625;0
487;2331354616; 0.9995706031519538; 0.01376875320661064; 0.0019789140612117566; -0.025789816763855142; -0.037037100318281765; 0.03163640809558889; -0.011572043053913923; -0.63720703125; 0.699462890625; 0.139892578125;0
488;2331371283; 0.9995839431155233; 0.01885744346266699; 0.0010792667172241368; -0.021798455794563243; -0.026025455786170514; 0.036622958850042214; -0.020234312758512462; -0.67236328125; 0.664306640625; 0.11572265625;0
489;2331387950; 0.9995547250406328; 0.023579864116734683; 8.529509714094718E-5; -0.018284812876472576; -0.023538586736245197; 0.03576948540582081; -0.031954190908425974; -0.6982421875; 0.642578125; 0.0830078125;0
490;2331404617; 0.9995264541909554; 0.02695177404711885; -9.116860916166815E-4; -0.014820191518308573; -0.021028445588002605; 0.04193888985921693; -0.046992904889362724; -0.719970703125; 0.61767578125; 0.050537109375;0
491;2331421284; 0.9994755997601532; 0.030048981625717508; -0.0021012596436636726; -0.011881451731548644; -0.02206702102317154; 0.030392527461630528; -0.05865651408540772; -0.7333984375; 0.591796875; 0.01708984375;0
492;2331437951; 0.9993449700524757; 0.0349134590009465; -0.002765906358541737; -0.009112133307923459; -0.01505616347228787; 0.0019548981380412417; -0.069453888689711; -0.746826171875; 0.5693359375; -0.0185546875;0
493;2331454618; 0.9990782469593458; 0.04240821076104839; -0.002096820329104354; -0.006308998113378512; -0.005023637594911409; -0.02076363995296495; -0.0892357667207101; -0.7548828125; 0.546142578125; -0.061279296875;0
494;2331471285; 0.9990553243434552; 0.043120724227856955; -1.740662896332346E-5; -0.005390894180725386; 0.008665227697871904; 0.028149186243921362; -0.13037718033388668; -0.760986328125; 0.51953125; -0.10888671875;0
495;2331487952; 0.9993242928573831; 0.03532420152433391; 0.004027379280988897; -0.009324092872051855; 0.018608227653755624; 0.05044398993854397; -0.14487647468411705; -0.766357421875; 0.487548828125; -0.150634765625;0
496;2331504619; 0.9994325828605398; 0.028246691223424603; 0.010510678446056578; -0.01503869642762276; 0.015769178618416937; 0.03266251492304548; -0.13433190103751422; -0.773681640625; 0.453369140625; -0.19287109375;0
497;2331521286; 0.9993020634362553; 0.025238822704358232; 0.01921755537919273; -0.01972494374612935; 1.1771297405432923E-4; 0.012897702976067831; -0.11828490404316172; -0.77685546875; 0.407958984375; -0.239013671875;0
498;2331537953; 0.9989390762892425; 0.028213113355946118; 0.028121995223191646; -0.023106178434053104; -0.031811395289049; -0.004729581871199392; -0.10045390478522426; -0.774658203125; 0.3564453125; -0.301025390625;0
499;2331554620; 0.9983489874492137; 0.03644363351509508; 0.03593054361990428; -0.026079817302376632; -0.07978640074474876; -2.532586554241595E-4; -0.08975681364502838; -0.75830078125; 0.288330078125; -0.37451171875;0
500;2331571287; 0.997682111166509; 0.044389025501138546; 0.042593146605134365; -0.02908338590450582; -0.1394102278070477; 0.03405871116199784; -0.08745731279868152; -0.73095703125; 0.20654296875; -0.455810546875;0
501;2331587954; 0.9971812816496101; 0.04784394330053243; 0.047879519744640164; -0.032372831296000056; -0.20454039056693768; 0.07636874665194457; -0.08165023986704202; -0.679931640625; 0.108154296875; -0.53857421875;0
502;2331604621; 0.9970695564019382; 0.04252749326000871; 0.05221625837657607; -0.03629289702700483; -0.2704529815791572; 0.14806465243204964; -0.0695759048250933; -0.6142578125; 0.001953125; -0.608154296875;0
503;2331621288; 0.9972524541392975; 0.029784694963941094; 0.054524230467663866; -0.04034256995981234; -0.3426702487839526; 0.18567833060974376; -0.04153908873283477; -0.526123046875; -0.08984375; -0.665771484375;0
504;2331637955; 0.9973784840648422; 0.01720858942345818; 0.05482316594038695; -0.04398231975288225; -0.4189814097733062; 0.1964120109844438; -0.0048206923056551415; -0.43017578125; -0.153076171875; -0.7158203125;0
505;2331654622; 0.9973614134808596; 0.012015164725834436; 0.05459628441648401; -0.04631514270718729; -0.5005082102610342; 0.18368595764304643; 0.03740897427762238; -0.316650390625; -0.203857421875; -0.753173828125;0
506;2331671289; 0.9973162805882944; 0.014422918739125629; 0.053957885911401056; -0.047336692285662174; -0.5679047716585008; 0.17699370364907446; 0.07391538013866804; -0.2021484375; -0.248046875; -0.771484375;0
507;2331687956; 0.9971349849957531; 0.018494973975133472; 0.0549958469532059; -0.04853055174915872; -0.6265925482318209; 0.19434194134139615; 0.1223452250286944; -0.0771484375; -0.28662109375; -0.779541015625;0
508;2331704623; 0.9967087426098299; 0.021429565521284777; 0.059496416156031; -0.0507211256902797; -0.6753139691974382; 0.19263749840162464; 0.1876780148498687; 0.05615234375; -0.3212890625; -0.764404296875;0
509;2331721290; 0.9963917697584931; 0.025633835725329096; 0.060318981506832875; -0.053925579213610415; -0.754276359640931; 0.16858745978166284; 0.24249087545788106; 0.20263671875; -0.34326171875; -0.72802734375;0
510;2331737957; 0.9964520169214532; 0.03456011325911701; 0.05099769076996314; -0.05734293400948287; -0.8343489045460988; 0.1261786966308961; 0.2757550770041512; 0.332275390625; -0.3623046875; -0.6708984375;0
511;2331754624; 0.9963416807247907; 0.05200159798087764; 0.03167362348847206; -0.05996557873517772; -0.8893327551697696; 0.11982298676770092; 0.2726514508581137; 0.435791015625; -0.382080078125; -0.6103515625;0
512;2331771291; 0.9955488814720609; 0.07073458254136453; 0.010660027681108243; -0.06136291422565726; -0.8655306887418631; 0.14245911367188058; 0.26581521358920984; 0.506103515625; -0.414794921875; -0.537841796875;0
513;2331787958; 0.9944993117691704; 0.08543685179012353; -0.0018086389715104567; -0.060567252471196216; -0.800244043570223; 0.17447191513634552; 0.28157065429925904; 0.56005859375; -0.44970703125; -0.467529296875;0
514;2331804625; 0.994012201492114; 0.09278610586131314; -0.0071575838505621445; -0.057264743405662955; -0.7679786307361532; 0.16956662269729067; 0.3182647243703631; 0.608642578125; -0.480224609375; -0.386962890625;0
515;2331821292; 0.9932889521890073; 0.10153424385951118; -0.019714385608555266; -0.05176096775774711; -0.8152691967862777; 0.16367758632187968; 0.28705482255675846; 0.645751953125; -0.50146484375; -0.310302734375;0
516;2331837959; 0.9917796783954049; 0.11029277502860327; -0.04957666213097368; -0.041841700136924564; -0.828141148467551; 0.26285570640220923; 0.11357563207442693; 0.659912109375; -0.530517578125; -0.250244140625;0
517;2331854626; 0.9905695967258867; 0.10727739358884994; -0.0807361485862576; -0.02729668805102445; -0.6906374618537244; 0.37546910989410703; -0.009255607011293784; 0.639404296875; -0.562255859375; -0.234130859375;0
518;2331871293; 0.9912683367264868; 0.09394063233064137; -0.09169668777391; -0.012408047876992595; -0.5415915774523042; 0.41785777052440004; -0.05008315390871619; 0.5966796875; -0.61328125; -0.239501953125;0
519;2331887960; 0.9937005729451447; 0.0711179237642981; -0.08661069147197005; -1.925341220004873E-5; -0.4641836522977346; 0.4590400603529403; -0.0949240729777096; 0.5341796875; -0.664306640625; -0.24365234375;0
520;2331904627; 0.9954667928829719; 0.05138852258865184; -0.07944713219781209; 0.009655941123959288; -0.43824729228412285; 0.3965485769185747; -0.12515884517731463; 0.465087890625; -0.713623046875; -0.250244140625;0
521;2331921294; 0.9962430223274926; 0.04282750191580642; -0.07243533414007725; 0.020463819571381523; -0.3992040623386678; 0.32983861431419975; -0.12321171222055913; 0.383544921875; -0.76318359375; -0.252685546875;0
522;2331937961; 0.9965630386091284; 0.043007970757229064; -0.06389677662580083; 0.03048977642290493; -0.36582039061645455; 0.2749256409365425; -0.10338963635289795; 0.292724609375; -0.81201171875; -0.234375;0
523;2331954628; 0.9966977645842832; 0.04446973406301341; -0.05516149323681704; 0.0396638183858091; -0.3473807206805936; 0.23365975297360753; -0.09604042161622359; 0.190673828125; -0.859375; -0.18798828125;0
524;2331971295; 0.9969366000421487; 0.041241195632268135; -0.04715655270521416; 0.046827756898897815; -0.32956195111731973; 0.21846733625914994; -0.09132365961661024; 0.088134765625; -0.901611328125; -0.131591796875;0
525;2331987962; 0.9974201616514402; 0.030188773631179167; -0.04093664680139597; 0.05065422022416206; -0.3219667351483627; 0.2207174970954845; -0.09501908606011898; -0.021484375; -0.925048828125; -0.0771484375;0
526;2332004629; 0.9978412752452795; 0.015381606962833638; -0.03763490863097319; 0.05157333842649106; -0.31004238722533817; 0.19181065412574524; -0.08805353333351185; -0.12841796875; -0.927734375; -0.03662109375;0
527;2332021296; 0.998091784941083; 0.0034238016510276803; -0.03533453702121037; 0.05052263758825457; -0.27236896390231724; 0.14487112103218058; -0.06876636315987031; -0.231201171875; -0.91552734375; -0.01416015625;0
528;2332037963; 0.9982644746210689; -0.003369242970907238; -0.03334305723133304; 0.048424450908525596; -0.23807147693040778; 0.09284252159116689; -0.050609532012011196; -0.328369140625; -0.88623046875; 0.00146484375;0
529;2332054630; 0.9984418084304326; -0.006293955522691574; -0.03067391720162299; 0.04618930726427576; -0.19507370402610302; 0.04714948651922948; -0.0439503952458036; -0.421630859375; -0.85498046875; 0.00927734375;0
530;2332071297; 0.9985503152260221; -0.006621877203059456; -0.028219505202349424; 0.045355024313235154; -0.15514236919688973; 9.106216071430792E-4; -0.04661929179822445; -0.504638671875; -0.816162109375; 0.024658203125;0
531;2332087964; 0.9986378236464072; -0.006362459712687729; -0.026255034887470833; 0.044639550089908754; -0.10437293562036748; -0.03336151074448253; -0.05211081054635543; -0.576171875; -0.770263671875; 0.04248046875;0
532;2332104631; 0.9987992494284852; -0.007635799575285596; -0.02339765639917341; 0.04235922073134543; -0.045892483205113674; -0.057958036009865765; -0.060455896120007395; -0.64404296875; -0.717041015625; 0.060302734375;0
533;2332121298; 0.9990729273908048; -0.010391921517337421; -0.019385447012447987; 0.03700673136164346; -0.009170423286157643; -0.0700787594790385; -0.070883484705903; -0.70068359375; -0.665283203125; 0.070556640625;0
534;2332137965; 0.9993791298854537; -0.011132178467815335; -0.015651069486193384; 0.029537660298209756; 0.011846797229464223; -0.09164239161047588; -0.07479696856387366; -0.7421875; -0.61962890625; 0.08056640625;0
535;2332154632; 0.9996029704746062; -0.008560044928335508; -0.01273980058265606; 0.023628891854727833; 0.037109166711114375; -0.11552830492929786; -0.07805397575801185; -0.775146484375; -0.58349609375; 0.08935546875;0
536;2332171299; 0.9997392760936957; -0.0053637739495386305; -0.00996843275686399; 0.01983028272726778; 0.052627551603557; -0.1047805688820502; -0.08886228867022465; -0.798095703125; -0.551025390625; 0.10009765625;0
537;2332187966; 0.9998471584896985; -0.004526038158430501; -0.006941015478250212; 0.015394705024613544; 0.052876904807975515; -0.0840262887893323; -0.09825670406240736; -0.819580078125; -0.522705078125; 0.105712890625;0
538;2332204633; 0.9999141384345226; -0.005337267010028401; -0.0039348356981147034; 0.01130249563764224; 0.048819935041788415; -0.07445532728724424; -0.104571030110394; -0.8310546875; -0.504638671875; 0.106689453125;0
539;2332221300; 0.9999444313082966; -0.005995539414521356; -0.0010710568948046897; 0.008604687082297282; 0.05274645171316473; -0.07662883966584368; -0.10436543765766121; -0.844482421875; -0.490234375; 0.106689453125;0
540;2332237967; 0.999960672924171; -0.004868390110968346; 0.0017225777333819694; 0.007210000604640665; 0.06283010380169013; -0.08364914480721086; -0.10025375923437904; -0.8486328125; -0.477783203125; 0.099365234375;0
541;2332254634; 0.9999701156276893; -0.002684612364460437; 0.004356263271803329; 0.0057951426475121035; 0.0723827283243536; -0.08575393534250011; -0.09737399754401915; -0.857421875; -0.46435546875; 0.091064453125;0
542;2332271301; 0.9999724815182552; 3.8955635132648103E-4; 0.006442269352539832; 0.0036580893457295316; 0.07502852819961844; -0.08832181893578653; -0.0937359722830117; -0.858154296875; -0.460205078125; 0.078857421875;0
543;2332287968; 0.9999594782603778; 0.003176725656804713; 0.008325119184556808; 0.0012816559199849145; 0.07501365624234124; -0.08379800255506; -0.0903203375057619; -0.859130859375; -0.457763671875; 0.068603515625;0
544;2332304635; 0.9999296354618789; 0.0053548138453872185; 0.010510306553217332; -0.001258391796203101; 0.0706262434662528; -0.075312746004168; -0.08534500211782223; -0.85791015625; -0.459228515625; 0.0576171875;0
545;2332321302; 0.9998885364192138; 0.006974916347519899; 0.012593031132665577; -0.003959904832080919; 0.06567096861788499; -0.06591281876758705; -0.08195258960951955; -0.852783203125; -0.46484375; 0.044921875;0
546;2332337969; 0.9998343285173766; 0.008759941591295173; 0.014617716285581618; -0.006395413365684166; 0.062074854111993344; -0.056794802928743005; -0.08004579304016807; -0.83935546875; -0.47607421875; 0.02685546875;0
547;2332354636; 0.9997654468827066; 0.011061086598158465; 0.016574565828321845; -0.008484535950347706; 0.05857643425388521; -0.043596507318780925; -0.08101829322463636; -0.83056640625; -0.48974609375; 0.0126953125;0
548;2332371303; 0.9996815316318283; 0.013472357616311326; 0.018529964217595344; -0.010581650182969887; 0.04836704968504847; -0.02676885530375289; -0.08607287647136506; -0.81689453125; -0.5087890625; -0.00390625;0
549;2332387970; 0.9995922687316516; 0.014623102051792958; 0.02090747267938564; -0.012819468181368228; 0.02926966443364357; 0.0012998901497814352; -0.09443134991984897; -0.80126953125; -0.534912109375; -0.0205078125;0
550;2332404637; 0.9995123358957341; 0.013140385555182155; 0.023858873672029827; -0.015270062436564646; 0.005743530701681911; 0.03283023137013438; -0.10351684831761801; -0.772705078125; -0.560791015625; -0.043212890625;0
551;2332421304; 0.9994176017525253; 0.010952878558831092; 0.02747949168628736; -0.017010858155000978; -0.015225877166503945; 0.05786340758062762; -0.09929162025581162; -0.74853515625; -0.5869140625; -0.066162109375;0
552;2332437971; 0.999268821040849; 0.009902964199593356; 0.032517121518605176; -0.0175040396433927; -0.03253195073803494; 0.07144342318548119; -0.08276741993985692; -0.7109375; -0.6171875; -0.09619140625;0
553;2332454638; 0.9990729945327642; 0.011638997475629242; 0.038054359842510876; -0.016418009321297725; -0.05999919184129568; 0.08371536646005862; -0.06897474399632847; -0.671875; -0.642578125; -0.132080078125;0
554;2332471305; 0.9989149412602503; 0.014650350940659584; 0.04149797050805274; -0.01523895626540725; -0.10055222847790525; 0.11285140098628806; -0.06879937710462337; -0.630615234375; -0.668212890625; -0.166259765625;0
