DeviceTag:;Xsens DOT 2;;;;;;;;;;;
FirmwareVersion:;1.3.0;;;;;;;;;;;
AppVersion:;2020.1.1;;;;;;;;;;;
Measurement Mode:;Inertial Mode - High Fidelity (with mag);;;;;;;;;;;
StartTime:;2020-07-29 17:14:08.108 +0200;;;;;;;;;;;
© Xsens Technologies B. V. 2005-2020;;;;;;;;;;;;
PacketCounter;SampleTimeFine;dQ_W;dQ_X;dQ_Y;dQ_Z;dV[1];dV[2];dV[3];Mag_X;Mag_Y;Mag_Z;Status
2;2308053713; 0.9999998473211671; 5.302699668894295E-4; 2.5266159788595904E-5; 1.5340477762493254E-4; -0.16198739517741317; 0.006409968895663878; 0.03198685416503641; 0.498779296875; -0.1728515625; -0.201904296875;0
3;2308070380; 0.9999998830165073; 4.5780131951439484E-4; 3.1065949433336036E-5; 1.53035389030054E-4; -0.16256338380018776; 0.007049191753835407; 0.031549669919208004; 0.500732421875; -0.171875; -0.19970703125;0
4;2308087047; 0.9999999505245338; 2.6946177877848476E-4; 3.4170933077939607E-5; 1.5866199005770687E-4; -0.16227041944836537; 0.007181687589653832; 0.03183880369227851; 0.498046875; -0.177490234375; -0.200927734375;0
5;2308103714; 0.9999999898748873; 3.108665805903743E-5; 1.2975170928221369E-5; 1.3825877972728498E-4; -0.16214155600260402; 0.006448721265118994; 0.03196609124937241; 0.498046875; -0.1748046875; -0.201904296875;0
6;2308120381; 0.999999986773577; -7.550401545097785E-7; -1.607054979639762E-5; 1.618456461222051E-4; -0.16157216429758112; 0.004910423056819123; 0.03168275394539996; 0.497314453125; -0.17529296875; -0.202392578125;0
7;2308137048; 0.9999999685327039; 1.5502738900891044E-4; 1.639812591218773E-5; 1.9655076049840406E-4; -0.16129817284302017; 0.0047138474144176115; 0.03126542723400497; 0.4990234375; -0.17626953125; -0.2021484375;0
8;2308153715; 0.9999999174598463; 3.4754791817487307E-4; 7.889655849494666E-5; 1.9510530057492703E-4; -0.16207423240885221; 0.005339868541104874; 0.03139220429618838; 0.496826171875; -0.17626953125; -0.2001953125;0
9;2308170382; 0.9999999400853343; 3.039994861226414E-4; 1.0264835071181581E-4; 1.299113398698926E-4; -0.16265291837793427; 0.007555500359816433; 0.03137299936045131; 0.499267578125; -0.17822265625; -0.20458984375;0
10;2308187049; 0.999999992082248; 6.858069566506586E-5; 8.282692481410837E-5; 6.535971759175085E-5; -0.16267793329321478; 0.008407267912901945; 0.03142990754156366; 0.49853515625; -0.175048828125; -0.201904296875;0
11;2308203716; 0.999999990429782; -1.2175904222944123E-4; 6.065100223342363E-5; 2.5231479874598953E-5; -0.1622652912397021; 0.007786679821736621; 0.0314222918438506; 0.49951171875; -0.178466796875; -0.20068359375;0
12;2308220383; 0.9999999784997738; -1.9399537880315787E-4; 6.68860880067377E-5; 2.987467375731301E-5; -0.1613778774713746; 0.007021792830333204; 0.03139646976962941; 0.496337890625; -0.178955078125; -0.20263671875;0
13;2308237050; 0.9999999821292752; -1.618575527516375E-4; 8.075603831654739E-5; 5.4973122014856386E-5; -0.16152135453639802; 0.00647200724360452; 0.03117123718778307; 0.499755859375; -0.18017578125; -0.2001953125;0
14;2308253717; 0.9999999875202287; -1.1505207004250395E-4; 6.863789635467613E-5; 8.373411966161592E-5; -0.16174521141356032; 0.0071217897615561965; 0.030974504437006112; 0.497802734375; -0.177001953125; -0.202392578125;0
15;2308270384; 0.9999999776703267; -1.670465182108949E-4; 3.1576662359002895E-5; 1.2552976271529295E-4; -0.1623223760495897; 0.00757467827362817; 0.03068295606917875; 0.500244140625; -0.177734375; -0.200927734375;0
16;2308287051; 0.99999995676639; -2.5340687516647864E-4; 3.449702553337542E-6; 1.4913173169095462E-4; -0.1624743833726262; 0.0074025221102505465; 0.031123600839660266; 0.50244140625; -0.1787109375; -0.200927734375;0
17;2308303718; 0.9999999435443214; -3.0920776751144907E-4; -4.6655394983397165E-5; 1.2298448939029874E-4; -0.16233084858297497; 0.006584613254072662; 0.030872968524040596; 0.5009765625; -0.177734375; -0.201171875;0
18;2308320385; 0.9999999515065522; -2.7188750833229136E-4; -6.431608230572738E-5; 1.3757731472646695E-4; -0.1624658223183106; 0.005895857989037183; 0.030686973656174177; 0.5009765625; -0.177490234375; -0.201904296875;0
19;2308337052; 0.9999999781132808; -1.5114558479645268E-4; -5.926159906063066E-5; 1.319716370885016E-4; -0.16253975288100994; 0.00604894722028803; 0.030579243686793187; 0.49853515625; -0.177001953125; -0.200439453125;0
20;2308353719; 0.9999999837542914; -1.1857802332471135E-4; -6.311692262150893E-5; 1.2019535489482536E-4; -0.16236655117804974; 0.006082963173975761; 0.030792635317814718; 0.500244140625; -0.179443359375; -0.195556640625;0
21;2308370386; 0.9999999802943351; -1.3983191522359828E-4; -8.497533719213114E-5; 1.1241688852636768E-4; -0.16181079346368435; 0.006083470152704995; 0.03055893875713942; 0.50048828125; -0.176025390625; -0.201416015625;0
22;2308387053; 0.9999999856216079; -9.615179309976907E-5; -9.022701974321577E-5; 1.06633492040209E-4; -0.16158335547481723; 0.0059908813356379514; 0.03072220775881532; 0.5029296875; -0.180419921875; -0.19873046875;0
23;2308403720; 0.9999999899778821; 2.111797320392128E-5; -6.789773597425977E-5; 1.2242615877716692E-4; -0.16149277808515794; 0.005777806210331672; 0.030265163678917927; 0.502685546875; -0.179443359375; -0.2021484375;0
24;2308420387; 0.9999999818060863; 1.3481726576475284E-4; -4.180531966054176E-5; 1.2831386242817544E-4; -0.16156977169458947; 0.006510415143073538; 0.030082529414629557; 0.498779296875; -0.177734375; -0.19921875;0
25;2308437054; 0.9999999863299915; 1.270109006768494E-4; -5.088436299146432E-6; 1.0574665814355734E-4; -0.1620902671437233; 0.007656247822919224; 0.03043886844506489; 0.49951171875; -0.17919921875; -0.200439453125;0
26;2308453721; 0.9999999980785761; -1.1061806432621779E-5; -4.327787025264555E-6; 6.084204612122335E-5; -0.16242643716457106; 0.008114930804686296; 0.030128337831886683; 0.4990234375; -0.179443359375; -0.198486328125;0
27;2308470388; 0.9999999776210736; -2.055546507163386E-4; -2.5966616781820596E-5; 4.2788698658424724E-5; -0.16246533800793894; 0.00782843788620767; 0.030487444133919912; 0.501220703125; -0.181640625; -0.201904296875;0
28;2308487055; 0.9999999563952859; -2.9330589625720105E-4; -2.663160042049029E-5; 2.1721770760485537E-5; -0.1620847862705578; 0.006838170542631659; 0.0301050389399782; 0.50146484375; -0.17822265625; -0.1982421875;0
29;2308503722; 0.9999999646427203; -2.653396526183516E-4; -2.397656404116294E-6; 1.7426360578887138E-5; -0.16168389171748399; 0.0063902681261855665; 0.030160838635733885; 0.501220703125; -0.177978515625; -0.200439453125;0
30;2308520389; 0.9999999860545572; -1.6331645542058681E-4; 1.2690940929658072E-5; 3.252015921262341E-5; -0.16163937114742122; 0.006178214845177957; 0.030390258055357767; 0.497314453125; -0.1796875; -0.200927734375;0
31;2308537056; 0.9999999976631965; -4.869512561786471E-5; 1.489125276945419E-5; 4.561405885461501E-5; -0.16192962894491247; 0.006526166357824728; 0.030198920451697052; 0.4990234375; -0.17822265625; -0.197998046875;0
32;2308553723; 0.9999999969412303; -2.3109173439811448E-5; 5.745882812623061E-6; 7.45016110346719E-5; -0.16188842916509716; 0.006713605675663266; 0.030427725931146052; 0.500732421875; -0.179931640625; -0.201171875;0
33;2308570390; 0.9999999960199728; 2.0062990241764833E-5; 2.7320928473373654E-5; 8.252937448122168E-5; -0.16219654250417964; 0.006530369109828869; 0.03008281723230514; 0.500732421875; -0.181884765625; -0.19970703125;0
34;2308587057; 0.9999999944102502; 4.989936371180281E-5; 1.5277596853310874E-5; 9.195731662942075E-5; -0.1619398644642743; 0.006722674439687194; 0.03002589780823165; 0.497802734375; -0.180908203125; -0.198486328125;0
35;2308603724; 0.9999999865199497; 1.1280020610257568E-4; 1.1232814895473927E-5; 1.1878567936868258E-4; -0.1622797309636662; 0.006546179985990247; 0.029890936432859158; 0.49853515625; -0.181640625; -0.199951171875;0
36;2308620391; 0.9999999804405735; 1.6804485266172509E-4; -7.508333017162278E-6; 1.0403559528898709E-4; -0.16282861399014373; 0.006310941010797079; 0.0299226706262258; 0.498779296875; -0.18310546875; -0.199951171875;0
37;2308637058; 0.9999999704685648; 2.2030559161234642E-4; -1.4522260729669945E-5; 1.0157469980726087E-4; -0.16270065278942247; 0.006686985517094561; 0.03031968247696546; 0.50048828125; -0.1796875; -0.196533203125;0
38;2308653725; 0.9999999799695081; 1.7788049154765506E-4; -3.488813339583286E-5; 8.486655674316834E-5; -0.16228293428776255; 0.0066137375737083046; 0.03031641980448852; 0.501220703125; -0.184814453125; -0.201171875;0
39;2308670392; 0.999999982684675; 1.6715682631751605E-4; -2.4601188900821167E-5; 7.800016946724055E-5; -0.16237722474165941; 0.006374286673062501; 0.030177655564536297; 0.50341796875; -0.18408203125; -0.203369140625;0
40;2308687059; 0.9999999785089098; 2.0002525609144617E-4; 6.844326421191067E-7; 5.451246132542886E-5; -0.16205167209254168; 0.006248363824566845; 0.030065403077692822; 0.500732421875; -0.183349609375; -0.1982421875;0
41;2308703726; 0.9999999667777199; 2.5044610782329335E-4; 5.423500478570972E-6; 6.0760939895432304E-5; -0.16170529133874156; 0.006189102715769647; 0.03023504745024493; 0.5; -0.181884765625; -0.199462890625;0
42;2308720393; 0.9999999488590439; 3.117178716661173E-4; 2.739085537165759E-5; 6.605769552819885E-5; -0.16174301146136905; 0.0061600851125478764; 0.03026836646428214; 0.498779296875; -0.180908203125; -0.20166015625;0
43;2308737060; 0.9999999283204027; 3.738520282183244E-4; 3.478542795258902E-5; 4.882442482290195E-5; -0.16190252398515864; 0.006803485654240715; 0.030360619972385573; 0.5009765625; -0.18603515625; -0.200439453125;0
44;2308753727; 0.9999999214057429; 3.8971712998123187E-4; 5.113762264595014E-5; 5.190385529474373E-5; -0.1616859831692641; 0.007333005804781169; 0.030485272743401945; 0.4990234375; -0.1845703125; -0.1982421875;0
45;2308770394; 0.9999999376034551; 3.4635148804887383E-4; 5.5039042174664585E-5; 4.24786579612535E-5; -0.16196930545983287; 0.007529398813374333; 0.03074003088433201; 0.4990234375; -0.187255859375; -0.200439453125;0
46;2308787061; 0.9999999511723009; 3.0329715981439187E-4; 6.643386312282265E-5; 3.539449659634153E-5; -0.16151050898301378; 0.007829878710898304; 0.030688442130714786; 0.50244140625; -0.1875; -0.197265625;0
47;2308803728; 0.9999999722381387; 2.1656966475644412E-4; 9.207747447472805E-5; 1.195996000641353E-5; -0.16213998546201874; 0.008086830903896808; 0.031058658378886012; 0.50146484375; -0.18994140625; -0.202880859375;0
48;2308820395; 0.9999999922849774; 8.94611158763492E-5; 8.56272208625917E-5; -9.733081608065408E-6; -0.16229076070534768; 0.00848322467922849; 0.031042166812472717; 0.50146484375; -0.187255859375; -0.19775390625;0
49;2308837062; 0.9999999963010888; -1.746111539630002E-5; 8.339637495778651E-5; -1.174634002720776E-5; -0.16226724528610156; 0.007935617701027; 0.03127007577750218; 0.501220703125; -0.189208984375; -0.201171875;0
50;2308853729; 0.999999991542038; -1.1188734265310529E-4; 6.349738743849019E-5; -1.91109428413494E-5; -0.16216402550222297; 0.007847670136117077; 0.03139565215914157; 0.5029296875; -0.186767578125; -0.198974609375;0
51;2308870396; 0.9999999827304796; -1.7810552138330937E-4; 4.7701602623984394E-5; -2.3281341167469275E-5; -0.16185844927071041; 0.007082353540045418; 0.031360184180781; 0.501953125; -0.18798828125; -0.19775390625;0
52;2308887063; 0.9999999892778924; -1.429027588497056E-4; 2.979931697649069E-5; 1.1619700538367805E-5; -0.16150225374932936; 0.006494416244707979; 0.030991306485444382; 0.501220703125; -0.18701171875; -0.199951171875;0
53;2308903730; 0.9999999966312244; 1.3879869792010613E-5; 4.953951701542128E-5; 6.395886536741947E-5; -0.16183682976317826; 0.00615270603179361; 0.031027865879129233; 0.503662109375; -0.187744140625; -0.198486328125;0
54;2308920397; 0.9999999619353716; 2.5839027290772143E-4; 6.733320508676631E-5; 6.94979255582151E-5; -0.16231217932830128; 0.005789646818572747; 0.03134050586294798; 0.50244140625; -0.187744140625; -0.195068359375;0
55;2308937064; 0.9999999432690767; 3.2682835121050635E-4; 8.067632621733269E-5; -1.1679149420573688E-5; -0.1620033605398034; 0.008878151726757315; 0.030556561217619196; 0.49951171875; -0.1865234375; -0.198974609375;0
56;2308953731; 0.9999999921962252; -9.283687736652557E-5; -9.71513884661865E-6; -8.303300392381585E-5; -0.16300384674139803; 0.010244930287407819; 0.030667216821809576; 0.503662109375; -0.187744140625; -0.198486328125;0
57;2308970398; 0.9999999692691189; -2.3760016739959866E-4; -2.1948098071732092E-5; -6.727705836101495E-5; -0.16162772242541787; 0.006761662311976134; 0.03130413703641087; 0.50439453125; -0.1875; -0.200927734375;0
58;2308987065; 0.9999999890665247; -1.3991700272153462E-4; -9.539913248261119E-6; -4.6895340213293224E-5; -0.16127599226841993; 0.00866867209418428; 0.030968872466059255; 0.5029296875; -0.1875; -0.197265625;0
59;2309003732; 0.9999999414102587; -3.2526369122654053E-4; -3.0149685515920222E-5; 1.0234259447844397E-4; -0.16181825933305613; 0.008893633086956593; 0.030652736412366946; 0.500244140625; -0.187744140625; -0.19775390625;0
60;2309020399; 0.9999998975654129; -4.3334863905436505E-4; -1.0676956412876937E-4; 7.53550316076046E-5; -0.16145749318501632; 0.006984623380286936; 0.030940935080608002; 0.50341796875; -0.183349609375; -0.197021484375;0
61;2309037066; 0.9999999322231043; -3.5787251212557325E-4; -8.639222810565006E-5; 4.1754809075866825E-6; -0.16213998558399295; 0.005504906461527091; 0.030655301400446172; 0.5029296875; -0.185546875; -0.1953125;0
62;2309053733; 0.9999999856244338; -1.5096929225671962E-4; -7.026156906531773E-5; -3.1979944463134125E-5; -0.16184502316999763; 0.006163928414651673; 0.02997204159499539; 0.5009765625; -0.185302734375; -0.197021484375;0
63;2309070400; 0.9999999801831938; -1.8994191295654272E-4; -5.960673214720596E-5; -1.649026562688949E-6; -0.1630699936905639; 0.007331328029353504; 0.03002877761148808; 0.5; -0.1865234375; -0.19580078125;0
64;2309087067; 0.9999999741048147; -1.8812409369250993E-4; -1.2806000595495806E-4; -5.747440754988453E-7; -0.16264098318795203; 0.006159095184666112; 0.02977070624385856; 0.50146484375; -0.185302734375; -0.197265625;0
65;2309103734; 0.9999999874439744; -9.792864605182028E-5; -1.2262052197865164E-4; 2.2050827281128175E-5; -0.1626753504283589; 0.0064271676859554774; 0.02935514129335511; 0.50341796875; -0.185302734375; -0.19580078125;0
66;2309120401; 0.999999992324714; -3.4642077335472754E-5; -1.1636683797516986E-4; 2.468314230791302E-5; -0.16197694172295712; 0.006217295995676435; 0.029521152116460416; 0.502685546875; -0.186279296875; -0.195068359375;0
67;2309137068; 0.9999999915524846; 6.145291176756773E-5; -1.1109702162224318E-4; 2.785717591774484E-5; -0.16162925806695233; 0.0063542127704192125; 0.02983829724634477; 0.50146484375; -0.185302734375; -0.197265625;0
68;2309153735; 0.9999999855319813; 1.422870094006934E-4; -8.651300279953306E-5; 3.472671246529391E-5; -0.16105448472913464; 0.006703970335414894; 0.02986411687915547; 0.50341796875; -0.18798828125; -0.196533203125;0
69;2309170402; 0.9999999829669037; 1.6700646302875155E-4; -6.0160428779697586E-5; 5.055448988022793E-5; -0.16145918283378424; 0.007470456605450745; 0.029629552431089487; 0.501708984375; -0.1884765625; -0.19677734375;0
70;2309187069; 0.9999999865828102; 1.4399895579414457E-4; -5.733427860351616E-5; 5.302320804201344E-5; -0.1618663792698268; 0.008060640975232167; 0.02939638563690692; 0.50341796875; -0.1865234375; -0.1962890625;0
71;2309203736; 0.9999999939799544; 9.112281578935177E-5; -4.0403226117596495E-5; 4.58726797495368E-5; -0.16238378363658862; 0.007921069355554491; 0.029925125059939793; 0.503173828125; -0.1884765625; -0.198486328125;0
72;2309220403; 0.9999999987930981; -1.2219812645319905E-5; -4.612495493589234E-5; 1.1703357577497187E-5; -0.1627018218835852; 0.00807149586818335; 0.03011880073594408; 0.50244140625; -0.18603515625; -0.19580078125;0
73;2309237070; 0.9999999720412863; -2.3266033216320925E-4; -3.622646788518577E-5; -2.1777039574122362E-5; -0.1627649709101712; 0.008262985673336824; 0.030211433812006062; 0.501953125; -0.186279296875; -0.197021484375;0
74;2309253737; 0.9999999191190653; -3.9849084451407113E-4; -2.6098321056178614E-5; -4.780990867925272E-5; -0.1621542916114133; 0.007313895289910992; 0.03002487161914178; 0.500732421875; -0.185791015625; -0.19287109375;0
75;2309270404; 0.9999998745467099; -4.948572118692318E-4; -1.6713195466736348E-5; -7.578636739841162E-5; -0.16240871920161087; 0.006459827710758412; 0.029929275057306304; 0.502685546875; -0.18798828125; -0.19287109375;0
76;2309287071; 0.999999898138023; -4.442850205680915E-4; -2.169077170088331E-5; -7.657855025144933E-5; -0.1619320521617686; 0.005769849865909039; 0.029744832742188212; 0.502685546875; -0.18310546875; -0.19580078125;0
77;2309303738; 0.9999999503406266; -3.077917254151741E-4; 1.4458147122546963E-5; -6.613592212639797E-5; -0.16182690408763903; 0.0056205813645058; 0.029562983504501882; 0.5009765625; -0.185302734375; -0.19384765625;0
78;2309320405; 0.999999983721498; -1.6844664966286782E-4; 1.121492972772434E-5; -6.369423336094471E-5; -0.16233134117036632; 0.005355423113370492; 0.029198889843069155; 0.50048828125; -0.18310546875; -0.193603515625;0
79;2309337072; 0.9999999943976727; -5.977675964813356E-5; -1.1861577623851692E-5; -8.654881007696959E-5; -0.16294546716115046; 0.005787694819475324; 0.02958074576783083; 0.50244140625; -0.1845703125; -0.19580078125;0
80;2309353739; 0.9999999931966334; -4.3117154130134505E-6; -4.458557383339897E-5; -1.077045442919311E-4; -0.16286057254247488; 0.005794869379575088; 0.029748451872891525; 0.5009765625; -0.183837890625; -0.19384765625;0
81;2309370406; 0.9999999892247387; 7.567788578011214E-5; -6.098979252868071E-5; -1.1001647766367696E-4; -0.16293751803808887; 0.0058004402732952445; 0.0298512663620223; 0.5029296875; -0.184814453125; -0.19189453125;0
82;2309387073; 0.9999999797375492; 1.44321531528796E-4; -8.670601803451723E-5; -1.1035516863217021E-4; -0.16283258515413968; 0.005943997422399559; 0.02991192470231788; 0.501220703125; -0.182373046875; -0.19384765625;0
83;2309403740; 0.999999970549072; 1.9044772231915919E-4; -1.1384569197885921E-4; -9.833960929234166E-5; -0.16264890241330132; 0.005887289031755304; 0.02997715514253703; 0.501953125; -0.1845703125; -0.1953125;0
84;2309420407; 0.999999954115368; 2.47160820155079E-4; -1.4983577268688246E-4; -9.071952468281408E-5; -0.1621934606474541; 0.006285708788549907; 0.029984680931825547; 0.501220703125; -0.184814453125; -0.195068359375;0
85;2309437074; 0.9999999447287277; 2.771618168643242E-4; -1.6233682377678194E-4; -8.585234211122562E-5; -0.1621323848742232; 0.006998048380422298; 0.03009881604837443; 0.503173828125; -0.184326171875; -0.193115234375;0
86;2309453741; 0.9999999474404666; 2.3817221161409607E-4; -2.0205619177576797E-4; -8.698480894153704E-5; -0.1621121635059097; 0.007296915521574146; 0.03013525666041188; 0.50341796875; -0.185302734375; -0.19580078125;0
87;2309470408; 0.9999999546497107; 1.9435611161633393E-4; -2.0982913160858162E-4; -9.432928384006668E-5; -0.16244716993791367; 0.0070393315713411925; 0.03018322479003211; 0.501953125; -0.18408203125; -0.19189453125;0
88;2309487075; 0.9999999576774721; 1.712626447540888E-4; -2.126128482827332E-4; -1.0054818346394434E-4; -0.16192146813174815; 0.007179405216452911; 0.030306172173103402; 0.501220703125; -0.1845703125; -0.192626953125;0
89;2309503742; 0.9999999714934064; 9.853803701068142E-5; -2.0245215149498896E-4; -7.947684011799795E-5; -0.1619611488258742; 0.007343577504329145; 0.03041992719067746; 0.500732421875; -0.18115234375; -0.1962890625;0
90;2309520409; 0.9999999707435547; 7.991396538900575E-5; -2.0537237682312535E-4; -9.974384582767115E-5; -0.16177113189660416; 0.007020565087068283; 0.030538202479751413; 0.501220703125; -0.18359375; -0.1943359375;0
91;2309537076; 0.999999972139064; 4.507058406974518E-5; -2.12844824948856E-4; -9.15838098994315E-5; -0.16202153900810184; 0.006964309727477129; 0.030527889180189262; 0.50244140625; -0.181884765625; -0.19677734375;0
92;2309553743; 0.9999999726850625; 1.1879139116960369E-5; -2.1453961785312776E-4; -9.198648039726587E-5; -0.1619196696769442; 0.006586939286314118; 0.030356603408093034; 0.501220703125; -0.185302734375; -0.198486328125;0
93;2309570410; 0.999999968637385; 1.6006046743649582E-5; -2.293069234876651E-4; -9.943525655653486E-5; -0.16202649735223532; 0.0063906087919810214; 0.030346100309345637; 0.502197265625; -0.183349609375; -0.199951171875;0
94;2309587077; 0.999999970928441; 3.3626388971141896E-5; -2.1596956829386327E-4; -1.0183088302018195E-4; -0.16170336820226455; 0.006442635258547727; 0.030379155122253615; 0.50244140625; -0.181396484375; -0.196533203125;0
95;2309603744; 0.9999999744328684; 7.19849802539585E-5; -1.9092467205809353E-4; -9.746894292178566E-5; -0.16155473702932058; 0.006369384296496874; 0.030252023490975354; 0.5009765625; -0.182861328125; -0.1962890625;0
96;2309620411; 0.9999999719089773; 1.3045599038893907E-4; -1.6358124267621887E-4; -1.1137529498761456E-4; -0.1614847406850729; 0.006386834236335605; 0.030118481435479925; 0.50048828125; -0.1826171875; -0.199462890625;0
97;2309637078; 0.9999999627827062; 1.6672487917945844E-4; -1.8301336913399344E-4; -1.1464513702619251E-4; -0.16204790641235617; 0.0066179714795857325; 0.029961530077586868; 0.50146484375; -0.181884765625; -0.2001953125;0
98;2309653745; 0.9999999614971021; 1.5552653361161628E-4; -2.145207522447207E-4; -8.245082412006166E-5; -0.16200569793674843; 0.0063269528886550075; 0.029951499164425514; 0.5009765625; -0.182861328125; -0.199462890625;0
99;2309670412; 0.9999999476911139; 2.3918165161368465E-4; -2.1310099137423005E-4; -4.46975895501689E-5; -0.1619172883737692; 0.0062288962145147855; 0.029863535038430637; 0.501220703125; -0.179931640625; -0.200927734375;0
100;2309687079; 0.9999999383584929; 2.6297547801490406E-4; -2.322535820537368E-4; -1.3608156392008741E-5; -0.16221624537734783; 0.0065821254231588425; 0.030036150984661485; 0.50390625; -0.184326171875; -0.19970703125;0
101;2309703746; 0.9999999438627306; 2.3328355879115303E-4; -2.4052716369630384E-4; -1.8731930007120926E-8; -0.16202983697647863; 0.00582563666056439; 0.030392874385314492; 0.502197265625; -0.1845703125; -0.197509765625;0
102;2309720413; 0.9999999372749907; 2.5612017515913577E-4; -2.4201310379967994E-4; 3.5806817791361745E-5; -0.1615572197405102; 0.005193215938055135; 0.030574244772676014; 0.499755859375; -0.18310546875; -0.198486328125;0
103;2309737080; 0.9999998898500773; 4.180417042875251E-4; -2.0256668615155351E-4; 6.713943916780708E-5; -0.16115429660311897; 0.0051256437565839474; 0.030527045083793655; 0.49853515625; -0.18115234375; -0.20263671875;0
104;2309753747; 0.9999998018952571; 6.047749050754614E-4; -1.5091366413251715E-4; 8.764603057193066E-5; -0.16188171993730915; 0.005398273488738441; 0.030337930013938225; 0.49951171875; -0.1845703125; -0.20166015625;0
105;2309770414; 0.9999998005624191; 6.150403625657386E-4; -1.3791223485472466E-4; 3.975789043292322E-5; -0.16255984990110012; 0.007284750290006546; 0.030388814354172778; 0.50048828125; -0.185302734375; -0.203369140625;0
106;2309787081; 0.9999998978822268; 4.246565961407711E-4; -1.5410874477570643E-4; -1.2361472276178898E-5; -0.16262534516763363; 0.008193181350113862; 0.0305299657251654; 0.500732421875; -0.183349609375; -0.204345703125;0
107;2309803748; 0.9999999641902604; 2.0836013512312568E-4; -1.6616373585317398E-4; -2.4395589560521905E-5; -0.16251999333828654; 0.0077228519610366905; 0.030531162271202783; 0.5; -0.186767578125; -0.205078125;0
108;2309820415; 0.9999999736110526; 1.2674726512376666E-4; -1.9138174395623086E-4; -9.27645666976007E-6; -0.16195200173747384; 0.006872181856431105; 0.03084512175611792; 0.4951171875; -0.1845703125; -0.20556640625;0
109;2309837082; 0.9999999684584729; 1.716135067690583E-4; -1.79245424290448E-4; 3.876770826677368E-5; -0.161307481270752; 0.005649934027274914; 0.03063582391746457; 0.49951171875; -0.184814453125; -0.204345703125;0
110;2309853749; 0.9999999405044333; 3.033303724728209E-4; -1.4583993951136807E-4; 7.558126055556835E-5; -0.1613117011021235; 0.0054716096929677965; 0.03057568653865498; 0.498291015625; -0.18701171875; -0.205322265625;0
111;2309870416; 0.9999998995017982; 4.2174771275721445E-4; -1.1482188815389178E-4; 9.970553705124231E-5; -0.16136125769212595; 0.006141988079063153; 0.030623837694675186; 0.499267578125; -0.186767578125; -0.207763671875;0
112;2309887083; 0.9999998710722721; 4.8698281122105946E-4; -9.540864431086851E-5; 1.0770502006840488E-4; -0.16186926763803083; 0.006690087100831868; 0.03042194274974123; 0.49951171875; -0.18798828125; -0.206787109375;0
113;2309903750; 0.9999998558063047; 5.159289737838857E-4; -1.0246837201083672E-4; 1.0818917067040303E-4; -0.1619951432452792; 0.0067460484674949014; 0.030465357150012026; 0.49755859375; -0.1904296875; -0.207275390625;0
114;2309920417; 0.9999998298072013; 5.540627147607446E-4; -1.4082987925840773E-4; 1.1647755914689917E-4; -0.16223179815433578; 0.006978352581018053; 0.03051990703583622; 0.4970703125; -0.187744140625; -0.20849609375;0
115;2309937084; 0.9999998061055017; 5.777342010483688E-4; -1.724523394991129E-4; 1.557958367074397E-4; -0.16188014496272904; 0.006778235307114008; 0.030622884927655754; 0.496337890625; -0.19384765625; -0.208984375;0
116;2309953751; 0.9999997557053879; 6.516566838852822E-4; -1.7585988293268923E-4; 1.816756242967732E-4; -0.16158122008944176; 0.006885255506678213; 0.030481969830219238; 0.500732421875; -0.193603515625; -0.210693359375;0
117;2309970418; 0.99999974488088; 6.690160369134113E-4; -1.548312246850321E-4; 1.9667996681443925E-4; -0.1616915496641426; 0.007201050551637521; 0.031123002430098985; 0.499267578125; -0.19287109375; -0.211669921875;0
118;2309987085; 0.9999997293494449; 6.985154390743986E-4; -1.1915340936161785E-4; 1.9793858476679915E-4; -0.16109604606149433; 0.007432821735631104; 0.03152232794741181; 0.49853515625; -0.19189453125; -0.210693359375;0
119;2310003752; 0.9999997731485577; 6.426615422846782E-4; -7.665647862866583E-5; 1.8658177707553405E-4; -0.1611435412380904; 0.008216389975450822; 0.031712736039768104; 0.498291015625; -0.1953125; -0.211181640625;0
120;2310020419; 0.9999998422574533; 5.3477266688709E-4; -3.874828424566338E-5; 1.673374842220965E-4; -0.16146531785720286; 0.009016102284630005; 0.031639600096512926; 0.49755859375; -0.200927734375; -0.21142578125;0
121;2310037086; 0.9999999362058172; 3.1635575971053487E-4; -5.1274598014405814E-5; 1.5772859681778553E-4; -0.1618967583223524; 0.009710968656244386; 0.031547540077337524; 0.496826171875; -0.197265625; -0.21142578125;0
122;2310053753; 0.999999985596445; 7.165220518456916E-5; -8.372130698477977E-5; 1.290883960856637E-4; -0.1621643928652124; 0.009600845283844646; 0.031248734257627565; 0.496826171875; -0.19677734375; -0.214111328125;0
123;2310070420; 0.9999999801599129; -8.84656885077606E-5; -1.0761241540300366E-4; 1.423852652470692E-4; -0.16220282103101002; 0.009167909230784553; 0.031146614817829647; 0.4990234375; -0.2001953125; -0.209716796875;0
124;2310087087; 0.9999999606194981; -1.963108162190974E-4; -1.2630599737371853E-4; 1.5578787094000512E-4; -0.16201455484232546; 0.008413073689068726; 0.031008199679383158; 0.496337890625; -0.196044921875; -0.2109375;0
125;2310103754; 0.9999999479479523; -2.5537689974117206E-4; -1.1448977736075797E-4; 1.6055784815466326E-4; -0.1618166092178965; 0.007580705185184; 0.030895176620458806; 0.49853515625; -0.20068359375; -0.213134765625;0
126;2310120421; 0.999999952978097; -2.549684251297313E-4; -1.1821020301411649E-4; 1.2272430094412146E-4; -0.16208280542442222; 0.007143731887847574; 0.03106101709309066; 0.4970703125; -0.198486328125; -0.21337890625;0
127;2310137088; 0.9999999624569436; -2.093619039079675E-4; -1.3429024548979043E-4; 1.1497753986827731E-4; -0.1619780072594761; 0.006264143378316649; 0.03064433778243224; 0.49462890625; -0.196044921875; -0.21337890625;0
128;2310153755; 0.9999999794862425; -8.486861640727428E-5; -1.6200339109489692E-4; 8.706166588934305E-5; -0.16204229517957616; 0.006230672855834091; 0.03092543156693737; 0.49609375; -0.197021484375; -0.213134765625;0
129;2310170422; 0.9999999835102051; 5.020555916002145E-6; -1.6738602703224303E-4; 7.025881811367764E-5; -0.1622638000643288; 0.006382334372366093; 0.030840440997308576; 0.5; -0.19677734375; -0.212646484375;0
130;2310187089; 0.9999999819837616; 8.204426292446332E-5; -1.6549798369158017E-4; 4.372222144721771E-5; -0.16241584285274407; 0.006747527030475126; 0.030552170407694153; 0.49951171875; -0.195068359375; -0.2119140625;0
131;2310203756; 0.9999999803382661; 7.270404631298799E-5; -1.8154112079539836E-4; 3.286959733717066E-5; -0.16272631898100703; 0.007633169054787919; 0.03063008672180397; 0.49755859375; -0.19970703125; -0.2138671875;0
132;2310220423; 0.9999999781437574; -1.1225808272785631E-5; -2.0783913519364583E-4; 1.973219758322209E-5; -0.16271322750348696; 0.007873794329472883; 0.030503274850484256; 0.497314453125; -0.1982421875; -0.2138671875;0
133;2310237090; 0.9999999726382115; -9.09225125501345E-5; -2.1540909888704066E-4; 7.45606504432006E-6; -0.16258935411903586; 0.007870169830520538; 0.030724305441104334; 0.4970703125; -0.197265625; -0.2158203125;0
134;2310253757; 0.9999999449158228; -2.244729591211747E-4; -2.437067001277542E-4; -1.9679588712850915E-5; -0.1625243235200774; 0.007674720450409851; 0.030821060514515962; 0.496337890625; -0.197021484375; -0.214599609375;0
135;2310270424; 0.9999999082724811; -3.453059845809625E-4; -2.510777958306919E-4; -3.43328815596844E-5; -0.16230610295908812; 0.007309377397401118; 0.030680136235263077; 0.495849609375; -0.200439453125; -0.216552734375;0
136;2310287091; 0.9999998978607415; -3.7149460907412446E-4; -2.5493286746020033E-4; -3.577003307819737E-5; -0.1623369486802793; 0.006116066589574115; 0.03072287542166803; 0.49658203125; -0.193115234375; -0.215576171875;0
137;2310303758; 0.9999999334455595; -2.6241730218357073E-4; -2.488780119456746E-4; -4.8018449315567764E-5; -0.1624707481002753; 0.005585344111850257; 0.03070908825410245; 0.496826171875; -0.19580078125; -0.216064453125;0
138;2310320425; 0.9999999662735102; -1.2118221316215205E-4; -2.203645402436734E-4; -6.486385218890112E-5; -0.16260533510525677; 0.006158928480672239; 0.030757329442986016; 0.495849609375; -0.1953125; -0.2138671875;0
139;2310337092; 0.9999999668933724; -1.245167846370132E-4; -2.0427945417499443E-4; -9.475615484588752E-5; -0.1631821461683092; 0.00680679872217612; 0.031094260420918868; 0.494873046875; -0.19677734375; -0.215087890625;0
140;2310353759; 0.999999948362006; -1.6487301851092484E-4; -2.345395400998006E-4; -1.4520357103658954E-4; -0.16356885397077023; 0.007127585953785327; 0.031641805765059546; 0.497314453125; -0.196044921875; -0.2158203125;0
141;2310370426; 0.9999999014004513; -2.6707822236488044E-4; -3.014934195249286E-4; -1.8700275088173737E-4; -0.16392777428843577; 0.007489202482011237; 0.031639434261444346; 0.496826171875; -0.19384765625; -0.21728515625;0
142;2310387093; 0.9999998521058772; -3.230051222836705E-4; -3.979452285313157E-4; -1.8192171288139436E-4; -0.1634864754706564; 0.006944630490945153; 0.03139723083377748; 0.49462890625; -0.19189453125; -0.216552734375;0
143;2310403760; 0.9999998451602095; -3.0480003283331336E-4; -4.39985052907016E-4; -1.5228148374313302E-4; -0.16290179716696782; 0.006115568870852468; 0.03122753418089593; 0.49462890625; -0.18994140625; -0.216064453125;0
144;2310420427; 0.9999998682381991; -2.1221294918774558E-4; -4.4351878568745304E-4; -1.4758162344236103E-4; -0.16250105739528836; 0.005541946978195156; 0.031257530761535535; 0.497802734375; -0.18896484375; -0.22021484375;0
145;2310437094; 0.9999999009266187; -9.609717112368799E-5; -4.1235979274257054E-4; -1.3737353374720931E-4; -0.16217994492230797; 0.005807972584766473; 0.03164876706458877; 0.49658203125; -0.19091796875; -0.21728515625;0
146;2310453761; 0.9999999045561191; -5.677158353004086E-5; -3.900434550451332E-4; -1.884962684708391E-4; -0.1629660745423726; 0.006313542621054331; 0.03145655931244408; 0.49267578125; -0.190185546875; -0.218017578125;0
147;2310470428; 0.9999998994300295; -7.980859682718555E-5; -3.622887898699808E-4; -2.5202648971406344E-4; -0.16282666840103546; 0.005966114812708749; 0.03170594404684964; 0.494384765625; -0.187255859375; -0.21875;0
148;2310487095; 0.999999885764311; -3.8355604636358676E-5; -3.5996052818101926E-4; -3.121355965851058E-4; -0.16192666273299514; 0.0058619322442338; 0.03155364965310235; 0.496337890625; -0.18701171875; -0.216064453125;0
149;2310503762; 0.9999998804607184; -7.564339751442439E-5; -3.575633069835375E-4; -3.2481549644863833E-4; -0.16143032020944464; 0.005652462753709876; 0.031774913254935366; 0.49462890625; -0.1875; -0.219482421875;0
150;2310520429; 0.9999998797261076; -8.213124210323941E-5; -3.2837314136361517E-4; -3.549271888442229E-4; -0.16011905495923662; 0.00532174896771611; 0.03154050620512226; 0.492919921875; -0.18603515625; -0.219482421875;0
151;2310537096; 0.9999999079677591; -7.358819995992305E-5; -2.8163162756454646E-4; -3.151711863767504E-4; -0.15963812864317906; 0.004907620036574502; 0.031228318186989484; 0.493408203125; -0.185546875; -0.218994140625;0
152;2310553763; 0.999999935317491; 6.528438464623032E-5; -2.0136607970369302E-4; -2.9078284840494684E-4; -0.15981675811855417; 0.004147012861915961; 0.03106320366938799; 0.49462890625; -0.185791015625; -0.218505859375;0
153;2310570430; 0.9999999247929311; 2.4693209381360104E-4; -9.31051057140031E-5; -2.8420083130537016E-4; -0.1597615935605715; 0.004362565965715666; 0.030529937845056872; 0.4951171875; -0.1845703125; -0.21826171875;0
154;2310587097; 0.9999999168353524; 3.133966029369162E-4; -1.1231556999512922E-5; -2.60740694474515E-4; -0.16015526008433784; 0.005057397140659649; 0.030641507604748985; 0.49267578125; -0.183349609375; -0.218994140625;0
155;2310603764; 0.9999999165445621; 3.316334781214292E-4; 1.39090906982782E-5; -2.3819454681245358E-4; -0.1601709319389197; 0.004599306824521629; 0.03098082675231595; 0.4921875; -0.18359375; -0.217041015625;0
156;2310620431; 0.999999871949652; 4.297118781343978E-4; 1.3316908118999468E-4; -2.31763623503356E-4; -0.15929094164291033; 0.004727317384702945; 0.03158578308753235; 0.49365234375; -0.18505859375; -0.22021484375;0
157;2310637098; 0.9999998455089649; 4.618072777561322E-4; 2.2553081205098705E-4; -2.1178275964789386E-4; -0.16143175778492896; 0.00484110585478776; 0.03246926453400657; 0.49072265625; -0.186767578125; -0.22021484375;0
158;2310653765; 0.9999998421590132; 4.2950364478805403E-4; 2.5615287666472605E-4; -2.561137866886054E-4; -0.16218296060459536; 0.005411637654383086; 0.032856068763811544; 0.494140625; -0.186767578125; -0.2177734375;0
159;2310670432; 0.9999998753186488; 2.870426495570899E-4; 2.916528461200351E-4; -2.8619542587726704E-4; -0.16200524365199137; 0.00560912213690052; 0.03346996831752588; 0.49365234375; -0.185546875; -0.220458984375;0
160;2310687099; 0.9999999004579667; 1.2168652072586106E-4; 3.00092767250966E-4; -3.069540328191067E-4; -0.1616305783230244; 0.005688605364581767; 0.033487764984317554; 0.494873046875; -0.185791015625; -0.217041015625;0
161;2310703766; 0.9999999106421115; 3.1920203717311635E-5; 3.1182884025167737E-4; -2.836540924445741E-4; -0.16104134576022547; 0.0052711688532075945; 0.03302224208126921; 0.494873046875; -0.18896484375; -0.21630859375;0
162;2310720433; 0.9999999199446435; 2.1867448358137143E-5; 3.282683290733689E-4; -2.2775518729328814E-4; -0.1612305202038407; 0.004445465057860122; 0.032572246722084926; 0.49462890625; -0.186279296875; -0.212890625;0
163;2310737100; 0.9999999143451977; 1.826090556081017E-4; 3.222324134430147E-4; -1.847425279437043E-4; -0.16140516295368418; 0.003955414000154658; 0.032145331241172366; 0.496337890625; -0.186279296875; -0.21337890625;0
164;2310753767; 0.9999998536333036; 4.208852598105717E-4; 3.2137915762655433E-4; -1.109252289357987E-4; -0.16114257265619794; 0.004042328027061906; 0.03191522209983822; 0.49560546875; -0.18603515625; -0.212158203125;0
165;2310770434; 0.999999745874714; 6.344470281992587E-4; 3.2484277058527494E-4; -1.430560342713383E-5; -0.1609149171534769; 0.0040229572435809685; 0.03145789460923601; 0.497314453125; -0.18994140625; -0.21484375;0
166;2310787101; 0.9999994925079629; 9.524068064815094E-4; 3.203114355126193E-4; 7.284007086511002E-5; -0.16056419608760217; 0.0037257365252950717; 0.03137611829531351; 0.49658203125; -0.19189453125; -0.211669921875;0
167;2310803768; 0.9999991209913968; 0.0012870211821212618; 2.672934495912133E-4; 1.7362926720748686E-4; -0.16165985062607213; 0.003590792704720215; 0.03129251536464362; 0.49609375; -0.190673828125; -0.21435546875;0
168;2310820435; 0.9999986936039308; 0.0015865807971931212; 1.8163589333758046E-4; 2.501203867191215E-4; -0.16266684992009722; 0.0035252243762197433; 0.03097414274412584; 0.496337890625; -0.19775390625; -0.21484375;0
169;2310837102; 0.9999981049084027; 0.001917946079279087; 1.0493790648723189E-4; 3.17254591695515E-4; -0.16307013112367386; 0.003712215829367621; 0.03154144890431079; 0.4951171875; -0.195556640625; -0.216064453125;0
170;2310853769; 0.9999979571767873; 0.0019917280054604636; 5.5033828175017625E-5; 3.400486469181674E-4; -0.1638680195599764; 0.003560400331163373; 0.03171501114286002; 0.495361328125; -0.200439453125; -0.216796875;0
171;2310870436; 0.9999980096909598; 0.0019740697394963203; -4.566155429812369E-5; 2.8561828589512844E-4; -0.1662527985353135; 2.414164043505057E-4; 0.03213086729211916; 0.497314453125; -0.205810546875; -0.219482421875;0
172;2310887103; 0.9999966023737069; 0.0025979624888229635; -1.1764026262954878E-4; 1.7886508194731032E-4; -0.1665780283901788; -0.006441826431431326; 0.0318374582134108; 0.49658203125; -0.208740234375; -0.223876953125;0
173;2310903770; 0.9999912581252849; 0.004178172634451804; 1.6250768852502442E-4; 1.1734470612256855E-5; -0.16463075868261268; -0.010892378206178222; 0.03012008552872867; 0.49560546875; -0.21630859375; -0.222900390625;0
174;2310920437; 0.9999844496026227; 0.005568414088310214; 1.0759932485647843E-4; -2.859018467890606E-4; -0.1682729986276053; -0.014847128678322802; 0.02964904620894882; 0.494384765625; -0.219970703125; -0.2255859375;0
175;2310937104; 0.9999735033779699; 0.007214289198212681; 5.779975204317154E-5; -9.712015971876099E-4; -0.16998244234539264; -0.02571075811678315; 0.025592813436518636; 0.496826171875; -0.231689453125; -0.23046875;0
176;2310953771; 0.9999547251098547; 0.009157548988663028; -2.2302651391876985E-4; -0.002576293106200167; -0.17172752379579687; -0.04246380729145732; 0.01878892568069948; 0.49560546875; -0.23876953125; -0.235107421875;0
177;2310970438; 0.9999116410204218; 0.012141818765564139; 7.610720341701127E-5; -0.005411154830982535; -0.17142376807720514; -0.06873606882529495; 0.012402214140352225; 0.492919921875; -0.250732421875; -0.24169921875;0
178;2310987105; 0.9998468917956674; 0.014733431588701773; 8.962547379541761E-4; -0.009397642662320072; -0.17196634134654512; -0.08852435980588311; 0.006497011705143121; 0.496337890625; -0.255126953125; -0.240478515625;0
179;2311003772; 0.9997783055482661; 0.01605680013689556; 0.0020390913698738263; -0.013467034966432425; -0.16809790342615788; -0.09559033988593123; 0.004663144612763998; 0.501708984375; -0.264892578125; -0.236083984375;0
180;2311020439; 0.9997642105226177; 0.013826272215378493; 0.002995219347051548; -0.016473803925519226; -0.17011834921618538; -0.09014691060458621; 0.010479949447657688; 0.502197265625; -0.26025390625; -0.22705078125;0
181;2311037106; 0.9997934046056988; 0.00825447402258589; 0.0029542358157136593; -0.018338054866896273; -0.1734711996582981; -0.09569829483782903; 0.02102429438219547; 0.506103515625; -0.250732421875; -0.207275390625;0
182;2311053773; 0.9997855542809989; 0.001635112224991575; 0.0026913093793087058; -0.02046774811434715; -0.16597421438825027; -0.1382301313128122; 0.037136970972626235; 0.5107421875; -0.226318359375; -0.1875;0
183;2311070440; 0.9996921152069497; 4.0316078339003303E-4; 0.003486470455689105; -0.02456332180709986; -0.17995543125241184; -0.19333648310762955; 0.06087639695695521; 0.51318359375; -0.19287109375; -0.16357421875;0
184;2311087107; 0.9995657415233152; 0.003940055206953952; 0.0035066678851131375; -0.02899150941663109; -0.22469641193091072; -0.21419172777587897; 0.08298968254252723; 0.513427734375; -0.155029296875; -0.129638671875;0
185;2311103774; 0.9994690930578585; 0.008408727445825825; 0.003758022858142333; -0.0312522413442834; -0.2621703997098321; -0.2253827549764037; 0.09262454273998683; 0.513916015625; -0.116455078125; -0.106689453125;0
186;2311120441; 0.9992665639884951; 0.02022009121926055; 0.004702840361513072; -0.0321770927562709; -0.2964706424671976; -0.24444779875015343; 0.08585027919031124; 0.511474609375; -0.087646484375; -0.0869140625;0
187;2311137108; 0.9987249014437959; 0.038663324035122515; 0.0020896086406599567; -0.03239370535094977; -0.3340121354659293; -0.21885810531201255; 0.0793522102839418; 0.509033203125; -0.075927734375; -0.087158203125;0
188;2311153775; 0.9984393791258805; 0.045653712744092356; -0.0016787737243112012; -0.03212049878486711; -0.34470061813289055; -0.11480654157023162; 0.11048514820931081; 0.501220703125; -0.077392578125; -0.10791015625;0
189;2311170442; 0.9987485486677294; 0.03868050537501838; -0.00888628348586798; -0.030433353476836015; -0.3543271203464907; -0.02789773497416287; 0.1628919581778998; 0.490478515625; -0.07470703125; -0.137451171875;0
190;2311187109; 0.9990437045299912; 0.030302588743014724; -0.016543356191093653; -0.02682809945556841; -0.3570733665993887; -0.03410444482106108; 0.19559088447825154; 0.470458984375; -0.061767578125; -0.178466796875;0
191;2311203776; 0.9989771142100574; 0.031280039343443686; -0.022846109145937193; -0.0233310891325394; -0.3587347000776302; -0.08508295542920007; 0.1990027491065039; 0.4482421875; -0.049072265625; -0.23291015625;0
192;2311220443; 0.9986496792293541; 0.03943334054257463; -0.027926260092461408; -0.019077573902613835; -0.35161952934446744; -0.07572690190641695; 0.18677355360822118; 0.416748046875; -0.052490234375; -0.306396484375;0
193;2311237110; 0.9983830235356399; 0.04411924392832332; -0.0334762933666492; -0.012812822228422784; -0.3448227846050559; -0.006988404781616678; 0.16397896030099157; 0.3759765625; -0.079345703125; -0.3984375;0
194;2311253777; 0.9983650502845471; 0.04153640370604987; -0.03886267737763733; -0.005625463940263309; -0.3350221160153334; 0.052224513198700355; 0.12926017388142008; 0.32568359375; -0.1123046875; -0.499267578125;0
195;2311270444; 0.9984708661337467; 0.03491479229927694; -0.042857004216861345; 4.0490786581409704E-4; -0.3158092892216634; 0.07326134727829553; 0.09343629823874065; 0.265869140625; -0.1484375; -0.59619140625;0
196;2311287111; 0.9985360595293368; 0.02928172637085255; -0.0451703024967054; 0.005287919508043026; -0.2913821870936403; 0.07107641613717647; 0.066224770188626; 0.1943359375; -0.181884765625; -0.685302734375;0
197;2311303778; 0.9985286427802325; 0.026936623587748537; -0.04588744838625447; 0.010455139298816475; -0.26468642660005576; 0.06419242853126775; 0.047111463440062715; 0.116943359375; -0.216064453125; -0.7685546875;0
198;2311320445; 0.9985174206722243; 0.02508095552160597; -0.045704242802746715; 0.015653385385887342; -0.24499348728977705; 0.07010560564999252; 0.028994366377729563; 0.0283203125; -0.249267578125; -0.840576171875;0
199;2311337112; 0.9985618892647635; 0.020905307331408163; -0.04503071077468152; 0.020232560898031163; -0.2256421052049824; 0.07908437880451709; 0.011747296706329707; -0.06396484375; -0.280517578125; -0.900390625;0
200;2311353779; 0.998659231296195; 0.014397410155463641; -0.04391696044881469; 0.023318552970658657; -0.20378928702842242; 0.07860388999301322; 0.004048495243016079; -0.160400390625; -0.29443359375; -0.945068359375;0
201;2311370446; 0.9987476337313117; 0.007922841194810959; -0.04236989460044874; 0.025400486905850454; -0.18355853728157667; 0.06429727903107957; -6.139074583870197E-4; -0.25537109375; -0.296630859375; -0.971435546875;0
202;2311387113; 0.9988045996192082; 0.003976838235529689; -0.04015041929612693; 0.02759529611196382; -0.16190773444776713; 0.04325525026810975; -0.00661897720921336; -0.348388671875; -0.286865234375; -0.992919921875;0
203;2311403780; 0.9988366971004083; 0.0032264432879488547; -0.03734925142366833; 0.030329457749000147; -0.1472294244959364; 0.020048554485011888; -0.015057835100278999; -0.436279296875; -0.264404296875; -0.99755859375;0
204;2311420447; 0.9988504966406628; 0.004604869667033773; -0.03420926355952817; 0.03325968765285242; -0.127772950017855; 0.004379669902131997; -0.026262058527601613; -0.522705078125; -0.24365234375; -0.9921875;0
205;2311437114; 0.9988771134976799; 0.007405530255177928; -0.030532450733754102; 0.03546039628054982; -0.09984140000519759; -0.0070164959097549495; -0.03490858095187268; -0.60302734375; -0.22265625; -0.97412109375;0
206;2311453781; 0.9989232143741942; 0.010364630126359908; -0.026516064359684653; 0.03663174248578238; -0.06755075485911725; -0.012829525682408575; -0.036043594737977594; -0.67578125; -0.19970703125; -0.951904296875;0
207;2311470448; 0.9989866299982766; 0.012626017735845707; -0.022381587215374258; 0.03695079585801992; -0.04099217891819465; -0.009907325305244042; -0.034711831098643384; -0.73583984375; -0.178466796875; -0.929931640625;0
208;2311487115; 0.9990292536533228; 0.01489000907436433; -0.01819713359670067; 0.03725187650996649; -0.026578547197796485; -0.008773710136661155; -0.027261101676538273; -0.788818359375; -0.15625; -0.90087890625;0
209;2311503782; 0.9990566123915801; 0.016989056261239477; -0.014406181409605923; 0.03727893696453704; -0.02817322253275401; -0.0037479382074065027; -0.022239123736129202; -0.836181640625; -0.1328125; -0.875244140625;0
210;2311520449; 0.9990861867729512; 0.018265242933151626; -0.011221201811570882; 0.036976437497147074; -0.035358898706276384; 0.0033182488382154183; -0.02573277873392551; -0.872802734375; -0.11083984375; -0.84228515625;0
211;2311537116; 0.9991243771640348; 0.01828679080515555; -0.008306508626161948; 0.03670250881168161; -0.03906190911383452; 0.0017105688696681769; -0.032368678937985715; -0.9013671875; -0.080810546875; -0.817138671875;0
212;2311553783; 0.9991684877603756; 0.017908148701248516; -0.004643069668033185; 0.036332811352769764; -0.029467678244118646; -0.01134189008886325; -0.034140433627850554; -0.925537109375; -0.051025390625; -0.79248046875;0
213;2311570450; 0.999217039493909; 0.017389953183513884; -2.730879955346044E-4; 0.035536220061363845; -0.01274347351116935; -0.019766023199737876; -0.029966132285050913; -0.9345703125; -0.019775390625; -0.769287109375;0
214;2311587117; 0.9992299349318752; 0.016927782764968535; 0.003930815052623383; 0.035178629872759964; -0.014330202021465857; -0.023685140352718476; -0.02456504078278421; -0.93896484375; 0.018798828125; -0.75390625;0
215;2311603784; 0.9992040038097327; 0.016111041395493075; 0.007609699506402391; 0.035691533858532014; -0.03126666978011615; -0.03477883749136815; -0.012806488417890663; -0.937744140625; 0.05419921875; -0.73974609375;0
216;2311620451; 0.999179999395438; 0.013177968292562958; 0.011821329393190862; 0.03641326861448074; -0.05201162657340476; -0.028960264306521703; 6.150519827515279E-4; -0.915771484375; 0.095458984375; -0.733642578125;0
217;2311637118; 0.9991805150540198; 0.006145604259713194; 0.01605015664826437; 0.036645905040437944; -0.07446753681221148; -0.011233462031819727; 0.009740143706455965; -0.896728515625; 0.15185546875; -0.7236328125;0
218;2311653785; 0.9991708079392876; -0.003840129628622485; 0.019903989736785647; 0.03530978842962179; -0.08914084947311436; -0.025054356587786222; 0.017417061163494008; -0.85888671875; 0.2099609375; -0.711669921875;0
219;2311670452; 0.9991172396227153; -0.010521757069775178; 0.023688670902671797; 0.033058750546797806; -0.09307182967456513; -0.06756535513786702; 0.032579269969678123; -0.81005859375; 0.279541015625; -0.69140625;0
220;2311687119; 0.9990517451874819; -0.01098133238507798; 0.02834794376964395; 0.031167528951270396; -0.10388231681600928; -0.09501553654889448; 0.03815283617482754; -0.755615234375; 0.343017578125; -0.67236328125;0
221;2311703786; 0.998936811945484; -0.007866642145046981; 0.034329261100277786; 0.02974665550718889; -0.13728769227917736; -0.10010697610948456; 0.03271104350751625; -0.685791015625; 0.396240234375; -0.652099609375;0
222;2311720453; 0.9988061199317734; -0.004528727719002867; 0.03968993255612758; 0.028116448313628417; -0.1907410902145162; -0.09827098728126954; 0.03673167870439824; -0.6005859375; 0.435302734375; -0.638427734375;0
223;2311737120; 0.9988249039002919; -0.0022163747343333096; 0.04179818913089079; 0.024429703579617355; -0.241054042174158; -0.10930552054789121; 0.06076338171834072; -0.508056640625; 0.4619140625; -0.6259765625;0
224;2311753787; 0.9990040337437802; 0.001114666993340313; 0.04038737467987292; 0.018935629052592606; -0.24436573903672548; -0.12059535598704232; 0.08100834249412517; -0.419189453125; 0.470458984375; -0.617431640625;0
225;2311770454; 0.999009067036167; 0.006865001640128654; 0.04239987119480004; 0.011662189102934985; -0.21853348564966302; -0.1262217477572786; 0.06847664606011; -0.3349609375; 0.4638671875; -0.61083984375;0
226;2311787121; 0.9986381292856061; 0.015638966445514546; 0.04959572916798844; 0.004192029789573476; -0.2381187071342328; -0.1201939781059018; 0.04751719897781252; -0.24462890625; 0.429931640625; -0.617919921875;0
227;2311803788; 0.99803373465042; 0.025144991956703014; 0.05729581768979009; -0.0036855331352192993; -0.29739374249016515; -0.10803838426777324; 0.0405537923152874; -0.137451171875; 0.371337890625; -0.62353515625;0
228;2311820455; 0.9973815701590921; 0.03284769755463396; 0.06305452469459745; -0.013234771924050204; -0.35782380101508227; -0.09548859564023716; 0.04718756290552513; -0.02587890625; 0.28857421875; -0.623779296875;0
229;2311837122; 0.9966197248807035; 0.03827078459522053; 0.06871409364689404; -0.023724341075422376; -0.42755854777073576; -0.0906768969656292; 0.05733092643222739; 0.085205078125; 0.191162109375; -0.60546875;0
230;2311853789; 0.9959958654163438; 0.04315612596750998; 0.07047766711226282; -0.03409814222854368; -0.5173119427696508; -0.09948124337461961; 0.10087274730393224; 0.199462890625; 0.088134765625; -0.566162109375;0
231;2311870456; 0.9954416420885104; 0.050365545369297715; 0.06830799557668786; -0.043511685511807514; -0.5697380884317836; -0.11312133628090511; 0.12794957436381696; 0.296630859375; -0.01611328125; -0.4970703125;0
232;2311887123; 0.994920462660955; 0.057831161677566176; 0.0652898437661759; -0.050259984267035485; -0.6294026355591136; -0.10874286255582016; 0.14469841540988926; 0.384765625; -0.11376953125; -0.403564453125;0
233;2311903790; 0.9949038074968222; 0.05963903383270697; 0.05880877949890924; -0.056134899355713926; -0.6767381711976804; -0.09885856096093779; 0.19521070992835612; 0.456787109375; -0.19482421875; -0.296630859375;0
234;2311920457; 0.995581658663534; 0.05544445303803952; 0.0472167155085993; -0.05927609414139151; -0.6993713901453396; -0.0806639664038295; 0.26465760136934796; 0.507080078125; -0.234375; -0.1865234375;0
235;2311937124; 0.9963763633592787; 0.05353999901256118; 0.03167579834840827; -0.05800219688653641; -0.6765704742352794; -0.11609621742213354; 0.28661745487690465; 0.535888671875; -0.240966796875; -0.093017578125;0
236;2311953791; 0.9965686001483698; 0.0570912635041983; 0.015745206099146942; -0.05782474655982578; -0.6427180219621778; -0.08785138206821055; 0.2426528559660241; 0.547607421875; -0.224853515625; -0.036865234375;0
237;2311970458; 0.9967835044744404; 0.06188015407910907; 1.4227859876468196E-4; -0.05092613764658755; -0.598464513692069; -0.051991756851653054; 0.17984234280721828; 0.55029296875; -0.2041015625; -0.019775390625;0
238;2311987125; 0.996229114813926; 0.07470219712657045; -0.013470314440488773; -0.042020032965227605; -0.5489330399571365; -0.02625847956110411; 0.11591546946641818; 0.540771484375; -0.1953125; -0.0546875;0
239;2312003792; 0.9953398330886316; 0.08665166575744648; -0.026060426895406618; -0.03333106116798352; -0.5004998771373376; 0.0510487753665107; 0.05565801352655089; 0.523193359375; -0.213134765625; -0.12841796875;0
240;2312020459; 0.9948137165624547; 0.0923748532312598; -0.03619626175180036; -0.02241397922936561; -0.4156332627932555; 0.14341281771077077; 0.01838343535233808; 0.49169921875; -0.264404296875; -0.235107421875;0
241;2312037126; 0.995138352971385; 0.08843063650201685; -0.04220780474196584; -0.009908692754917016; -0.3160574954458854; 0.260092690982415; 0.007469924074938961; 0.450439453125; -0.34521484375; -0.357177734375;0
242;2312053793; 0.9964004477711808; 0.0701059674951861; -0.04758508226246922; 0.0026383610496922005; -0.24054427527381272; 0.35270756544198656; 0.03968686595417503; 0.393310546875; -0.4365234375; -0.4609375;0
243;2312070460; 0.9975308263447373; 0.044497004893339215; -0.052593367383467655; 0.013645686306489132; -0.20784705183592353; 0.3340774699329815; 0.06566578743728674; 0.319091796875; -0.497314453125; -0.5751953125;0
244;2312087127; 0.9979253721885639; 0.028513577747220298; -0.05432718003357102; 0.019506023069024048; -0.1821197642639483; 0.23018861429245496; 0.06791739441923271; 0.234619140625; -0.533203125; -0.674072265625;0
245;2312103794; 0.998010471254202; 0.023997279896819157; -0.05291462120927337; 0.024480046707440476; -0.18088903279482704; 0.1608454530891793; 0.07857201401868368; 0.138671875; -0.56689453125; -0.767578125;0
246;2312120461; 0.9978546028881848; 0.02504096344081319; -0.052085931975182416; 0.030760320789864987; -0.18534152233949935; 0.11704750149213689; 0.08437822579094911; 0.027587890625; -0.599853515625; -0.842529296875;0
247;2312137128; 0.9976017653656075; 0.030615929396259234; -0.04955333964857834; 0.03738782069470376; -0.15996388433842113; 0.10432585210488804; 0.07714694250498444; -0.089111328125; -0.641845703125; -0.899169921875;0
248;2312153795; 0.9975104282838493; 0.03245117529703889; -0.04513021468629392; 0.043395050514793754; -0.1510489474987447; 0.13016719724747708; 0.06660917505268271; -0.21484375; -0.68798828125; -0.937255859375;0
249;2312170462; 0.9975863090103331; 0.028861515164208984; -0.040274866593259406; 0.048646727931708274; -0.139938187423566; 0.1548872235072922; 0.05036243028907953; -0.34521484375; -0.72216796875; -0.952880859375;0
250;2312187129; 0.9978427533082124; 0.020837057983433604; -0.03432681573217012; 0.05193579119038011; -0.11151569334445374; 0.17427203955242035; 0.041216050625029144; -0.470703125; -0.7294921875; -0.95556640625;0
251;2312203796; 0.998129706906985; 0.010318592872392451; -0.029106513535500426; 0.05275818136287403; -0.10266631933669461; 0.174846472638142; 0.03972218222372467; -0.5869140625; -0.70654296875; -0.946044921875;0
252;2312220463; 0.9982991370235288; 5.399336300906388E-4; -0.025531225866234967; 0.05240894957466892; -0.11210634747413599; 0.152176428399813; 0.03731783955160359; -0.688720703125; -0.6533203125; -0.93017578125;0
253;2312237130; 0.998373179934276; -0.005536777923272507; -0.023324756118322076; 0.051732904714223545; -0.11023049489500658; 0.11533153580291472; 0.03133390325341909; -0.779052734375; -0.579833984375; -0.908447265625;0
254;2312253797; 0.9984640657638397; -0.007296293297749723; -0.02096451896474558; 0.05076182056460109; -0.09434392019053209; 0.0807414922689879; 0.024378662936299825; -0.85400390625; -0.498291015625; -0.87744140625;0
255;2312270464; 0.9985863024679345; -0.004536171718804272; -0.01794873034808162; 0.049826325857404825; -0.09123019861080599; 0.05425982499909324; 0.01717139644521808; -0.92626953125; -0.410888671875; -0.8359375;0
256;2312287131; 0.9986382700152353; -6.116366249035998E-4; -0.014652245036641006; 0.05006539001149628; -0.08642486803407312; 0.046893256533482794; 0.008817236534036588; -0.984619140625; -0.328125; -0.791748046875;0
257;2312303798; 0.9986647093287727; 0.0016023620558304197; -0.011031635391139577; 0.05044337218819681; -0.07829931930734813; 0.05434535817948351; 0.004948537274715515; -1.03173828125; -0.243408203125; -0.739501953125;0
258;2312320465; 0.9987108054437697; 3.7122924092508613E-4; -0.007361182913061149; 0.050223523022863176; -0.07941659300400086; 0.06548661099646037; 0.005895121656949894; -1.0625; -0.155517578125; -0.6875;0
259;2312337132; 0.9987446946949744; -0.0033778726884056143; -0.004655386970879639; 0.04975894057247086; -0.0882674445038966; 0.0629535049140946; 0.012497265122794915; -1.08349609375; -0.06005859375; -0.63525390625;0
260;2312353799; 0.9987499790913364; -0.00662973463665345; -0.0030043110585540327; 0.04945199691383592; -0.093277403504186; 0.04508862165080419; 0.021681105685002755; -1.090576171875; 0.033935546875; -0.577880859375;0
261;2312370466; 0.9987565079878848; -0.007475424375897877; -0.0015911048953294316; 0.04926483702863833; -0.08843526582632773; 0.025073047815322602; 0.02337331992793381; -1.0908203125; 0.1357421875; -0.519775390625;0
262;2312387133; 0.9987400664845345; -0.005967221509684484; 7.429462223523254E-4; 0.049820878121852985; -0.08085801325579056; 0.01706193260131583; 0.014337183021084426; -1.074951171875; 0.2314453125; -0.457763671875;0
263;2312403800; 0.9986636789725624; -0.0041469141710326896; 0.0025578584992842495; 0.05145013861733078; -0.07508421280560515; 0.009280805838681329; 0.010150270611447593; -1.051025390625; 0.325927734375; -0.39599609375;0
264;2312420467; 0.9986143284918122; -0.0026151403493814285; 0.004109338293021237; 0.05239940181522626; -0.0732983307520362; 0.004460906360636216; 0.005860977814376771; -1.019287109375; 0.4150390625; -0.336669921875;0
265;2312437134; 0.9985026840619332; 0.002072017939155013; 0.006219306416925308; 0.054308534232359824; -0.07615954234565192; 0.014235510346541726; -0.008210769478425254; -0.96875; 0.500244140625; -0.281982421875;0
266;2312453801; 0.9983565277704629; 0.007251867106125798; 0.009002635456103915; 0.056130263106673794; -0.07534474461593868; 0.022741490135366856; -0.020590214510225465; -0.903076171875; 0.57421875; -0.232177734375;0
267;2312470468; 0.9982234573495579; 0.013280583693489001; 0.012365546370773918; 0.05675075820469639; -0.07784024806551924; 0.015298993716950812; -0.01814879428065733; -0.8271484375; 0.636962890625; -0.199462890625;0
268;2312487135; 0.998051139471952; 0.02112874489188976; 0.016592984282929605; 0.05632203840965028; -0.06938990409135615; 0.01357825142742785; -1.1420619534338941E-4; -0.736328125; 0.68896484375; -0.18505859375;0
269;2312503802; 0.9979046911490463; 0.027869539780675023; 0.020834366981503316; 0.05454764236536803; -0.06940507394500878; 0.03481307323983243; 0.044774057194001016; -0.6318359375; 0.714111328125; -0.190673828125;0
270;2312520469; 0.9980727203003684; 0.027407883699329116; 0.021496312343691207; 0.05135719481211276; -0.09397690617177601; 0.07052686942836893; 0.11476536721950545; -0.52783203125; 0.724609375; -0.20654296875;0
271;2312537136; 0.9985573889615242; 0.018614650931673637; 0.017873851046833037; 0.04708674091281665; -0.11827347993519333; 0.0711648698655084; 0.18035549988214045; -0.4326171875; 0.72412109375; -0.21728515625;0
272;2312553803; 0.9989936013846551; 0.01059883371665754; 0.012420667024894862; 0.041775305468902846; -0.1192641163751519; 0.024978783666447568; 0.22518383911017; -0.350341796875; 0.72021484375; -0.21337890625;0
273;2312570470; 0.9992189901145038; 0.011068888570742064; 0.00821820259241307; 0.03703175186930519; -0.11570782645612182; -0.030265083718580513; 0.24878602476800643; -0.286865234375; 0.708984375; -0.203857421875;0
274;2312587137; 0.9992667105203453; 0.018692012120959778; 0.006159612890558886; 0.03284370712566814; -0.12542760833352729; -0.0538638158063023; 0.2958899225085122; -0.228515625; 0.693603515625; -0.220458984375;0
275;2312603804; 0.9993190158613853; 0.024187301696961205; 0.006088771237805935; 0.02719201793295795; -0.1291543964209453; -0.059392641134475566; 0.3463811985292916; -0.17626953125; 0.65966796875; -0.25537109375;0
276;2312620471; 0.9994628711571083; 0.02547056363377731; 0.0049487834134653306; 0.02001821943365248; -0.14093361691650866; -0.08239615023293079; 0.3913561451126739; -0.1318359375; 0.619140625; -0.29541015625;0
277;2312637138; 0.999479431377632; 0.028883329405461178; 0.0040100078049369325; 0.013803599998019141; -0.1333589193592279; -0.10927860299876734; 0.43058003233131287; -0.1044921875; 0.578125; -0.34521484375;0
278;2312653805; 0.9994528152893024; 0.03156497709593603; 0.0045394042975445146; 0.00878157388194184; -0.13500879154877235; -0.09925467931361348; 0.44460429676676644; -0.0791015625; 0.531982421875; -0.404052734375;0
279;2312670472; 0.9995429025110077; 0.029384971985486896; 0.003981922319665821; 0.0058867440850050865; -0.14844345163179493; -0.07529165487690538; 0.45151186635291035; -0.06298828125; 0.4775390625; -0.458251953125;0
280;2312687139; 0.9996930884314654; 0.02455025996130994; 0.0017904744097220762; 0.0027942583235206764; -0.1484385811343635; -0.05882685797534819; 0.4506177818015837; -0.05224609375; 0.433349609375; -0.505859375;0
281;2312703806; 0.9998384776259717; 0.01777251238824734; -0.0019312178718482453; -0.0018511778737929643; -0.16753648744367403; -0.04890162960885268; 0.43746970919187267; -0.047119140625; 0.399658203125; -0.540283203125;0
282;2312720473; 0.9998911314332115; 0.01076333720626721; -0.007602183672805408; -0.006639477148171952; -0.20146625796923665; -0.05640257713599625; 0.4124537272211075; -0.058349609375; 0.38134765625; -0.5693359375;0
283;2312737140; 0.9998266624561383; 0.008273972135504626; -0.013265947652341572; -0.010109453981566778; -0.21444177708958292; -0.08424485917977723; 0.3793717388886315; -0.08349609375; 0.3740234375; -0.590087890625;0
284;2312753807; 0.9996920229398867; 0.011236974174688164; -0.01812554500446645; -0.012690717081611042; -0.2180630939939815; -0.09969811028029683; 0.3406427352060153; -0.121337890625; 0.366455078125; -0.62353515625;0
285;2312770474; 0.9994883416784154; 0.01689795091572585; -0.022922587883226597; -0.014562591408005423; -0.2211667044428626; -0.09294087694492748; 0.2956331488902905; -0.1640625; 0.347900390625; -0.66650390625;0
286;2312787141; 0.9992177850051782; 0.02292267835499992; -0.02804523901113321; -0.015869263221306704; -0.22372598164957336; -0.08264762938468781; 0.25243721031367394; -0.221435546875; 0.31689453125; -0.71923828125;0
287;2312803808; 0.998879575840019; 0.02955042457195181; -0.03315240876117254; -0.016348797222221826; -0.22007246927976465; -0.07809172547592669; 0.20531650455466777; -0.290771484375; 0.265380859375; -0.7734375;0
288;2312820475; 0.9984519575678594; 0.037923630959712046; -0.037534663588507884; -0.01570463858350249; -0.21192208252497513; -0.07569060780052542; 0.1545641683517449; -0.36083984375; 0.199951171875; -0.836669921875;0
289;2312837142; 0.997928023156807; 0.04773168058021367; -0.04091616896408096; -0.013682630764533939; -0.20074178060373016; -0.07290631297580712; 0.10273072063402416; -0.444091796875; 0.107177734375; -0.890625;0
290;2312853809; 0.997291823541595; 0.058932043260465514; -0.0428632881191412; -0.00993838547462235; -0.18822804319829853; -0.06279442799895518; 0.05421357065475487; -0.531005859375; -0.012451171875; -0.940673828125;0
291;2312870476; 0.9967445811397756; 0.06813541491601241; -0.04290846823138029; -0.0040827143853948014; -0.1659576012588519; -0.028369879006157058; 0.014936199507448619; -0.6220703125; -0.156005859375; -0.963623046875;0
292;2312887143; 0.9966627187470578; 0.07016102129466154; -0.04161487741917853; 0.003009672407429692; -0.1327551864280912; 0.021496999352600073; -0.0020737148354467365; -0.712158203125; -0.2958984375; -0.961181640625;0
293;2312903810; 0.9971741404477976; 0.0630590737242884; -0.0397159473434367; 0.009483162438982786; -0.10207369742859573; 0.062001016267988526; -5.632691950031802E-4; -0.7978515625; -0.419189453125; -0.925048828125;0
294;2312920477; 0.9979723338438975; 0.04966521483360578; -0.03737796357469864; 0.013692156758696089; -0.08262095442628507; 0.08193776243687505; 0.007265060358156232; -0.879150390625; -0.49658203125; -0.8681640625;0
295;2312937144; 0.998744257347765; 0.03303271398782309; -0.03446289177820839; 0.015200569454588588; -0.07581914564738079; 0.08358286640267754; 0.007610504165716981; -0.948974609375; -0.548095703125; -0.804931640625;0
296;2312953811; 0.9992718466152741; 0.015210492240520623; -0.03189781707306084; 0.014385644020158864; -0.07637166346987069; 0.07055078823746995; 0.004077967722840339; -1.006591796875; -0.5556640625; -0.7451171875;0
297;2312970478; 0.9994772832064822; 0.0017117116843002878; -0.029837418555978767; 0.012327159089366659; -0.08305751853890414; 0.04358251962087614; -1.2751483496580332E-4; -1.0517578125; -0.55859375; -0.69140625;0
298;2312987145; 0.9995293729449086; -0.00691399973124629; -0.028069364037344727; 0.010263529150015216; -0.09163424693284089; 0.022381901497740348; -0.005918278195947543; -1.090087890625; -0.547607421875; -0.648193359375;0
299;2313003812; 0.9995349870207617; -0.01298602952005029; -0.026370006235942326; 0.008111444373619327; -0.09738792578597696; 0.014395974689034658; -0.013039765634408123; -1.1162109375; -0.53369140625; -0.610107421875;0
300;2313020479; 0.9995323137122417; -0.016547428652878476; -0.025155253513562462; 0.0053431891880363624; -0.10650668141828845; 0.011817368707656529; -0.01643690038335486; -1.14306640625; -0.52294921875; -0.572998046875;0
301;2313037146; 0.9995327685219407; -0.01892693467949469; -0.023957630114214368; 0.001430997488866326; -0.10756382806420196; 0.015566509137551254; -0.018231466061074626; -1.162109375; -0.516357421875; -0.541259765625;0
302;2313053813; 0.9995115930232661; -0.02122925633320974; -0.02264228679107833; -0.0036360605746390273; -0.10496696187048721; 0.02810276320247027; -0.018462638244390695; -1.174560546875; -0.520751953125; -0.517578125;0
303;2313070480; 0.999459485083923; -0.022942547883863712; -0.021457574350350454; -0.009692764073018641; -0.0984468072030198; 0.03686517198900278; -0.01919256066473919; -1.179931640625; -0.53466796875; -0.501708984375;0
304;2313087147; 0.9994215899056677; -0.022667718043165558; -0.019300006308009324; -0.016436847193235488; -0.09221446908840272; 0.04995066848752805; -0.017907857741751593; -1.177490234375; -0.559326171875; -0.4921875;0
305;2313103814; 0.9993635958510236; -0.021613089137883568; -0.016237168586052897; -0.02327298910621126; -0.08902027417179531; 0.07592983214437987; -0.01584706884188758; -1.166748046875; -0.6005859375; -0.496826171875;0
306;2313120481; 0.9992215325818314; -0.02143145143643127; -0.012318446610827318; -0.030745366923166345; -0.08546047618812025; 0.1095260159017298; -0.01217323805425137; -1.147216796875; -0.64990234375; -0.513916015625;0
307;2313137148; 0.998948310513065; -0.022829882666927988; -0.007606707465479313; -0.03902828950956042; -0.08350309366440353; 0.13586194143139332; -0.0044624488017827105; -1.113037109375; -0.7099609375; -0.543212890625;0
308;2313153815; 0.998533344432041; -0.02484132888682531; -0.0023818072302606024; -0.04804576392167559; -0.09193698394266497; 0.1551092512376201; 0.004134503945495256; -1.05517578125; -0.778076171875; -0.58349609375;0
309;2313170482; 0.997954751421601; -0.027471182353990355; 0.0031114229033544216; -0.05763651015320823; -0.1103171730655399; 0.1757012220001468; 0.009582723979401797; -0.97607421875; -0.850830078125; -0.639892578125;0
310;2313187149; 0.9973527575746574; -0.028683259497027772; 0.009673881694804876; -0.06611477592647393; -0.14093705462268294; 0.19772244874018263; 0.011895180883643185; -0.875732421875; -0.922119140625; -0.701416015625;0
311;2313203816; 0.9969386142501887; -0.029259980031829128; 0.017448556713856537; -0.07037613838549063; -0.19880383354732045; 0.24266762315532564; 0.011438434514138437; -0.7470703125; -0.97314453125; -0.7548828125;0
312;2313220483; 0.9965944370658791; -0.031606060843302725; 0.024381483766587445; -0.07215350425760719; -0.25058996780879217; 0.23958785031242696; 0.03574007555849814; -0.603759765625; -1.0068359375; -0.79833984375;0
313;2313237150; 0.9964067833308412; -0.028529152008172548; 0.028659978136305442; -0.07441918617673367; -0.2947389745266696; 0.20781631393178407; 0.09076317412485632; -0.441162109375; -1.023193359375; -0.820068359375;0
314;2313253817; 0.9964121540582681; -0.023700923663767637; 0.02774492520005634; -0.0763629791724349; -0.34728129339308456; 0.2326624227646807; 0.1366410573896688; -0.275634765625; -1.025634765625; -0.807861328125;0
315;2313270484; 0.9965227376517951; -0.021433317299636823; 0.02232141435584251; -0.07736149373984237; -0.3873877227751853; 0.28295943657280703; 0.17450704197155975; -0.118896484375; -1.005615234375; -0.76416015625;0
316;2313287151; 0.9970637373467737; -0.01757783677499436; 0.013280664987271264; -0.0733385796146313; -0.4324634471148541; 0.2753357933243634; 0.2196609868326122; 0.022216796875; -0.965087890625; -0.705810546875;0
317;2313303818; 0.9977667871388181; -0.005806875704715941; 0.003413434584522812; -0.06645349608235708; -0.43351263804012574; 0.19520885650586728; 0.24581886136750702; 0.130615234375; -0.919921875; -0.64306640625;0
318;2313320485; 0.9980894787648358; 0.011149882554997326; -0.0031339213723557973; -0.06068979349759082; -0.3908987181841324; 0.12291495157518816; 0.2611692655636398; 0.21484375; -0.888427734375; -0.573974609375;0
319;2313337152; 0.9979174554801507; 0.03294590881486176; -0.008671028568534635; -0.05477346441433124; -0.3759271682103576; 0.09461701200275663; 0.284948886043267; 0.27294921875; -0.8818359375; -0.501220703125;0
320;2313353819; 0.997215264320517; 0.0561926910057825; -0.015595748444613923; -0.046485166603361494; -0.3538468721452576; 0.15722783730451528; 0.29533326698417894; 0.3037109375; -0.904541015625; -0.435791015625;0
321;2313370486; 0.9967720775639233; 0.06785398089829434; -0.023724998844648904; -0.03575453950165603; -0.30014874928264623; 0.2935894207564298; 0.26975446494060185; 0.322509765625; -0.946533203125; -0.37353515625;0
322;2313387153; 0.9971842652804853; 0.06420793194090635; -0.0314043310300769; -0.022685910725469716; -0.22820090658408898; 0.4198409496228697; 0.2362343236853239; 0.322998046875; -0.986328125; -0.32958984375;0
323;2313403820; 0.9980358414283818; 0.04901878133918536; -0.03752642659649497; -0.010648267805655422; -0.18243912692471753; 0.5020042688439939; 0.21200399678571424; 0.308349609375; -1.02001953125; -0.321044921875;0
324;2313420487; 0.9987455548203121; 0.025948502452737776; -0.04282355512867054; 3.6752315422189374E-4; -0.18864753256241149; 0.5012799560084994; 0.18519712355259516; 0.290771484375; -1.0283203125; -0.3515625;0
325;2313437154; 0.9988811040059673; 0.010201005405570063; -0.045261507257603806; 0.009158357347546943; -0.19014664420938204; 0.39530182583536744; 0.1557596350652119; 0.25537109375; -1.0224609375; -0.41064453125;0
326;2313453821; 0.9988713955543056; 0.0066724115516266225; -0.04422372506267697; 0.015989878331632568; -0.18512381218437934; 0.31752218618745287; 0.1366032148344007; 0.211669921875; -1.016845703125; -0.4814453125;0
327;2313470488; 0.9988203042107026; 0.007604902340879349; -0.04209832127139657; 0.0229760027627875; -0.1955828594919209; 0.2821730625195377; 0.12034948033907905; 0.1513671875; -1.019775390625; -0.55126953125;0
328;2313487155; 0.9987338989595891; 0.007430292629527491; -0.0398883030092116; 0.029737402432998328; -0.20424843050367955; 0.27291343645041366; 0.1011913224972261; 0.080078125; -1.02197265625; -0.6171875;0
329;2313503822; 0.9986473771685753; 0.0030286832624688564; -0.03793269064453936; 0.03543097701851628; -0.1953417574161997; 0.27348181874381683; 0.08002124162975954; -0.003662109375; -1.023681640625; -0.680908203125;0
330;2313520489; 0.9985619178858115; -0.00434785535462362; -0.035727680527262724; 0.03973317437818202; -0.18386291674877836; 0.2581718856991391; 0.06270133974792193; -0.091796875; -1.010498046875; -0.745361328125;0
331;2313537156; 0.9984722417259093; -0.011301865974154612; -0.03337799620489857; 0.042560071636281956; -0.17802613843066284; 0.22547472398466542; 0.046206055477464085; -0.18603515625; -0.9755859375; -0.806640625;0
332;2313553823; 0.9984263502497019; -0.0158007113476466; -0.030618477762419275; 0.04424555873169625; -0.16521681898522622; 0.1922607753285332; 0.030050648784155115; -0.28271484375; -0.92529296875; -0.858642578125;0
333;2313570490; 0.9984339043119983; -0.018751225157337126; -0.027028556082758892; 0.04525027548512273; -0.1464525646435075; 0.17398855151837447; 0.014558974991245172; -0.37646484375; -0.864990234375; -0.904541015625;0
334;2313587157; 0.9984375408597467; -0.0217274882682707; -0.023156545557630113; 0.045980078874782615; -0.14089133706742885; 0.1647601866983692; 0.0013014848983304017; -0.463134765625; -0.790283203125; -0.9384765625;0
335;2313603824; 0.9984003814629803; -0.025529673316828594; -0.020208123181301916; 0.04622278477548509; -0.143439117100025; 0.15431013738824087; -0.014636970652820568; -0.54541015625; -0.701171875; -0.958251953125;0
336;2313620491; 0.9983404219808888; -0.02961574633411107; -0.01814311416454018; 0.0459362255361373; -0.13814266974133976; 0.13593656742559565; -0.03318218887147539; -0.616455078125; -0.595703125; -0.9697265625;0
337;2313637158; 0.9983013969859181; -0.03257700123776275; -0.01646565527947713; 0.04540861110556591; -0.12559704793926793; 0.11514801921863148; -0.04647044201186683; -0.68017578125; -0.482666015625; -0.9677734375;0
338;2313653825; 0.998292038533124; -0.03381697494152702; -0.014815464753211717; 0.0452760423549822; -0.10996466224643434; 0.09343097260505685; -0.05134146821035912; -0.7353515625; -0.359375; -0.953125;0
339;2313670492; 0.9983349266546521; -0.03337753608760602; -0.01327058795489647; 0.04513541626597157; -0.09311137969401168; 0.07383038002965243; -0.051251684632981805; -0.783203125; -0.2392578125; -0.921875;0
340;2313687159; 0.9984083326080089; -0.031835971200346314; -0.011612924622262656; 0.04508228364162459; -0.07771782032647245; 0.059860366536033764; -0.04814029238875529; -0.82421875; -0.117431640625; -0.879638671875;0
341;2313703826; 0.9984843503293975; -0.030178581432408758; -0.010269120757274791; 0.04486424555122879; -0.06620346900681828; 0.0523537704589433; -0.04677095569703636; -0.84814453125; -0.00244140625; -0.824462890625;0
342;2313720493; 0.9985413757218097; -0.028548543067671295; -0.00916950715548573; 0.04490013138994764; -0.056831285731793385; 0.04270589106724122; -0.04860344952921328; -0.865966796875; 0.104248046875; -0.762451171875;0
343;2313737160; 0.9986277396005201; -0.025276653295817464; -0.007974696359385193; 0.04516782833493722; -0.049155212288456554; 0.03088476077414569; -0.048714049973318393; -0.877197265625; 0.206298828125; -0.690185546875;0
344;2313753827; 0.9987570067391682; -0.019708156357387874; -0.006728297373927051; 0.04528531855754048; -0.04656245114815499; 0.020022445120184956; -0.04563265584472845; -0.879638671875; 0.298828125; -0.620849609375;0
345;2313770494; 0.9988734128227368; -0.012705362074650561; -0.005266089943826546; 0.04541747711084355; -0.04497702469584662; 0.012623510842154115; -0.04029619400340056; -0.868408203125; 0.38037109375; -0.552001953125;0
346;2313787161; 0.9989223191813316; -0.005100203354473309; -0.003698713763198081; 0.045983776308944735; -0.03894200158062766; 0.012995740159459795; -0.03044916625365521; -0.84765625; 0.44580078125; -0.490234375;0
347;2313803828; 0.9989342415231932; 0.002851366140083189; -0.001223486882990066; 0.046051643873644695; -0.03442510945969367; 0.020215456941939686; -0.01673112538153474; -0.820556640625; 0.50341796875; -0.440185546875;0
348;2313820495; 0.9989110078380441; 0.010098824699390885; 0.002056568299589307; 0.04550365574877724; -0.044803206435537056; 0.04184307719564652; -0.004243561416311582; -0.77978515625; 0.5478515625; -0.4091796875;0
349;2313837162; 0.9988416952069384; 0.015558523922122203; 0.005541390151016068; 0.045193951417069785; -0.06450538218789159; 0.06955859217559246; 0.006851197907449449; -0.73291015625; 0.582763671875; -0.390625;0
350;2313853829; 0.9987743543631369; 0.018729649633401457; 0.00852441090557521; 0.04501470548411968; -0.08554507487345603; 0.09692358167611481; 0.02059651684491748; -0.674560546875; 0.607666015625; -0.386474609375;0
351;2313870496; 0.9987844510101537; 0.017893836044380357; 0.011464589478466349; 0.04447464716052269; -0.10803498878486709; 0.12813692749573524; 0.03473889984180451; -0.6123046875; 0.62255859375; -0.380615234375;0
352;2313887163; 0.9988200737069217; 0.014018297201008917; 0.0145853268043743; 0.04414992577222654; -0.14265069209146156; 0.14275028656740685; 0.055245549254434936; -0.5419921875; 0.640869140625; -0.377197265625;0
353;2313903830; 0.9987726864523835; 0.009808802513682324; 0.017761448057183382; 0.045182288043527204; -0.1862089900148971; 0.1328582430766639; 0.08243370342152598; -0.466796875; 0.65185546875; -0.366455078125;0
354;2313920497; 0.998619465717308; 0.008175031515572223; 0.02011588959397265; 0.04782972439854488; -0.21577956488659475; 0.10602826303974866; 0.11797325017327165; -0.380615234375; 0.655517578125; -0.346435546875;0
355;2313937164; 0.9984215734172714; 0.010512505069270428; 0.022268722536689104; 0.05047725199268089; -0.23233320739987529; 0.10040245465206535; 0.15623514996440266; -0.2939453125; 0.647216796875; -0.330322265625;0
356;2313953831; 0.9983137374605557; 0.010987098358846287; 0.02378430171384283; 0.051800311381056285; -0.2669658939590342; 0.12631907754230054; 0.19539769296545978; -0.197998046875; 0.625244140625; -0.318603515625;0
357;2313970498; 0.9983285886710895; 0.004745337324558646; 0.02289463113654469; 0.052852120873133075; -0.3439112582215417; 0.1340112876581689; 0.24212987355471816; -0.103759765625; 0.595947265625; -0.30029296875;0
358;2313987165; 0.9983062763748181; -0.003347936216913705; 0.01807607427258934; 0.05519624455182362; -0.4141498287957676; 0.09548288215570763; 0.296219738452621; -0.015625; 0.56884765625; -0.266845703125;0
359;2314003832; 0.9982328550365236; -0.009391312223064052; 0.012030403249951917; 0.05743030365585145; -0.4445228921930467; 0.04968063994755298; 0.3415341436650134; 0.0615234375; 0.534423828125; -0.228759765625;0
360;2314020499; 0.9981898270901162; -0.016431264328272133; 0.0052009603567214355; 0.057619724554586; -0.4834208412625956; 0.006202423910282362; 0.3673489343435224; 0.1328125; 0.49462890625; -0.1875;0
361;2314037166; 0.9980904149426733; -0.02494624689076158; -0.003507466611032267; 0.05639952166109192; -0.5041591724311878; -0.059958619878287434; 0.3798681566902076; 0.180908203125; 0.467529296875; -0.146484375;0
362;2314053833; 0.9980295747584137; -0.029380116435822556; -0.012498850165365729; 0.0540144000272267; -0.4874104868045144; -0.1461005022338525; 0.37370492057268284; 0.22119140625; 0.448974609375; -0.112548828125;0
363;2314070500; 0.9982486854692901; -0.025884343115782638; -0.020885220798297053; 0.04892208389372985; -0.47421196066791915; -0.21061454206325683; 0.357009148087992; 0.239013671875; 0.43505859375; -0.094482421875;0
364;2314087167; 0.9985091696108507; -0.020299586725021024; -0.028093410197778532; 0.04216782286651956; -0.44555138248645626; -0.22344741786528063; 0.32749424251701126; 0.25146484375; 0.424072265625; -0.099853515625;0
365;2314103834; 0.9986879856991959; -0.016482244500167165; -0.033784125902706325; 0.03477464123912078; -0.4015349197472793; -0.21275533115463774; 0.28931767735253316; 0.242431640625; 0.423583984375; -0.12255859375;0
366;2314120501; 0.9988501270643747; -0.013276719330644504; -0.03726450082783984; 0.027083378026930283; -0.34898263753886866; -0.19588761233974725; 0.2542612330683127; 0.222900390625; 0.43310546875; -0.153076171875;0
367;2314137168; 0.9990049895321149; -0.010394273729711356; -0.03869917421478342; 0.0195796802492913; -0.2964001693739274; -0.173860713667358; 0.22099391784747785; 0.1904296875; 0.448974609375; -0.1845703125;0
368;2314153835; 0.9991458946636139; -0.007552196594916072; -0.038756452336205956; 0.0121812522242013; -0.24935304560902152; -0.14894119897025437; 0.19525060148572715; 0.14453125; 0.472412109375; -0.224853515625;0
369;2314170502; 0.9992501160568462; -0.004687015365564762; -0.03806282555496762; 0.005334675071116735; -0.21439113814644611; -0.11844993921698077; 0.17676428225394486; 0.099365234375; 0.493408203125; -0.261474609375;0
370;2314187169; 0.9992842392826925; -0.0027407768175287672; -0.03771719667719723; -9.541165865422641E-4; -0.1888434823076604; -0.08481727758201547; 0.15706796803397424; 0.039306640625; 0.517822265625; -0.292724609375;0
371;2314203836; 0.999272393680865; -0.001827530862873461; -0.03744510563657145; -0.007014800219954571; -0.16447390665632866; -0.05557547414891343; 0.1295735409528657; -0.021484375; 0.541748046875; -0.329833984375;0
372;2314220503; 0.999239469130068; -7.826816238944989E-4; -0.03684698654882863; -0.01273461127817016; -0.14011613426340944; -0.04186775487778141; 0.1041751397556234; -0.0927734375; 0.5654296875; -0.36083984375;0
373;2314237170; 0.99920057533462; 0.0015449255640749837; -0.03582144671634141; -0.017681838454026075; -0.12284962522036251; -0.03694192674950886; 0.08313580560146681; -0.171630859375; 0.584228515625; -0.3857421875;0
374;2314253837; 0.9991617101356719; 0.005219781163453008; -0.03458459554836186; -0.021272908454689626; -0.11389476463228032; -0.0288639788913708; 0.06386001466833927; -0.247802734375; 0.588623046875; -0.424072265625;0
375;2314270504; 0.9991337774726325; 0.008457385888323787; -0.03345899560587607; -0.023252160120083996; -0.1087860245732648; -0.019961806269546776; 0.04722564441917825; -0.325439453125; 0.585693359375; -0.460205078125;0
376;2314287171; 0.9991315269631473; 0.010324686975608566; -0.03268725346798535; -0.02368831205183053; -0.10709026286865514; -0.018106627900084243; 0.03876280810584149; -0.40283203125; 0.568359375; -0.49609375;0
377;2314303838; 0.9991335849888765; 0.011768132255347896; -0.032211653385491146; -0.023579647933526297; -0.10675286035492226; -0.019603466744422003; 0.036315791262357136; -0.47705078125; 0.544921875; -0.5322265625;0
378;2314320505; 0.9991122528344821; 0.012919404136484736; -0.032355947533089464; -0.023683071844672055; -0.10630346605302751; -0.01388851131176268; 0.03358301614966531; -0.5537109375; 0.51171875; -0.5634765625;0
379;2314337172; 0.9990851976094197; 0.013138756724298845; -0.032753983145107475; -0.024151968400455224; -0.0988029501178828; -0.007230738178382616; 0.027250336566761187; -0.62548828125; 0.472900390625; -0.594482421875;0
380;2314353839; 0.9990835663033797; 0.01397009197794924; -0.032303499276102994; -0.024358735746476595; -0.08983953687780746; -0.007822927409612416; 0.018934160140218936; -0.70068359375; 0.42822265625; -0.616455078125;0
381;2314370506; 0.9990944693863544; 0.016354625594069028; -0.030953567714074925; -0.024179414985623097; -0.08462291436898497; -0.009046569648595813; 0.012772195352952485; -0.7666015625; 0.370361328125; -0.638671875;0
382;2314387173; 0.9991006493083966; 0.01915647259013792; -0.029509568452870453; -0.023666589935373156; -0.08361518643093067; -0.002730251245508245; 0.00676946791592044; -0.826416015625; 0.31103515625; -0.6533203125;0
383;2314403840; 0.9991186818580569; 0.02097771143171609; -0.02824711994515017; -0.022888761436803715; -0.08015822848023973; 0.008180165935564372; 0.003215217771529293; -0.88134765625; 0.241455078125; -0.671875;0
384;2314420507; 0.9991479441583682; 0.020999848745846234; -0.027124672726427494; -0.02294872907683533; -0.07421169971444293; 0.021789341498667583; 0.0010459514401591624; -0.92919921875; 0.16845703125; -0.683837890625;0
385;2314437174; 0.9991946114153076; 0.019039608886144727; -0.026011639754033422; -0.023895949643847062; -0.06843184258017955; 0.037730690919795085; -0.002419286592797794; -0.972412109375; 0.090576171875; -0.689697265625;0
386;2314453841; 0.9992487863255043; 0.01573066004762122; -0.024555518745576824; -0.025523241577207548; -0.06226086565300551; 0.050984872280409266; -0.004939701523797895; -1.009033203125; 0.01904296875; -0.68994140625;0
387;2314470508; 0.9992740214118412; 0.012096751700545832; -0.022805360482363483; -0.02801810598473666; -0.059042932887320904; 0.058583387769028106; -0.006969079954070018; -1.04248046875; -0.058349609375; -0.68701171875;0
388;2314487175; 0.9992680817448902; 0.009402039690483172; -0.02039078408013179; -0.030969636422527168; -0.05670300990316877; 0.06170637472185249; -0.007430478174003402; -1.06396484375; -0.13671875; -0.685791015625;0
389;2314503842; 0.9992224305439139; 0.008209353410342346; -0.017374499381493547; -0.03442771537206205; -0.0560262163798656; 0.06436237640221079; -0.006292895498485353; -1.07861328125; -0.215087890625; -0.691162109375;0
390;2314520509; 0.9991315137015567; 0.007798816821579069; -0.014040834843083829; -0.03844803950175617; -0.06661560771814089; 0.07365952275660582; -0.0019795367091070388; -1.0810546875; -0.302734375; -0.697265625;0
391;2314537176; 0.9989960398438603; 0.007133363818131316; -0.01076284230413538; -0.042897420930151774; -0.08477231454280791; 0.09017850012605642; 0.0037488693203639716; -1.068115234375; -0.399169921875; -0.708984375;0
392;2314553843; 0.9988086255490227; 0.005021190351705965; -0.007009266454059694; -0.048031108253922386; -0.09567583439063664; 0.11121668577122881; 0.0034468015732953073; -1.046875; -0.49658203125; -0.724609375;0
393;2314570510; 0.9985459852747303; 0.001049811248971036; -0.0026065044663788894; -0.05383325480153176; -0.10908054503368432; 0.1307537415776685; 0.005741238749199681; -1.002197265625; -0.593994140625; -0.748291015625;0
394;2314587177; 0.9982463380248083; -0.003205989489673877; 0.0021209285232625112; -0.059071752248020803; -0.13805891572296247; 0.1472226178815885; 0.010842196673660313; -0.93994140625; -0.691650390625; -0.771728515625;0
395;2314603844; 0.997929264352565; -0.007752077060372356; 0.007316661399950687; -0.06343149939861896; -0.1699693424359185; 0.16627839853480922; 0.01573769143416927; -0.85400390625; -0.779052734375; -0.80615234375;0
396;2314620511; 0.9975600962278988; -0.01343857659739707; 0.013279737263921789; -0.06720794336254132; -0.20647561676264842; 0.1818031395650781; 0.01767206220311182; -0.747802734375; -0.8515625; -0.834716796875;0
397;2314637178; 0.9970737355284385; -0.019957410635668443; 0.01900990863079932; -0.07130421483989237; -0.23872745585307897; 0.18565479664436788; 0.022523684957020215; -0.620849609375; -0.906982421875; -0.8603515625;0
398;2314653845; 0.9964606428922655; -0.02698831839897088; 0.02538724046182295; -0.07545399829341248; -0.26141220466916903; 0.19096396088435408; 0.024090508388252288; -0.470947265625; -0.93310546875; -0.875732421875;0
399;2314670512; 0.995770928510473; -0.03576167095060878; 0.03182826490241276; -0.07841123884694569; -0.30783004836992883; 0.19928683072504397; 0.02345660325759949; -0.302734375; -0.924072265625; -0.8798828125;0
400;2314687179; 0.9952720443706573; -0.04336980624010467; 0.036337446113578205; -0.07894433235445664; -0.35579984760827565; 0.17084827681898251; 0.03150525919670984; -0.12646484375; -0.873779296875; -0.8525390625;0
401;2314703846; 0.9952896407859921; -0.04468699777804147; 0.038464635957807025; -0.07695501903261094; -0.4273289867724984; 0.12296867804170848; 0.052498721221740985; 0.04248046875; -0.788330078125; -0.790771484375;0
402;2314720513; 0.9959473288457928; -0.04179656194031672; 0.035855851654355266; -0.07110782992779557; -0.4811625392304028; 0.05864707914431047; 0.0628640358858325; 0.1875; -0.684326171875; -0.701171875;0
403;2314737180; 0.9969834281974845; -0.02526467405539834; 0.032128770832739385; -0.06598092322211697; -0.5187185914982919; -0.07025863239570247; 0.12190391852398172; 0.302490234375; -0.59423828125; -0.59130859375;0
404;2314753847; 0.9977341256359471; 0.0066476511485635825; 0.028501444501842586; -0.060581275465175555; -0.54766172278333; -0.15308904158539335; 0.1819293961827917; 0.38427734375; -0.54345703125; -0.4775390625;0
405;2314770514; 0.9971648155159387; 0.04384066172652645; 0.023032103136601784; -0.05665553195892748; -0.5762919877622601; -0.14306920184319388; 0.19538110235910752; 0.441162109375; -0.548095703125; -0.36767578125;0
406;2314787181; 0.9959498209987487; 0.07100691749898214; 0.013996573491423333; -0.053348548718332944; -0.5525031895985872; -0.04581223897607696; 0.19810104324068323; 0.478759765625; -0.589111328125; -0.27587890625;0
407;2314803848; 0.995198814659606; 0.08608227684499808; 0.0035271422504141174; -0.04644050151367566; -0.4972402121887997; 0.04063599480716193; 0.20259628638597826; 0.501220703125; -0.6318359375; -0.198486328125;0
408;2314820515; 0.9947273334280429; 0.0940352529592764; -0.0057140515465021755; -0.04052472019575323; -0.43355506414947376; 0.14915205695690645; 0.19444385523987368; 0.512451171875; -0.68017578125; -0.1396484375;0
409;2314837182; 0.9956346779230694; 0.08586522443895017; -0.015232171782407156; -0.033267586204381396; -0.3602023205939432; 0.3146697712784316; 0.19309516485087186; 0.51416015625; -0.71142578125; -0.100341796875;0
410;2314853849; 0.9972857714763368; 0.0654428251800756; -0.025802628035476786; -0.021738238883605543; -0.31832793556736877; 0.3814682646924879; 0.17330137012809288; 0.513671875; -0.727783203125; -0.089599609375;0
411;2314870516; 0.9982427698397616; 0.047457375143242525; -0.03365962965284853; -0.011233847906549495; -0.28727334836551655; 0.3402354719738489; 0.13481956272687867; 0.505126953125; -0.734130859375; -0.12158203125;0
412;2314887183; 0.9985743046121515; 0.038061852240043215; -0.037402034315745354; -0.001319621710645813; -0.28520717195564393; 0.2778589970599894; 0.11607892915606449; 0.48583984375; -0.738525390625; -0.17529296875;0
413;2314903850; 0.998550510673536; 0.03664079641697382; -0.03839041354044925; 0.008972503538249578; -0.2762768056688823; 0.21843028400700223; 0.11211704765469876; 0.453857421875; -0.766357421875; -0.241455078125;0
414;2314920517; 0.9984187580526416; 0.03732289899806812; -0.037851615054506633; 0.01828223226978104; -0.2688145943304466; 0.20663742475556637; 0.10999258702426595; 0.41259765625; -0.806396484375; -0.3125;0
415;2314937184; 0.9983718585020074; 0.034021840979992474; -0.03716690954697122; 0.026735132734049375; -0.2551547185831309; 0.21269232264679072; 0.10360561580350482; 0.35400390625; -0.855712890625; -0.38623046875;0
416;2314953851; 0.9984374432798416; 0.027410384044001562; -0.03575890696285922; 0.03305515506233275; -0.22729393643840412; 0.22355172924924865; 0.09623699994045243; 0.28759765625; -0.90966796875; -0.457763671875;0
417;2314970518; 0.9985232642086723; 0.0181796260355937; -0.03463633181050135; 0.037697699531627; -0.22710326137871364; 0.225385728262101; 0.09763369116864776; 0.208251953125; -0.95263671875; -0.535888671875;0
418;2314987185; 0.9985045111584528; 0.009860660505402186; -0.03487417256724646; 0.04093043682110048; -0.23994369007337404; 0.19513611709972079; 0.10099887294058585; 0.125; -0.976318359375; -0.60791015625;0
419;2315003852; 0.9984703160474457; 0.0057837595720880985; -0.03461092497643698; 0.042727742388306685; -0.2377375101870694; 0.15870325868678617; 0.10737045060413014; 0.033203125; -0.988525390625; -0.679443359375;0
420;2315020519; 0.9984690473631666; 0.00464192784406009; -0.03359082075156384; 0.04369977945959852; -0.2265313302765435; 0.13822007282136373; 0.11827368131193436; -0.0634765625; -0.990234375; -0.741455078125;0
421;2315037186; 0.99850634069897; 0.0028853775143452554; -0.03185537275542244; 0.04429443991253546; -0.21309248367742145; 0.14075750184498637; 0.12316723588470653; -0.166015625; -0.98583984375; -0.791015625;0
422;2315053853; 0.9985456996407056; -0.0027380014465506752; -0.030402710682948888; 0.044437194558852616; -0.20072316126777892; 0.15710057477022402; 0.12139247477548937; -0.26611328125; -0.96435546875; -0.83251953125;0
423;2315070520; 0.9985336089500223; -0.01146636129176426; -0.029998895978657226; 0.04358004814169445; -0.2024676840657641; 0.15744365232911336; 0.10791073194166081; -0.36328125; -0.9208984375; -0.873779296875;0
424;2315087187; 0.9984388031832613; -0.02113227459386846; -0.03014204321060313; 0.04201000475549127; -0.1943915043769215; 0.14698658677496962; 0.07959089278234925; -0.453857421875; -0.854248046875; -0.905517578125;0
425;2315103854; 0.9982756342248325; -0.029861460638914705; -0.030558930902983256; 0.04025174559675208; -0.1840891594080587; 0.12526097811091452; 0.051340505252429294; -0.5380859375; -0.765869140625; -0.937255859375;0
426;2315120521; 0.9981287853278733; -0.03583876589608409; -0.03160718930915655; 0.03815096778490833; -0.1673304869602817; 0.0910332286106054; 0.027054331879026214; -0.617919921875; -0.6611328125; -0.95654296875;0
427;2315137188; 0.9980675941566768; -0.03926021248415945; -0.03248469237575461; 0.03555921780993359; -0.14649059093773426; 0.05911324021405632; 0.0031074142805515674; -0.69189453125; -0.548095703125; -0.95263671875;0
428;2315153855; 0.9981436489857645; -0.0393209355448475; -0.03234869675125062; 0.03341678972846493; -0.12738824751632596; 0.024848400802534282; -0.016917324192359376; -0.76171875; -0.43212890625; -0.93505859375;0
429;2315170522; 0.9983780035540141; -0.034694958097315376; -0.0315998192287366; 0.032234660333835354; -0.10360655655125911; -0.00585680156424374; -0.028744255309499863; -0.830810546875; -0.3291015625; -0.9033203125;0
430;2315187189; 0.9986469623659967; -0.028219833612911915; -0.03061099228594708; 0.031158509259860218; -0.06621892785905738; -0.00716683330487871; -0.03535783787411009; -0.893310546875; -0.240478515625; -0.858154296875;0
431;2315203856; 0.9988208442038964; -0.025576213973414585; -0.029055388396299873; 0.02930124345043961; -0.02226440835868389; 0.01661753056226594; -0.04389460023585509; -0.947509765625; -0.16015625; -0.80322265625;0
432;2315220523; 0.998925474574557; -0.026284723882271654; -0.026984615081563138; 0.026997038454773636; 0.00975164321374375; 0.03291928316433519; -0.04595757361930247; -0.9970703125; -0.087158203125; -0.738525390625;0
433;2315237190; 0.9990070243945697; -0.0265850210792829; -0.025025968509970367; 0.02553238658370383; 0.017562707362438854; 0.02384072133564439; -0.04313532683855874; -1.035400390625; -0.0185546875; -0.673095703125;0
434;2315253857; 0.9991281167047226; -0.023144448936246342; -0.023843030869461757; 0.025275497472248803; 0.013712712903311414; 0.004592584273670373; -0.04161822644423813; -1.07177734375; 0.0419921875; -0.60107421875;0
435;2315270524; 0.9992742189565406; -0.015961055768352217; -0.02305683409593687; 0.025781047865203414; 0.017023232667848283; -0.01234186590548097; -0.045063988612221176; -1.10107421875; 0.095703125; -0.53466796875;0
436;2315287191; 0.999372406173195; -0.005581601118851753; -0.022165647856658564; 0.027061477484481927; 0.025856580587229738; -0.023823514836477194; -0.04595931758142407; -1.12353515625; 0.139404296875; -0.462646484375;0
437;2315303858; 0.9993592388810099; 0.005354144831553109; -0.02047250664060568; 0.02886730448347827; 0.038935340158003186; -0.02043408829164895; -0.04732318361535577; -1.1416015625; 0.176025390625; -0.400634765625;0
438;2315320525; 0.9992621885114208; 0.013879502933052568; -0.017590773752712233; 0.031192991015261295; 0.04623920863171994; 0.0031512408885998374; -0.04641191116018303; -1.153076171875; 0.216796875; -0.340087890625;0
439;2315337192; 0.9991978781761883; 0.018069601688999737; -0.014028305587016067; 0.032867862500648166; 0.040894240924722026; 0.026704699397408695; -0.03985312890892851; -1.15283203125; 0.25439453125; -0.28857421875;0
440;2315353859; 0.9992025441227806; 0.0187184995554478; -0.01051275297171947; 0.03366564447491052; 0.02747528291986423; 0.04324345950480721; -0.028060929887278752; -1.146484375; 0.29638671875; -0.242431640625;0
441;2315370526; 0.9992083806114403; 0.018848449430567682; -0.006649134482864694; 0.03439675973918233; 0.012437148068023023; 0.05034689736830284; -0.01611174009696523; -1.1279296875; 0.3447265625; -0.20458984375;0
442;2315387193; 0.9991793774499638; 0.01926656404939836; -0.0022884595442986826; 0.03555466412930258; -0.0024195911471278624; 0.05379123776566579; -0.0031721898609825792; -1.102294921875; 0.395263671875; -0.175048828125;0
443;2315403860; 0.9990840802290057; 0.020432757059493323; 0.0027869514603263428; 0.037493145686473946; -0.01712921599044724; 0.057857926487824375; 0.006743213000482758; -1.0712890625; 0.449951171875; -0.15380859375;0
444;2315420527; 0.998934485949362; 0.02228081187598513; 0.008363416152714355; 0.03954126292226173; -0.04139723161663305; 0.05857036979721916; 0.01743179994150299; -1.022705078125; 0.50830078125; -0.142822265625;0
445;2315437194; 0.9987648449540756; 0.02360507287262753; 0.013577591872002054; 0.04156000502281693; -0.06979588233015047; 0.05971666729788065; 0.024041280635598714; -0.966064453125; 0.56103515625; -0.139892578125;0
446;2315453861; 0.9986311207156806; 0.02332080613464438; 0.017690243695153377; 0.04334835657069863; -0.10166767407041684; 0.06514336709809644; 0.02785710207469492; -0.89306640625; 0.611083984375; -0.14501953125;0
447;2315470528; 0.9985618791958697; 0.02130528634938761; 0.021751084197758456; 0.04412650594150858; -0.12807972452925864; 0.07949699792197963; 0.027285729328391677; -0.8125; 0.657470703125; -0.150146484375;0
448;2315487195; 0.9984603800607812; 0.017685364643857587; 0.027603423116687512; 0.044745372481804435; -0.15125483569733286; 0.10515766444546555; 0.03645473804159949; -0.724609375; 0.697509765625; -0.15869140625;0
449;2315503862; 0.9982378985140106; 0.012372073395034322; 0.03383235767284659; 0.04715295690130623; -0.19846540739808344; 0.12947232340943254; 0.06135017239138681; -0.62060546875; 0.72998046875; -0.15771484375;0
450;2315520529; 0.9979771010994485; 0.005298005182540005; 0.038418036907016014; 0.050375502602336975; -0.2697533304976235; 0.134323071655658; 0.10312896043532602; -0.5048828125; 0.75244140625; -0.1357421875;0
451;2315537196; 0.9978187574448941; -0.00297198354078676; 0.03834932827506502; 0.053649078517829414; -0.3533009366439014; 0.09655358224088206; 0.1566516494568246; -0.37890625; 0.763916015625; -0.094482421875;0
452;2315553863; 0.9978089415162223; -0.009712827485509168; 0.033155239968694634; 0.056424350019571856; -0.39347951930281455; 0.05713860793331499; 0.2024215467403962; -0.259521484375; 0.76416015625; -0.02685546875;0
453;2315570530; 0.997793705040544; -0.014894592088689151; 0.02843139347672624; 0.05811651377144967; -0.42090981185398324; 0.06817056159918095; 0.21507934157958974; -0.14404296875; 0.747802734375; 0.048583984375;0
454;2315587197; 0.9975565544535885; -0.024443283284735995; 0.02333494042148568; 0.06114676708111977; -0.4991073523942825; 0.06630456038307272; 0.2243011613912922; -0.029541015625; 0.714599609375; 0.1396484375;0
455;2315603864; 0.997255480469773; -0.03462127949485272; 0.0125760874459053; 0.06422394961145352; -0.5667510603058539; -0.02860561973169118; 0.2637220973436809; 0.067626953125; 0.668212890625; 0.248046875;0
456;2315620531; 0.9973727057677716; -0.035340941385890945; -1.8101958524523873E-4; 0.0632350447405775; -0.5886877475397954; -0.14489788515724583; 0.29547337980333166; 0.156005859375; 0.607421875; 0.34228515625;0
457;2315637198; 0.9977371053517589; -0.028598319703079245; -0.010877422932032782; 0.05987058029459325; -0.5910383920407023; -0.2036755275783259; 0.2963515542594641; 0.23291015625; 0.5390625; 0.393310546875;0
458;2315653865; 0.9977571798451906; -0.025688816947299353; -0.020759713282868585; 0.05822137971255134; -0.6116891592843299; -0.23615203643439414; 0.29019393437581587; 0.2958984375; 0.467041015625; 0.410400390625;0
459;2315670532; 0.9977367899763346; -0.025731993292185673; -0.03136292681134565; 0.05362396172194383; -0.6152785983273573; -0.2956500344091386; 0.28513429024766257; 0.34814453125; 0.40380859375; 0.397216796875;0
460;2315687199; 0.9978143033394706; -0.022517871026841996; -0.0403340314098266; 0.04725174542613804; -0.579932020423241; -0.32769691961220404; 0.27254463925957784; 0.3818359375; 0.361328125; 0.360595703125;0
461;2315703866; 0.9978953378291683; -0.020185729109690576; -0.04527420321907717; 0.04180523414595428; -0.5414688620066123; -0.3135629709474225; 0.25318325277533893; 0.40087890625; 0.33154296875; 0.298583984375;0
462;2315720533; 0.9979047804566583; -0.021950831575692553; -0.04932254190397412; 0.03565805652324376; -0.5090235169050952; -0.2799846915080448; 0.22299354236536428; 0.406982421875; 0.3154296875; 0.23291015625;0
463;2315737200; 0.997890338745379; -0.026527581490161767; -0.05172871829471192; 0.028901539102647176; -0.45234840611361204; -0.2460781237331539; 0.195552220949489; 0.395263671875; 0.322021484375; 0.174072265625;0
464;2315753867; 0.9979709376927209; -0.02983603623232506; -0.05195799375745864; 0.02154496106643973; -0.3930581155888327; -0.21162993609906428; 0.18009298569749738; 0.3701171875; 0.348876953125; 0.124267578125;0
465;2315770534; 0.9981295580045251; -0.03247152689774302; -0.049822466082198646; 0.014167118694662544; -0.334463704272808; -0.16338598368246013; 0.17340841343561927; 0.331787109375; 0.395751953125; 0.089599609375;0
466;2315787201; 0.9983019525173508; -0.03583083435323764; -0.045409332767925616; 0.006881526514358721; -0.2645236327642074; -0.11582438418393125; 0.16477985468305464; 0.291748046875; 0.444091796875; 0.080810546875;0
467;2315803868; 0.998475484710142; -0.03926860699836954; -0.038776807865065994; -0.0010208374259350341; -0.18442908701134203; -0.07315792215835012; 0.15332385420899816; 0.2412109375; 0.501220703125; 0.094482421875;0
468;2315820535; 0.9985792130260148; -0.04253655720184607; -0.030693063144180997; -0.009387890529095083; -0.11769453528023481; -0.035629973273945216; 0.14674699124015167; 0.18603515625; 0.560302734375; 0.133056640625;0
469;2315837202; 0.9985698047271151; -0.04514006417739708; -0.022660933826583907; -0.01752717237374041; -0.07152266659675881; -0.010065818080975945; 0.14698753946222398; 0.12646484375; 0.62255859375; 0.200927734375;0
470;2315853869; 0.9985136721731137; -0.04635888539381022; -0.01509882699199941; -0.0243582768658393; -0.04467814414812421; 0.0033335898795095464; 0.15047223376589075; 0.06396484375; 0.673095703125; 0.282470703125;0
471;2315870536; 0.9984491597988759; -0.04604107489094028; -0.008459300772902608; -0.030131958951237523; -0.031827645656539505; 0.004694757032744121; 0.139255166689697; -0.005126953125; 0.719970703125; 0.371826171875;0
472;2315887203; 0.9984243393286976; -0.044223803236600134; -0.0025337108185707895; -0.03444813743632641; -0.027251574734463376; 0.009944080772078277; 0.12088156768358746; -0.086669921875; 0.75; 0.458251953125;0
473;2315903870; 0.9983863339233735; -0.04314371166667946; 0.0020059431003648376; -0.03686901912102742; -0.026032266031459333; 0.0075085620617765456; 0.09273789071652236; -0.168701171875; 0.767333984375; 0.538818359375;0
474;2315920537; 0.998384806780415; -0.04115934657509507; 0.0059559097363244004; -0.03870675546668029; -0.013028673937797972; -0.01207798162982247; 0.06620508872022364; -0.258056640625; 0.776123046875; 0.61181640625;0
475;2315937204; 0.9985172998655426; -0.035441333086725146; 0.010261353416293752; -0.040022723599572214; -0.004024380290273677; -0.030614986078884673; 0.05327238727075503; -0.347412109375; 0.7705078125; 0.66943359375;0
476;2315953871; 0.9986546586743368; -0.028441864583474252; 0.013411614086139974; -0.04123180392201664; -0.01666788929662971; -0.03565180596804096; 0.043161512136048096; -0.43408203125; 0.762451171875; 0.70263671875;0
477;2315970538; 0.9987676260627331; -0.022279750476337734; 0.013946302923098702; -0.042099198121839494; -0.04192347482291275; -0.03337612179792206; 0.03602916008259497; -0.525634765625; 0.747802734375; 0.707763671875;0
478;2315987205; 0.9988721390402336; -0.01798132574687683; 0.011590996137109623; -0.04238833073054726; -0.06373676944780124; -0.02104060751253395; 0.02586491714627468; -0.612060546875; 0.731689453125; 0.697998046875;0
479;2316003872; 0.998951907165608; -0.015359875354883923; 0.007978717715770163; -0.04237335793737585; -0.06165812739539095; -4.657175293207678E-4; 0.010391888586678557; -0.6943359375; 0.710205078125; 0.6796875;0
480;2316020539; 0.9990149241149113; -0.01461421284485992; 0.005252988483568922; -0.04156936721426896; -0.03841935001599452; 0.008472151659808767; -0.01591772095850242; -0.77880859375; 0.677001953125; 0.653076171875;0
481;2316037206; 0.9990962702245698; -0.014160831418512987; 0.004750204974694028; -0.03979383406494503; -0.012196034702288139; -0.004786957537552856; -0.030372317931345292; -0.8505859375; 0.6396484375; 0.626708984375;0
482;2316053873; 0.9992417612721931; -0.009829625395937; 0.005533661620545056; -0.037264723040567715; -0.004066425986321193; -0.03401989648018949; -0.03249665842194497; -0.916748046875; 0.602783203125; 0.59033203125;0
483;2316070540; 0.9994199840007656; -0.0013150535733989915; 0.0058170769139138665; -0.03352801560167679; -0.0076791968675362565; -0.047657498439617196; -0.03147589794068598; -0.97119140625; 0.568359375; 0.544921875;0
484;2316087207; 0.9995181509041362; 0.008337117339590625; 0.005251339249202875; -0.029434366372188103; -0.01015070150368541; -0.04504336501903393; -0.03424135195782593; -1.012451171875; 0.546142578125; 0.48876953125;0
485;2316103874; 0.9995161701254168; 0.01670008826068249; 0.004163993647470998; -0.02590740949628634; -0.010062225730195315; -0.03353270041725496; -0.03745188844823094; -1.04345703125; 0.527099609375; 0.4267578125;0
486;2316120541; 0.9994773209285412; 0.022717937089872048; 0.002667642199335241; -0.022844342165683817; -0.01050608179656069; -0.017108890624002962; -0.038808082029358676; -1.06591796875; 0.5146484375; 0.363525390625;0
487;2316137208; 0.9994441929280876; 0.02673449039349378; 9.449807296055269E-4; -0.01989168814214726; -0.007738973928186408; -0.004349052511373071; -0.04321508594301118; -1.087890625; 0.5; 0.29931640625;0
488;2316153875; 0.9994237851291569; 0.02940046216590113; 5.95714294535088E-5; -0.01696192777325367; -0.0035921231387814447; 0.0012542164060445043; -0.04769725223756441; -1.1005859375; 0.488525390625; 0.23974609375;0
489;2316170542; 0.9994243137700056; 0.03071841207029595; -1.8692636537814833E-4; -0.01440087718741029; -0.002952181341980037; 0.009170085936604653; -0.04869161574924955; -1.111083984375; 0.4775390625; 0.1767578125;0
490;2316187209; 0.9994515408675926; 0.03066400948551551; 4.7054930801199163E-4; -0.012494581346157108; -0.0021109046762509964; 0.016116855029876975; -0.05073181200293077; -1.115478515625; 0.46630859375; 0.1259765625;0
491;2316203876; 0.9994741810329366; 0.03018992163291917; 0.0021358919088992905; -0.011634777440597379; 0.002877519961603228; 0.006919300117211912; -0.05091419202029622; -1.1181640625; 0.4541015625; 0.07080078125;0
492;2316220543; 0.9994351236110766; 0.031036737203987128; 0.005309269061012812; -0.011745905596439565; 0.014151227368203559; -0.0019120101809647185; -0.044058057089761404; -1.121337890625; 0.43994140625; 0.00830078125;0
493;2316237210; 0.9993521354272255; 0.032323722015287555; 0.010128417158774385; -0.01216147926778488; 0.02116287661789802; 0.029189935859337504; -0.03337826674481556; -1.1181640625; 0.427490234375; -0.05712890625;0
494;2316253877; 0.9993655634355479; 0.029072793492380213; 0.015735844830320592; -0.013252414314958771; 0.017999135937743282; 0.08019817346429592; -0.022204338269583356; -1.11083984375; 0.409423828125; -0.1298828125;0
495;2316270544; 0.9994119336962508; 0.021461434789589142; 0.021440006395957445; -0.015984984455242712; 0.0069509006029996635; 0.09540762662921425; -0.005113673015651715; -1.095458984375; 0.392578125; -0.20703125;0
496;2316287211; 0.9993238267733402; 0.014706551224451306; 0.0273962093223783; -0.019622800741338264; -0.003549582349241773; 0.07305476313745701; 0.014107959418955098; -1.078369140625; 0.371337890625; -0.287841796875;0
497;2316303878; 0.999061224735713; 0.01269988573113607; 0.03442801373209292; -0.023023770378806655; -0.0038904931916382596; 0.03921274311385158; 0.02295699125252658; -1.054931640625; 0.346923828125; -0.376708984375;0
498;2316320545; 0.99859498295747; 0.015860666180945455; 0.04396140965752888; -0.02497786502865776; -0.017907974707095212; 0.01668024052307136; 0.031976489960257766; -1.008544921875; 0.316650390625; -0.474365234375;0
499;2316337212; 0.9979869830136435; 0.022679328081187902; 0.05328925121422207; -0.025843481153646184; -0.056817895321043504; 0.0015903020345530167; 0.04312079477940204; -0.944580078125; 0.279052734375; -0.588623046875;0
500;2316353879; 0.9973625272458901; 0.02930683163878376; 0.06032594556074373; -0.02774669632927937; -0.11769612880057635; 0.016102665431382224; 0.04709659352196104; -0.86083984375; 0.227783203125; -0.700927734375;0
501;2316370546; 0.9969443801495919; 0.031108310347039925; 0.06416080484125064; -0.031899326601375295; -0.19314564337666815; 0.07608877417524293; 0.053063597455608985; -0.754638671875; 0.15673828125; -0.81103515625;0
502;2316387213; 0.9969305344454663; 0.021925621854365723; 0.06504686419581891; -0.03765211886291389; -0.2647210056320404; 0.1518555649174479; 0.06275510669388513; -0.635009765625; 0.07861328125; -0.893310546875;0
503;2316403880; 0.9970103650506212; 0.004090549720875303; 0.06512825067656187; -0.04137523834878696; -0.319128952131501; 0.18688172873754852; 0.07504606936929975; -0.50537109375; 0.022216796875; -0.93505859375;0
504;2316420547; 0.9968152213212003; -0.01043077108108105; 0.06724774397866319; -0.04157348297654073; -0.36540419214260345; 0.1379738835994953; 0.09401316473113004; -0.36572265625; 0.002685546875; -0.933837890625;0
505;2316437214; 0.9964840274676343; -0.013001679828553825; 0.07154937213289636; -0.04160801209992022; -0.4032141671558426; 0.04992851448002594; 0.1173564599286061; -0.218994140625; -0.001953125; -0.902099609375;0
506;2316453881; 0.9962468646892607; -0.004556484160046906; 0.07523623851928808; -0.042555040387548676; -0.45611643332586105; -0.018252932472120356; 0.13547798239856582; -0.0673828125; -0.0166015625; -0.839599609375;0
507;2316470548; 0.9961273842404851; 0.008837143780761364; 0.07455247734867927; -0.04576098094645429; -0.5521550139073812; -0.0576702863571229; 0.14213385823867722; 0.0791015625; -0.05712890625; -0.752197265625;0
508;2316487215; 0.9962448515321551; 0.02207914868983067; 0.0686544401691331; -0.04790902664289182; -0.6481161164020675; -0.08111000158602191; 0.12990182963347283; 0.203125; -0.11669921875; -0.65771484375;0
509;2316503882; 0.9959853072121136; 0.0370125221910651; 0.060664162647682124; -0.05443528624801348; -0.7057952993057722; -0.14369815367613575; 0.10727989154493486; 0.306884765625; -0.178466796875; -0.553466796875;0
510;2316520549; 0.9951845436489216; 0.05933980158505475; 0.05304596440606572; -0.05720697239292183; -0.771178312819766; -0.1927652567720044; 0.10831022770787793; 0.389404296875; -0.25537109375; -0.449462890625;0
511;2316537216; 0.9942689079342142; 0.08180214890113513; 0.042858556403217875; -0.053859922887932406; -0.8078155904306368; -0.15482780097907164; 0.1367900463612614; 0.451171875; -0.35693359375; -0.353759765625;0
512;2316553883; 0.9938725995023313; 0.0936354072405674; 0.026547972211805857; -0.05239152260445318; -0.8121422639826124; -0.058472388521333574; 0.18217178211384255; 0.4912109375; -0.45263671875; -0.27197265625;0
513;2316570550; 0.9937345433203287; 0.09821579950787623; 0.006024384099166016; -0.0530001975014447; -0.7675722492651729; -0.00970063275563443; 0.17444345574854525; 0.514892578125; -0.51953125; -0.20751953125;0
514;2316587217; 0.9925987022627427; 0.10951827505628325; -0.013822919334152613; -0.05062104894307068; -0.715347279298445; -0.011559826183092231; 0.07454394996580038; 0.517822265625; -0.571044921875; -0.171875;0
515;2316603884; 0.9910846763489392; 0.12314621273983817; -0.02748171571700703; -0.0427893666160483; -0.6099110193563616; 0.09991781462834423; -0.02895303257310547; 0.511962890625; -0.624755859375; -0.1650390625;0
516;2316620551; 0.9917135006764888; 0.118787838001296; -0.03874897724641108; -0.02987137227043349; -0.5279909214304196; 0.27590569703837464; -0.036433628000276996; 0.498046875; -0.693603515625; -0.17041015625;0
517;2316637218; 0.993941721165028; 0.09655296149825943; -0.05029683203306384; -0.015086723993469749; -0.4496560004713752; 0.39821194630596546; -2.9156738268193427E-4; 0.47021484375; -0.752197265625; -0.208984375;0
518;2316653885; 0.9963293524995097; 0.06240785910664012; -0.05849013836658463; -0.0034618179460184084; -0.3815444860233336; 0.4089773480036562; 0.004283933972777265; 0.43310546875; -0.79443359375; -0.275634765625;0
519;2316670552; 0.9973612231210586; 0.038675532470331786; -0.06129997998873838; 0.004135970984276206; -0.34426546954219833; 0.2467347160148324; -0.011925328439890637; 0.38525390625; -0.80615234375; -0.368408203125;0
520;2316687219; 0.9974072792955955; 0.03918623797220294; -0.05939089927927899; 0.010764712933581722; -0.3221037490261083; 0.11565602610429868; -0.008742310589960195; 0.323486328125; -0.82861328125; -0.459716796875;0
521;2316703886; 0.9971752132067324; 0.04666586425177768; -0.055512227416970705; 0.019552081396850277; -0.3018390178979685; 0.12063996846917395; -0.015920762079168108; 0.24853515625; -0.875732421875; -0.538818359375;0
522;2316720553; 0.9973391391510948; 0.04207304121974553; -0.052507044332055115; 0.02806262666584164; -0.2724356396642187; 0.16498274978423727; -0.023198394976112396; 0.158447265625; -0.93798828125; -0.601806640625;0
523;2316737220; 0.9976224322835173; 0.03270485815629165; -0.05054750491241728; 0.0335384049236831; -0.2559374873629022; 0.1515478390217628; -0.018734057348220506; 0.05712890625; -0.986572265625; -0.658203125;0
524;2316753887; 0.9977809149624196; 0.025679738787547757; -0.0489854376436823; 0.03707052267526023; -0.24391210126024598; 0.1294374804243978; -0.01458293412885757; -0.048583984375; -1.025146484375; -0.710205078125;0
525;2316770554; 0.9979477481456683; 0.01757990769376122; -0.04772963084197859; 0.03889885803152616; -0.2271194604468934; 0.11954502730439494; -0.006237175169438128; -0.159912109375; -1.04541015625; -0.752685546875;0
526;2316787221; 0.998102327162466; 0.007971435467068744; -0.04693394351561079; 0.03905644217715459; -0.19575429261501634; 0.10212517566265834; 0.001539933903416342; -0.275146484375; -1.039306640625; -0.785888671875;0
527;2316803888; 0.9982344645713721; 4.886531829684793E-4; -0.04602665921520765; 0.0375401332104724; -0.1589249298066226; 0.06910429948218481; 0.0055428804947969465; -0.37646484375; -1.01806640625; -0.813720703125;0
528;2316820555; 0.9983457639550977; -0.004087307951249841; -0.04507071225631724; 0.03546350805168924; -0.12176207737849407; 0.03689334836096009; -0.001166737878084509; -0.480224609375; -0.98486328125; -0.833740234375;0
529;2316837222; 0.99851514545614; -0.004760739750571563; -0.04300288858512366; 0.03309971638951898; -0.07374736400644429; 0.006682541534550378; -0.010476586366728508; -0.574951171875; -0.94580078125; -0.83740234375;0
530;2316853889; 0.9987299011106375; -0.003237975804785742; -0.03999124355105974; 0.03047622974489493; -0.018773460114586193; -0.008620250801861417; -0.019851310083214103; -0.6630859375; -0.910400390625; -0.83203125;0
531;2316870556; 0.998995861591594; -0.0019351367625409233; -0.03569480818386916; 0.027007488541066913; 0.03492313617668509; -0.010653463265904809; -0.022458541841496215; -0.742431640625; -0.8798828125; -0.811279296875;0
532;2316887223; 0.999277097449688; -8.114293400571237E-4; -0.030404487800896666; 0.02280770081613486; 0.06608278723845663; 0.0022191888753799317; -0.024516112338109793; -0.810791015625; -0.851318359375; -0.784912109375;0
533;2316903890; 0.9994963656271081; -0.001261913617920718; -0.025179647037853317; 0.01927194975274835; 0.06455459522289887; 0.012911729988643953; -0.037154600162430065; -0.86376953125; -0.82958984375; -0.763671875;0
534;2316920557; 0.9996255683351918; -0.0032581597284949693; -0.021623747553261578; 0.016447524661214408; 0.06754793798493877; -9.584586708620544E-4; -0.050767553791769934; -0.904296875; -0.80712890625; -0.74072265625;0
535;2316937224; 0.9997543194394287; -0.003072947542201221; -0.017479766107206505; 0.013278385912638123; 0.09142031404282508; -0.013535375382501819; -0.050793932363390144; -0.93798828125; -0.788330078125; -0.71875;0
536;2316953891; 0.99987151857337; -0.0017993277890931414; -0.012051691276184275; 0.010414677271711803; 0.09086795452688962; -9.572587535363608E-4; -0.05400765370171701; -0.9658203125; -0.772216796875; -0.702880859375;0
537;2316970558; 0.999927999928939; -0.002464040992978145; -0.007804123163836024; 0.008776053882041961; 0.06701891967759668; 0.008028739294172225; -0.06122249863987163; -0.9833984375; -0.7578125; -0.691650390625;0
538;2316987225; 0.9999523722516089; -0.003036305907631043; -0.005178224410966; 0.0076954575409569695; 0.06150697255706622; -0.005609464823151703; -0.06543140340642352; -0.99609375; -0.74365234375; -0.685546875;0
539;2317003892; 0.9999726413909443; -0.0019834647281827267; -0.0024465031787381593; 0.006693053076610126; 0.08083391220705873; -0.020091126585511185; -0.06741585547937683; -1.006591796875; -0.7275390625; -0.6826171875;0
540;2317020559; 0.9999835480634529; 4.148235585414439E-4; 0.0011842694856589594; 0.0055972341052065305; 0.10004318060058658; -0.01883696815454336; -0.06685275675878148; -1.0126953125; -0.72021484375; -0.6787109375;0
541;2317037226; 0.9999742574728261; 0.0024784108115096792; 0.005044532039904265; 0.004460332725023338; 0.10468956825182618; -0.0087088574274649; -0.06782494337725932; -1.0166015625; -0.706787109375; -0.680419921875;0
542;2317053893; 0.9999507418136724; 0.004172171186854257; 0.00841971008892667; 0.003196156424894403; 0.0971056064598601; -0.006430420215770499; -0.0619768619320394; -1.0166015625; -0.704833984375; -0.6845703125;0
543;2317070560; 0.9999155394706251; 0.006046537147128772; 0.011380236188176214; 0.0016862793358743274; 0.08596584534900517; -0.0037792540689752124; -0.05584768928853228; -1.009765625; -0.70263671875; -0.6923828125;0
544;2317087227; 0.999872983313436; 0.007423171986927046; 0.014103117760139465; 1.2580534780076702E-4; 0.0777332122510682; 0.004450427047422144; -0.05238838878001443; -1.002685546875; -0.69970703125; -0.703369140625;0
545;2317103894; 0.9998277030947234; 0.00795023170185788; 0.016722730848882095; -0.001306986293854732; 0.07547378957970907; 0.012243226366457492; -0.046910335385582584; -0.9873046875; -0.703857421875; -0.7119140625;0
546;2317120561; 0.9997674283630211; 0.008348571334024446; 0.019710630673435068; -0.002623276487044239; 0.07619256452572884; 0.019944707780401846; -0.04109089861194054; -0.970703125; -0.709716796875; -0.730712890625;0
547;2317137228; 0.9996743026727485; 0.009024287482121807; 0.02356752756046712; -0.003797690861637775; 0.07059164926724482; 0.03078063901627826; -0.03684429734756908; -0.94873046875; -0.718017578125; -0.751220703125;0
548;2317153895; 0.9995507766066039; 0.009543310046915332; 0.027982443882632897; -0.004914575550234446; 0.04987108392465129; 0.044795716037013086; -0.03164085976076306; -0.9189453125; -0.72265625; -0.772216796875;0
549;2317170562; 0.9994253190263795; 0.00933230977765187; 0.0321583318259753; -0.005270804246402979; 0.019810804915356958; 0.06164847798380277; -0.025956846122968575; -0.880126953125; -0.738037109375; -0.795166015625;0
550;2317187229; 0.9993114055535741; 0.00785804829494785; 0.0359187154741006; -0.004981133026217825; -0.0030176638886061586; 0.07276659329804952; -0.01763414543215029; -0.840576171875; -0.744873046875; -0.8271484375;0
551;2317203896; 0.9991914209100684; 0.007094024086795159; 0.03929281180173105; -0.004717429669649887; -0.023930317160632694; 0.071140851470491; -0.005374454192835592; -0.79443359375; -0.751708984375; -0.852783203125;0
552;2317220563; 0.9990647472031974; 0.00795367496953403; 0.04224472598783837; -0.004664019350589327; -0.03795013935677276; 0.07381285777419797; 0.0013397810673819541; -0.7412109375; -0.758544921875; -0.875;0
553;2317237230; 0.9988621507421714; 0.009492080694956273; 0.04652394144653969; -0.0044527621857545505; -0.05357286972343337; 0.0894007398218423; 0.003123879686344269; -0.686767578125; -0.7724609375; -0.894287109375;0
