DeviceTag:;Xsens DOT 1;;;;;;;;;;;
FirmwareVersion:;1.3.0;;;;;;;;;;;
AppVersion:;2020.1.1;;;;;;;;;;;
Measurement Mode:;Inertial Mode - High Fidelity (with mag);;;;;;;;;;;
StartTime:;2020-07-29 17:14:08.110 +0200;;;;;;;;;;;
© Xsens Technologies B. V. 2005-2020;;;;;;;;;;;;
PacketCounter;SampleTimeFine;dQ_W;dQ_X;dQ_Y;dQ_Z;dV[1];dV[2];dV[3];Mag_X;Mag_Y;Mag_Z;Status
2;2315101382; 0.9999999849145946; 6.608394121515593E-5; 1.3679837888769256E-4; 8.42017022592012E-5; -0.1633104898298818; -0.0029918097600016534; -0.0036275727005392194; 1.868408203125; -1.67138671875; 0.64990234375;0
3;2315118049; 0.9999999935087418; -6.710087672856524E-5; 9.204476235682991E-5; 2.783939585415674E-6; -0.16307182156629405; -0.0023879945851771403; -0.003408691623407803; 1.865234375; -1.671875; 0.651611328125;0
4;2315134716; 0.9999999531503294; -2.949797722265335E-4; 5.751674369239291E-5; -5.8121400672517254E-5; -0.1632322049417106; -0.0017927699123885428; -0.0036189166238221604; 1.866455078125; -1.673828125; 0.650390625;0
5;2315151383; 0.999999875541915; -4.838597514569831E-4; 2.4201080277397313E-5; -1.1920655566238782E-4; -0.16352416766030498; -0.0023346619062177693; -0.004686542033118107; 1.87060546875; -1.671875; 0.652099609375;0
6;2315168050; 0.9999998734390494; -4.867937986401949E-4; 3.6200486684068174E-5; -1.2183270236831856E-4; -0.16411913319196006; -0.003684946527632106; -0.0046902404480715365; 1.870361328125; -1.6728515625; 0.651611328125;0
7;2315184717; 0.9999999587068804; -2.610918100472426E-4; 8.874826316490615E-5; -8.087675692036723E-5; -0.1639899110759622; -0.005008106666570502; -0.004715071758683229; 1.868408203125; -1.670654296875; 0.653076171875;0
8;2315201384; 0.9999999933238872; -1.0020474805083612E-5; 1.1338326298040992E-4; 1.990103726673409E-5; -0.1636223906595015; -0.004798987704992409; -0.004727757066475678; 1.872314453125; -1.671630859375; 0.651123046875;0
9;2315218051; 0.9999999866737179; 7.203396694566155E-5; 1.1177848778562427E-4; 9.470607747252836E-5; -0.16283488722133022; -0.003467929201099222; -0.0045145508382184035; 1.86865234375; -1.670654296875; 0.650146484375;0
10;2315234718; 0.9999999888518003; -3.420700184603165E-5; 1.0027306706611451E-4; 1.0522163449583344E-4; -0.16276174461655463; -0.002862293828086053; -0.004519851033301013; 1.870849609375; -1.6708984375; 0.6513671875;0
11;2315251385; 0.9999999710938752; -2.3177182694955611E-4; 2.7167447113812807E-5; 5.7930983800469356E-5; -0.16293786018198858; -0.002754862895666583; -0.004475621850764382; 1.87109375; -1.67236328125; 0.65283203125;0
12;2315268052; 0.999999933239402; -3.6404692090891144E-4; -2.2361646379726045E-5; 2.2158246738179788E-5; -0.1630740055661149; -0.003466133744871293; -0.004431350722853458; 1.867919921875; -1.671630859375; 0.65087890625;0
13;2315284719; 0.9999999154051741; -4.0801647613614156E-4; 4.2754718955262394E-5; 2.9736071271102563E-5; -0.16321765841821684; -0.004091078864355335; -0.004284417447880606; 1.8681640625; -1.670654296875; 0.650146484375;0
14;2315301386; 0.9999999171125593; -3.927588765276768E-4; 1.0207800472006313E-4; 3.3097135151816115E-5; -0.163575468358069; -0.00463666773573828; -0.004659431050007566; 1.867919921875; -1.670654296875; 0.651123046875;0
15;2315318053; 0.9999999347420756; -3.3874340155981564E-4; 1.1495738164146731E-4; 5.053269175825382E-5; -0.16387328678745922; -0.004611471761517556; -0.004492940706973772; 1.869873046875; -1.669189453125; 0.6484375;0
16;2315334720; 0.9999999673884684; -2.2962592516645453E-4; 7.374005537358343E-5; 8.400833823318798E-5; -0.16409305217979686; -0.005039949827369911; -0.005022514689727836; 1.8681640625; -1.669677734375; 0.652099609375;0
17;2315351387; 0.9999999918333753; -4.632756477851441E-5; 2.5873056607977896E-5; 1.1626517473201094E-4; -0.16368029945332216; -0.005024537101993076; -0.005204654376715877; 1.8662109375; -1.6728515625; 0.652587890625;0
18;2315368054; 0.9999999906082327; 5.4602944342840853E-5; 1.103896657633774E-5; 1.252205817650065E-4; -0.162826513860496; -0.004349121646404695; -0.004774103784958385; 1.86767578125; -1.6689453125; 0.64794921875;0
19;2315384721; 0.999999991652673; 5.670713261318738E-5; 4.181048577303615E-5; 1.0830899536645734E-4; -0.16281530604614675; -0.003926679203696392; -0.004798885149639005; 1.867431640625; -1.670166015625; 0.652099609375;0
20;2315401388; 0.9999999961731938; 5.803203234289178E-6; 4.0311859808461754E-5; 7.742666830923284E-5; -0.16281573491655965; -0.003073923909525659; -0.004889730774136479; 1.8671875; -1.67041015625; 0.651611328125;0
21;2315418055; 0.999999992767722; -9.532924073729632E-5; 4.05821019596464E-5; 6.107360051538226E-5; -0.16317419136833963; -0.0029211261156977253; -0.005057985008999968; 1.867919921875; -1.674072265625; 0.6533203125;0
22;2315434722; 0.9999999865038144; -1.6269700745363824E-4; 1.9880374125036407E-5; 1.1261682783647586E-5; -0.1632955140334993; -0.003451722719366966; -0.005305412966265757; 1.86865234375; -1.673095703125; 0.65087890625;0
23;2315451389; 0.9999999800063248; -1.997014368739225E-4; 8.089006955702695E-6; -6.422939616557156E-6; -0.16315333311702096; -0.003984062607366529; -0.005401162483217342; 1.87060546875; -1.6708984375; 0.650146484375;0
24;2315468056; 0.999999992038269; -1.233742715439079E-4; 2.2447664540348192E-5; 1.4083805948639228E-5; -0.16335574248286538; -0.004037241260279569; -0.005003816907209878; 1.869140625; -1.67138671875; 0.65283203125;0
25;2315484723; 0.9999999964353445; -5.360135103787966E-5; 6.232302355213548E-5; 1.9288515498261386E-5; -0.16367756279706852; -0.004280706314618837; -0.004819177672229245; 1.867919921875; -1.670166015625; 0.651123046875;0
26;2315501390; 0.9999999988899626; -2.0875358933469812E-5; 4.161650431594444E-5; 7.236079654637795E-6; -0.16320729414827245; -0.0037265085341170213; -0.0048885521988165995; 1.868408203125; -1.670654296875; 0.6513671875;0
27;2315518057; 0.9999999962567654; -7.650074818738029E-5; 3.3792806093724266E-5; -2.2184475587105904E-5; -0.16315762262978373; -0.0032254433331673493; -0.004957833487411474; 1.867431640625; -1.671142578125; 0.65283203125;0
28;2315534724; 0.9999999832611701; -1.773465937526253E-4; 2.9717370148729664E-5; -3.38041862502636E-5; -0.16279447291875937; -0.003762259696128801; -0.004795986049428366; 1.871337890625; -1.67041015625; 0.65185546875;0
29;2315551391; 0.9999999730126083; -2.2442085583435079E-4; 3.450405789320876E-5; -4.918873810177971E-5; -0.1626732373527961; -0.00424713578129577; -0.004810144832634866; 1.8671875; -1.671142578125; 0.653564453125;0
30;2315568058; 0.9999999731043239; -2.1761981981666123E-4; 6.899087217807077E-5; -4.090507271059529E-5; -0.16265431166850483; -0.004691851043234701; -0.004928123293158157; 1.8681640625; -1.669189453125; 0.652099609375;0
31;2315584725; 0.9999999837921228; -1.5553682839480887E-4; 8.805616024448738E-5; -2.1683213425161E-5; -0.16314295071767654; -0.004977999388947638; -0.004911576918735366; 1.868408203125; -1.668701171875; 0.6513671875;0
32;2315601392; 0.999999995591188; -3.121688926965849E-5; 8.7857585769624E-5; -1.1143361410337338E-5; -0.16377526885365623; -0.0049317122807829294; -0.004719513040269678; 1.871337890625; -1.67041015625; 0.649658203125;0
33;2315618059; 0.9999999953513441; 5.619874425322191E-5; 7.826651514336591E-5; 3.655921960721287E-6; -0.16363392504717136; -0.004678238889720812; -0.005235934046481115; 1.869140625; -1.6708984375; 0.655029296875;0
34;2315634726; 0.9999999953293732; 8.431139634235141E-5; 4.722173091117888E-5; 1.717556627645056E-6; -0.16363599676158583; -0.004607929740446194; -0.005121926085563264; 1.86865234375; -1.669677734375; 0.65234375;0
35;2315651393; 0.9999999945675629; 9.026152499264084E-5; 4.9540299344008616E-5; -1.6232373860447517E-5; -0.16351483020139512; -0.0038785651358955626; -0.004783426543662282; 1.870849609375; -1.669677734375; 0.6533203125;0
36;2315668060; 0.9999999936259005; 7.607693516781255E-5; 7.185399886874834E-5; -4.239695556490508E-5; -0.16349699839828924; -0.003927766758384344; -0.004401971669603495; 1.86865234375; -1.667236328125; 0.651611328125;0
37;2315684727; 0.9999999947236784; 4.322856140498432E-5; 8.050295800673957E-5; -4.693834513819218E-5; -0.16332114314542415; -0.004009528625206624; -0.004628574983022694; 1.87158203125; -1.672607421875; 0.653564453125;0
38;2315701394; 0.9999999921600573; 8.671918435815273E-5; 6.073742223311474E-5; -6.6862799920131E-5; -0.1632480561452881; -0.004229641995062577; -0.0047413134728512; 1.8681640625; -1.66943359375; 0.65380859375;0
39;2315718061; 0.9999999826082295; 1.6734800146422923E-4; 4.976060744132927E-5; -6.559015904411548E-5; -0.16305801405797204; -0.0039948818716595315; -0.004654525983279208; 1.87109375; -1.669189453125; 0.652099609375;0
40;2315734728; 0.9999999697442401; 2.2792891708212082E-4; 4.666955471097079E-5; -7.988667108088654E-5; -0.16306919697308134; -0.0039873148566212865; -0.004952981532167347; 1.8701171875; -1.66943359375; 0.653564453125;0
41;2315751395; 0.9999999587455757; 2.6699237949673327E-4; 2.421495006219021E-5; -1.0313851121579455E-4; -0.1632992688544989; -0.0036257497003897264; -0.005087113321744406; 1.87109375; -1.669189453125; 0.652099609375;0
42;2315768062; 0.9999999559781786; 2.589758889962601E-4; 2.787988424932109E-5; -1.4211911115719067E-4; -0.1630980507992098; -0.003233614472147626; -0.004986183148171702; 1.87060546875; -1.670166015625; 0.65576171875;0
43;2315784729; 0.9999999725143437; 1.6300332060070755E-4; 2.8175085516557455E-5; -1.6615472835840309E-4; -0.1631638019442383; -0.0029386639800055223; -0.005208739248663594; 1.87158203125; -1.671142578125; 0.6533203125;0
44;2315801396; 0.9999999826189301; 4.587105861370011E-5; 3.635486259026544E-5; -1.7702064718283506E-4; -0.16312129160587027; -0.002533048164146578; -0.004972918983818214; 1.871826171875; -1.670654296875; 0.654296875;0
45;2315818063; 0.9999999838992797; -5.065468880888213E-5; 7.217490551369998E-5; -1.5628923812971432E-4; -0.16321020319304524; -0.0031454874341219075; -0.004944821861256853; 1.86865234375; -1.66845703125; 0.654296875;0
46;2315834730; 0.9999999852999364; -8.749221623804981E-6; 8.100493947063582E-5; -1.5087006986086449E-4; -0.163593375506922; -0.0034249024173393754; -0.004644030466156454; 1.87158203125; -1.671875; 0.657470703125;0
47;2315851397; 0.9999999897256915; 7.5062602735709305E-6; 2.6345186800252888E-5; -1.4070609140531823E-4; -0.16368527487454965; -0.0035680006465034463; -0.004397426823274278; 1.8701171875; -1.66796875; 0.6533203125;0
48;2315868064; 0.9999999883700095; -2.3817384227686755E-5; 1.8648352333894284E-5; -1.4948227974664885E-4; -0.1633859709888484; -0.0033632168720680485; -0.004498855116046627; 1.86865234375; -1.6669921875; 0.655517578125;0
49;2315884731; 0.9999999788513009; -1.1345297561976553E-4; 3.7112863526811424E-6; -1.714994067074094E-4; -0.1625265800167091; -0.0032723944873322974; -0.004169721127344803; 1.86865234375; -1.66650390625; 0.65380859375;0
50;2315901398; 0.9999999516024201; -2.4147801240465006E-4; -7.041166697974167E-6; -1.9604578314336152E-4; -0.16296248251489548; -0.0032392426018600165; -0.004521407394541689; 1.870849609375; -1.668701171875; 0.6552734375;0
51;2315918065; 0.9999999243684191; -3.371233146407526E-4; -3.3888174222562746E-5; -1.909518746178174E-4; -0.16343314792644253; -0.0035536348054156577; -0.005282776258605841; 1.873291015625; -1.664794921875; 0.656005859375;0
52;2315934732; 0.9999999337341785; -3.266816080252921E-4; -1.1999053482009138E-5; -1.6020857750476125E-4; -0.16376025903883057; -0.004416075746589563; -0.005058797959626472; 1.872802734375; -1.6669921875; 0.654296875;0
53;2315951399; 0.9999999788074645; -1.6344440137150418E-4; 2.8216768046679386E-5; -1.2196233885208853E-4; -0.16362482247955323; -0.005480658458704223; -0.005181084268369926; 1.87109375; -1.665771484375; 0.653564453125;0
54;2315968066; 0.9999999983142601; 8.968927186325804E-6; 3.722763828245546E-5; -4.36479207605589E-5; -0.1631747825159582; -0.005036893589872991; -0.004555681039173143; 1.87060546875; -1.665283203125; 0.6533203125;0
55;2315984733; 0.9999999964663951; 6.487263533672127E-5; 2.2309456012448162E-5; 4.859052427153011E-5; -0.16238393381452398; -0.0038897443553156767; -0.00432406463995965; 1.874267578125; -1.6650390625; 0.651123046875;0
56;2316001400; 0.9999999990831353; -2.9409220742293574E-5; 3.1422035653705387E-6; 3.096697617288591E-5; -0.16246048073231228; -0.003674174467378801; -0.0045604768137826115; 1.86962890625; -1.663330078125; 0.654296875;0
57;2316018067; 0.9999999684852414; -2.2734577243488374E-4; -1.065000760639423E-4; -1.0722043953803608E-6; -0.16288099210869744; -0.0031254249391277668; -0.004966041907684023; 1.873779296875; -1.666259765625; 0.65478515625;0
58;2316034734; 0.9999999315207773; -3.496520438270867E-4; -1.210578485395797E-4; 6.8473699162407975E-6; -0.16270578914744255; -0.0032868109771770314; -0.00526183003707003; 1.873291015625; -1.666015625; 0.65283203125;0
59;2316051401; 0.9999998705711451; -5.084983107861984E-4; 1.3558628535192964E-5; 1.0164864226447358E-5; -0.16299696484430948; -0.004136996987265794; -0.004833480262539665; 1.87109375; -1.665771484375; 0.65185546875;0
60;2316068068; 0.9999998728397148; -5.033561467492897E-4; 2.4321433825358344E-5; 1.901609329046927E-5; -0.16371736089502897; -0.005692472176651114; -0.004543968715957546; 1.871826171875; -1.66552734375; 0.6552734375;0
61;2316084735; 0.9999999432652457; -3.337094901927351E-4; -2.3004968503270717E-5; 3.972723368128595E-5; -0.16349885044569235; -0.006988949061414545; -0.003948476903982798; 1.872314453125; -1.6630859375; 0.653076171875;0
62;2316101402; 0.9999999950757547; -6.237795920943645E-5; -2.0501933604116788E-5; 7.44120390502867E-5; -0.16353901829722156; -0.007390234598333264; -0.004795569923692185; 1.871337890625; -1.666748046875; 0.652587890625;0
63;2316118069; 0.9999999864042601; 1.3366819719790035E-4; -2.30099258548E-5; 9.378078696520299E-5; -0.16350351713819192; -0.006110608424158486; -0.005078030215752177; 1.873779296875; -1.66552734375; 0.651123046875;0
64;2316134736; 0.9999999645721585; 2.3932729445164114E-4; -5.69389765400219E-5; 1.0166651801113424E-4; -0.1627431214569007; -0.0049030378969761; -0.005031637965485475; 1.87353515625; -1.6669921875; 0.652099609375;0
65;2316151403; 0.9999999655383884; 2.4021337933133324E-4; -2.4624524179950313E-5; 1.0302614839430292E-4; -0.16241684344357238; -0.004543183560468466; -0.004906147266213093; 1.873046875; -1.665771484375; 0.651611328125;0
66;2316168070; 0.9999999777613944; 1.9346517056673118E-4; 5.287766060513289E-6; 8.378829268862464E-5; -0.16261211304326537; -0.004247476850052188; -0.005363426187673659; 1.870849609375; -1.663818359375; 0.654052734375;0
67;2316184737; 0.999999993810981; 9.003387079536962E-5; -1.1534303822696714E-5; 6.433428232788253E-5; -0.16283538140202364; -0.0034349208170670054; -0.0052998508287968316; 1.871337890625; -1.6650390625; 0.654541015625;0
68;2316201404; 0.9999999992041759; -2.222156166709066E-5; -1.322524338173703E-5; 3.0379982953909757E-5; -0.16318587041367746; -0.003989778657213408; -0.005347843405090633; 1.87255859375; -1.66650390625; 0.6533203125;0
69;2316218071; 0.9999999973876936; -7.205955555172894E-5; 4.360742150627539E-6; -3.6079019065105027E-6; -0.16350163675899615; -0.004383936069309351; -0.005493761863247411; 1.874267578125; -1.665771484375; 0.653564453125;0
70;2316234738; 0.9999999990743366; -1.9944363173263202E-5; 3.8095454761188925E-5; -1.5117806553277546E-6; -0.1635511501050163; -0.004622216569171302; -0.0052612249923274165; 1.871826171875; -1.665283203125; 0.6513671875;0
71;2316251405; 0.9999999974637788; 3.061152500444253E-5; 5.509779305165608E-5; 3.316037153122676E-5; -0.16396013146258587; -0.004900163795485444; -0.004773574892438015; 1.873779296875; -1.6669921875; 0.6533203125;0
72;2316268072; 0.9999999982110205; 5.18929211343333E-5; 1.5404056235041045E-5; 2.54518913844759E-5; -0.16356887032122117; -0.004614295547533984; -0.004749006211102129; 1.870849609375; -1.663330078125; 0.65185546875;0
73;2316284739; 0.9999999995900095; -9.221347221644027E-6; -2.033339837057002E-5; 1.793043856246346E-5; -0.1629617310637842; -0.004249432027711511; -0.004506179483948249; 1.86962890625; -1.666259765625; 0.654541015625;0
74;2316301406; 0.9999999930381273; -1.1307087315803876E-4; -2.7586686955960452E-5; -1.943444848667708E-5; -0.16320586232289083; -0.0046160647561039846; -0.005088742021409305; 1.873291015625; -1.6650390625; 0.654296875;0
75;2316318073; 0.9999999822427816; -1.8416520595671004E-4; -1.6133660359241023E-5; -3.656936294621494E-5; -0.1631866684508775; -0.0050995245114035526; -0.005179643302301168; 1.870849609375; -1.665771484375; 0.65283203125;0
76;2316334740; 0.9999999755959401; -2.0941026673820806E-4; -6.625423628142669E-6; -7.008254674184533E-5; -0.1634148673076498; -0.0057650364155238006; -0.005403385667319148; 1.8720703125; -1.664306640625; 0.64990234375;0
77;2316351407; 0.9999999905507564; -1.1769176132914172E-4; 7.185337291465421E-6; -7.067890353862351E-5; -0.1640029853642661; -0.006629542245648459; -0.005147745559308817; 1.8720703125; -1.665283203125; 0.652587890625;0
78;2316368074; 0.9999999964346956; 8.177997916258839E-5; -1.2402387617876933E-5; -1.6994837476747016E-5; -0.16393682199211432; -0.007119681464208005; -0.004980799895487886; 1.87255859375; -1.6650390625; 0.65478515625;0
79;2316384741; 0.9999999556620984; 2.911039073231203E-4; -4.012404836534201E-5; 4.821179597047643E-5; -0.16380801357690233; -0.006807407795146735; -0.0047567010305101035; 1.874267578125; -1.666259765625; 0.655517578125;0
80;2316401408; 0.9999999161355417; 3.9723018274584465E-4; -7.418625669056157E-5; 6.658446445495514E-5; -0.1632651949290396; -0.0061773108206412165; -0.005047899752185767; 1.872314453125; -1.66357421875; 0.6533203125;0
81;2316418075; 0.9999999011145296; 4.2869908588100136E-4; -8.513533591986144E-5; 8.209749837490012E-5; -0.1632852178288332; -0.005196476465317554; -0.004907937564756881; 1.871337890625; -1.6650390625; 0.654541015625;0
82;2316434742; 0.9999999265900268; 3.622162194270029E-4; -9.493662982210106E-5; 8.12796878164046E-5; -0.1632047953196491; -0.004322602668490761; -0.005246243508328717; 1.86865234375; -1.66455078125; 0.6533203125;0
83;2316451409; 0.9999999715765779; 2.1506001979032519E-4; -8.650267528914625E-5; 5.579711928904719E-5; -0.16325607053084087; -0.0039660105472978935; -0.00516967159735629; 1.871337890625; -1.667724609375; 0.653564453125;0
84;2316468076; 0.9999999931841603; 9.582500480731504E-5; -5.8594351469043466E-5; 3.18739659144196E-5; -0.16305816311265844; -0.004299954898872915; -0.0050835928034652506; 1.8720703125; -1.66552734375; 0.654296875;0
85;2316484743; 0.9999999939269006; 8.297008830737695E-5; -4.92599745634259E-5; 5.325052008425813E-5; -0.16313802924809195; -0.004933095335647796; -0.004993968078599434; 1.87158203125; -1.6640625; 0.65380859375;0
86;2316501410; 0.9999999835359954; 1.3735366404199478E-4; -5.956796909684093E-5; 1.0253602703946818E-4; -0.16301244814241855; -0.005058597332313473; -0.005100572885478494; 1.87060546875; -1.665771484375; 0.6533203125;0
87;2316518077; 0.9999999671578076; 2.0396220064033965E-4; -7.035458451057354E-5; 1.383258361041251E-4; -0.16318916424353894; -0.005170956173066593; -0.004853540519519417; 1.869140625; -1.666015625; 0.654296875;0
88;2316534744; 0.9999999501800351; 2.604359588401217E-4; -8.23905010686188E-5; 1.5819242750164664E-4; -0.16300514898044202; -0.005023958021568901; -0.005030861602174405; 1.873291015625; -1.66943359375; 0.655029296875;0
89;2316551411; 0.9999999389351879; 2.910765162583151E-4; -1.0148514783978047E-4; 1.6463549712875117E-4; -0.16314749501383458; -0.004753030335600244; -0.005029040212607187; 1.870849609375; -1.666748046875; 0.654296875;0
90;2316568078; 0.9999999450176473; 2.744037657810283E-4; -7.746433816449573E-5; 1.693119963613321E-4; -0.16321280954560083; -0.004239986621703388; -0.0050399623923701245; 1.870361328125; -1.667724609375; 0.65673828125;0
91;2316584745; 0.9999999583050222; 2.2971743205008055E-4; -8.497171952470685E-5; 1.5296948135912206E-4; -0.162968087154229; -0.0039417838578130505; -0.0048866701623021674; 1.8701171875; -1.6689453125; 0.653564453125;0
92;2316601412; 0.9999999724692785; 1.495663293853977E-4; -9.740125129531486E-5; 1.5232974652407139E-4; -0.16325139731721627; -0.003999150746689092; -0.00511829159863169; 1.868408203125; -1.668701171875; 0.656494140625;0
93;2316618079; 0.9999999754354685; 5.2033077299507013E-5; -1.2336227119119636E-4; 1.7664476056944436E-4; -0.16287800070553196; -0.004178247487392414; -0.005261383680090444; 1.869384765625; -1.66845703125; 0.65380859375;0
94;2316634746; 0.9999999798734821; -1.8004458964715475E-5; -9.196382718154596E-5; 1.7740216833084244E-4; -0.1624122445133543; -0.004502613670294874; -0.005310483319048702; 1.870361328125; -1.668212890625; 0.654541015625;0
95;2316651413; 0.9999999835668401; -1.878734276705707E-6; -4.494923061232337E-5; 1.7561992139281116E-4; -0.16275329871533276; -0.005540198536616858; -0.0050680490498991315; 1.866943359375; -1.669677734375; 0.653564453125;0
96;2316668080; 0.9999999732360526; 1.1557333894701705E-4; -3.6121814623646393E-5; 1.971443936523154E-4; -0.1630446505534477; -0.005919191217993381; -0.0046467821672483214; 1.867919921875; -1.668212890625; 0.65234375;0
97;2316684747; 0.9999999421416736; 2.595353890138541E-4; -6.770305383405062E-5; 2.0922315339289013E-4; -0.16307351839665396; -0.0054233011628029085; -0.004427226906723092; 1.865966796875; -1.66845703125; 0.653076171875;0
98;2316701414; 0.9999999248841802; 3.183000039764794E-4; -7.013318284360139E-5; 2.097571888001193E-4; -0.16328156074230463; -0.005155375849511239; -0.004347424438890392; 1.872314453125; -1.66796875; 0.654296875;0
99;2316718081; 0.999999932761574; 3.000793917008471E-4; -1.0056901792085406E-4; 1.8524329655739138E-4; -0.1627852316717537; -0.004016691521230822; -0.003937728412779604; 1.8681640625; -1.669921875; 0.65576171875;0
100;2316734748; 0.9999999608836134; 2.3072268450191613E-4; -7.955374281706785E-5; 1.3664192826473576E-4; -0.16230419902411702; -0.0038833147294946684; -0.003966173052431958; 1.868896484375; -1.669921875; 0.653564453125;0
101;2316751415; 0.9999999734596658; 1.6094914020925444E-4; -7.59937722566717E-5; 1.4629076742150862E-4; -0.16330294487241387; -0.0038740553214397476; -0.004499518323171345; 1.867919921875; -1.671875; 0.6572265625;0
102;2316768082; 0.9999999778605966; 1.3956241330159713E-4; -5.005048264700163E-5; 1.4931874801121792E-4; -0.16415854042607658; -0.0039617979568991706; -0.004698215840454774; 1.86865234375; -1.67138671875; 0.654296875;0
103;2316784749; 0.9999999614700825; 2.1732934259333092E-4; -3.145784240876637E-6; 1.7267858671748962E-4; -0.164034126917947; -0.004832155737777906; -0.004603326834854385; 1.868408203125; -1.670654296875; 0.6513671875;0
104;2316801416; 0.9999999392179995; 2.8743299989608673E-4; 2.0888601174912095E-5; 1.9623948221880738E-4; -0.16358488023124526; -0.004845696623112364; -0.004242135119469061; 1.869873046875; -1.672119140625; 0.656982421875;0
105;2316818083; 0.9999999179295166; 3.382400022806653E-4; 2.8028759826687066E-5; 2.2124432134706942E-4; -0.16317048514881372; -0.004050740252576984; -0.004076631853627936; 1.86767578125; -1.6728515625; 0.657958984375;0
106;2316834750; 0.999999941153246; 2.669010508034031E-4; 2.3566101073069228E-6; 2.155267504003744E-4; -0.16271741329526407; -0.00353023212873832; -0.004054681285938923; 1.868408203125; -1.6728515625; 0.6552734375;0
107;2316851417; 0.9999999759066713; 1.5802287949312488E-4; -4.441907013263969E-5; 1.4574763301850038E-4; -0.1628205394254665; -0.003667512379301005; -0.004003706745792729; 1.8662109375; -1.669677734375; 0.65625;0
108;2316868084; 0.9999999849371493; 8.78035206663963E-5; -8.389359725574642E-5; 1.240084976119049E-4; -0.16292539511155724; -0.003624716458260159; -0.004082147098469206; 1.866943359375; -1.673583984375; 0.65673828125;0
109;2316884751; 0.999999988675724; 4.241720902187218E-5; -1.6072420267188026E-6; 1.4438403289351867E-4; -0.162681386933984; -0.00364803182511534; -0.004297319358107239; 1.8662109375; -1.67431640625; 0.65869140625;0
110;2316901418; 0.9999999853907064; 3.511373790576755E-5; 5.9632156641065144E-5; 1.5629977033770892E-4; -0.1628704906116783; -0.004195655850564837; -0.004518922694282813; 1.866943359375; -1.6728515625; 0.658447265625;0
111;2316918085; 0.9999999870345023; 3.132730123150962E-5; 7.002308329090436E-5; 1.415851800316559E-4; -0.16317474755575204; -0.004435029429086343; -0.0048276777523676775; 1.86767578125; -1.67529296875; 0.65673828125;0
112;2316934752; 0.9999999802522149; 1.2901017461131037E-4; 2.9950790546628973E-5; 1.4817184200854872E-4; -0.16307406038188565; -0.005026032334393232; -0.004359899498376604; 1.867919921875; -1.67578125; 0.659912109375;0
113;2316951419; 0.9999999379032821; 3.1220590298375317E-4; 2.3332358158795197E-5; 1.617915544132598E-4; -0.16305717555464877; -0.004554867450120955; -0.004343828663797976; 1.8681640625; -1.67333984375; 0.658203125;0
114;2316968086; 0.9999998778568007; 4.573638870090657E-4; 1.868956551226431E-5; 1.8642789159489803E-4; -0.16351545968972367; -0.00374166632913734; -0.004462308032887989; 1.8623046875; -1.67578125; 0.657958984375;0
115;2316984753; 0.9999998575610366; 4.944955135413043E-4; 3.729076979114288E-5; 1.9738665646723555E-4; -0.162987454026237; -0.002533880343587161; -0.0042666135918748085; 1.86669921875; -1.67578125; 0.65966796875;0
116;2317001420; 0.9999999040237431; 3.9690497893490884E-4; 5.9925923166670454E-5; 1.7557854691918617E-4; -0.16286575310225684; -0.001616600688668677; -0.004461965726023975; 1.8681640625; -1.677001953125; 0.661376953125;0
117;2317018087; 0.999999963460984; 1.9307589536832204E-4; 7.008933561575281E-5; 1.7574758729033138E-4; -0.16311864041294225; -5.549955572948378E-4; -0.005016616472576903; 1.865234375; -1.677001953125; 0.66064453125;0
118;2317034754; 0.9999999810612323; -7.756270040071289E-5; 7.115828288806193E-5; 1.6370113378932905E-4; -0.1630371726487823; -0.00104579506852202; -0.005078334876032833; 1.866943359375; -1.676025390625; 0.66259765625;0
119;2317051421; 0.9999999567283386; -2.705434537924045E-4; 6.031685911919716E-5; 9.854662335861965E-5; -0.16337616467073335; -0.0018850246346907885; -0.005196044830575876; 1.8681640625; -1.677001953125; 0.6630859375;0
120;2317068088; 0.9999999441943058; -3.153703330695534E-4; 6.729754234566233E-5; 8.731539952694378E-5; -0.16328520056182538; -0.002967978676862923; -0.005192371229992887; 1.869384765625; -1.675048828125; 0.6611328125;0
121;2317084755; 0.999999961989205; -2.4299465794974662E-4; 5.2037590513254184E-5; 1.1944569461880274E-4; -0.163549839666994; -0.003528845515690819; -0.005048241651339741; 1.865966796875; -1.67578125; 0.661865234375;0
122;2317101422; 0.9999999675597881; -2.021656537730121E-4; 3.431644275719848E-5; 1.511021274651081E-4; -0.16349069146455528; -0.0037695679564639165; -0.0049000576631881496; 1.867919921875; -1.676513671875; 0.661865234375;0
123;2317118089; 0.9999999702119347; -1.9301888069289674E-4; 1.6594324718233192E-5; 1.484738018124321E-4; -0.1634172218484753; -0.0034504848540801887; -0.005181251746322002; 1.86279296875; -1.67626953125; 0.66015625;0
124;2317134756; 0.9999999610555613; -2.318806589345357E-4; 1.6679176763484408E-5; 1.5440868139188213E-4; -0.16331829871750575; -0.0030883450586781935; -0.005030750974903665; 1.86376953125; -1.67919921875; 0.659912109375;0
125;2317151423; 0.9999999592058686; -2.4525541950976004E-4; 5.687968574863422E-6; 1.4630682663985264E-4; -0.1633789888258532; -0.003954211254131156; -0.005194784751969279; 1.865234375; -1.676025390625; 0.65869140625;0
126;2317168090; 0.999999963372513; -2.2106767996543653E-4; -3.566407858052179E-5; 1.520267315138213E-4; -0.16368469078454587; -0.00439280449635358; -0.005274365475681837; 1.8642578125; -1.67578125; 0.657958984375;0
127;2317184757; 0.9999999737199768; -1.4413873294860657E-4; -5.332190453999353E-5; 1.7012009178885015E-4; -0.1636541335814305; -0.004396274164820212; -0.004996713793537222; 1.862548828125; -1.6767578125; 0.659423828125;0
128;2317201424; 0.9999999799615487; -5.41358886493315E-5; -6.30564467799244E-5; 1.8212658295752027E-4; -0.16378043125068772; -0.00406074368940244; -0.005000703484675843; 1.864501953125; -1.677490234375; 0.658935546875;0
129;2317218091; 0.9999999841728957; 7.6311459680789E-6; -4.2670127314570205E-5; 1.7255501803026266E-4; -0.16396016534222918; -0.0037028143325808227; -0.004705085479763643; 1.866455078125; -1.6796875; 0.663330078125;0
130;2317234758; 0.9999999825734363; 2.3868551877748168E-6; -5.4512826783564845E-5; 1.785379006685739E-4; -0.1641872780775953; -0.0030229420860757895; -0.004832363195206413; 1.86572265625; -1.676513671875; 0.658935546875;0
131;2317251425; 0.9999999811905596; -8.694013214299856E-5; -9.359166567696199E-5; 1.4594825841834916E-4; -0.16399556296053464; -0.0032811269256056257; -0.0046863481384098946; 1.864501953125; -1.67724609375; 0.6572265625;0
132;2317268092; 0.9999999733571313; -1.8496515271881897E-4; -9.514612931796342E-5; 1.0010416081712714E-4; -0.16343647271366313; -0.0034355895819417268; -0.004430692444591919; 1.867431640625; -1.6767578125; 0.6572265625;0
133;2317284759; 0.9999999686788411; -2.234168561542349E-4; -8.839759279311021E-5; 7.0093443496011E-5; -0.16365384680251294; -0.0038899094164985965; -0.00418984210639263; 1.863525390625; -1.6787109375; 0.658447265625;0
134;2317301426; 0.9999999797609886; -1.7719945480149102E-4; -8.160318415631475E-5; 4.9186337473527963E-5; -0.16400647436649474; -0.003948414717610094; -0.004467053658758574; 1.864501953125; -1.677734375; 0.65673828125;0
135;2317318093; 0.9999999936055276; -4.507242476969875E-5; -9.719384926432097E-5; 3.6204653289961815E-5; -0.1647998680674177; -0.0042146690940286745; -0.004389516323655397; 1.86669921875; -1.67919921875; 0.659912109375;0
136;2317334760; 0.9999999860500968; 8.587000237919584E-5; -1.395884209056675E-4; 3.2267969417798525E-5; -0.16486650522417493; -0.004341082911390019; -0.00481202658005455; 1.8662109375; -1.678955078125; 0.657958984375;0
137;2317351427; 0.9999999895460393; 8.788406952875416E-5; -1.076636773017503E-4; 3.991045107526459E-5; -0.16481352917338654; -0.0034791446038355163; -0.004837763720260582; 1.86572265625; -1.6748046875; 0.654541015625;0
138;2317368094; 0.9999999960545265; 3.210339042364341E-5; -7.994367357538891E-5; 2.1663984393904823E-5; -0.16497605243071067; -0.0035915182008166777; -0.004843768809053961; 1.8623046875; -1.677001953125; 0.657958984375;0
139;2317384761; 0.9999999930330863; -4.9922816185432595E-6; -1.1695518319965183E-4; 1.5178588305742037E-5; -0.16458873330071186; -0.004190212779501379; -0.004842515560377882; 1.865478515625; -1.677734375; 0.656494140625;0
140;2317401428; 0.9999999781169588; 5.518446397895227E-5; -1.998839816305942E-4; -2.7697483188704464E-5; -0.16392556135022737; -0.004521256732448901; -0.00474949266856152; 1.865234375; -1.676513671875; 0.658447265625;0
141;2317418095; 0.9999999536461714; 1.6402537556658991E-4; -2.4177572179309714E-4; -8.571949416169568E-5; -0.16378426765640788; -0.004197318770324348; -0.004775586046359817; 1.865478515625; -1.67578125; 0.656005859375;0
142;2317434762; 0.9999999338769655; 2.1847406970842975E-4; -2.662134713401488E-4; -1.168140970475573E-4; -0.16410223958294143; -0.0036464661310952814; -0.004232239540093517; 1.868408203125; -1.67626953125; 0.656005859375;0
143;2317451429; 0.9999999312093051; 2.2714357074443692E-4; -2.682809145630461E-4; -1.1837455021879163E-4; -0.16505708270963887; -0.003325032733014509; -0.0045091032303305675; 1.865478515625; -1.67822265625; 0.656494140625;0
144;2317468096; 0.9999999246623199; 2.284822563589639E-4; -2.619418239794003E-4; -1.7279379045842536E-4; -0.16436588723814924; -0.0029787212576524134; -0.00472982940213626; 1.865478515625; -1.67626953125; 0.656005859375;0
145;2317484763; 0.999999926278565; 1.4783507675159013E-4; -2.1098718244955128E-4; -2.8473156387553994E-4; -0.16346403180716942; -0.003133943750671657; -0.004342973119866277; 1.86572265625; -1.673583984375; 0.656494140625;0
146;2317501430; 0.9999999411726053; 5.18118782517063E-5; -1.7026305245523846E-4; -2.9322484237009894E-4; -0.16284279586593697; -0.0036124880828977725; -0.003955735702557882; 1.865966796875; -1.6748046875; 0.654052734375;0
147;2317518097; 0.9999999407905729; 1.3246770679781195E-4; -1.7290855302323774E-4; -2.6640906448588414E-4; -0.1620176196470418; -0.0045767875255152204; -0.003345030652564508; 1.865478515625; -1.67529296875; 0.65576171875;0
148;2317534764; 0.999999913152106; 2.4020547136455184E-4; -1.817047164960062E-4; -2.880633747577299E-4; -0.16105595657850116; -0.004848383627262507; -0.0027507087039308695; 1.865478515625; -1.673583984375; 0.6572265625;0
149;2317551431; 0.9999998802652263; 3.196115467458127E-4; -1.644364370214646E-4; -3.3208229458525645E-4; -0.16163202104517677; -0.004953396344364803; -0.0026248694148211377; 1.865478515625; -1.67431640625; 0.65380859375;0
150;2317568098; 0.9999998512530697; 3.937857460222238E-4; -1.5008884155381932E-4; -3.4626574256357845E-4; -0.1617684371612156; -0.004617854351490286; -0.002469208475186009; 1.865478515625; -1.67431640625; 0.65380859375;0
151;2317584765; 0.9999997844621888; 4.603658100049701E-4; -1.2621946522450858E-4; -4.507854738308726E-4; -0.16171964574583916; -0.004422683090820379; -0.0026440011150208192; 1.868408203125; -1.673095703125; 0.65185546875;0
152;2317601432; 0.999999732310948; 4.668919184054321E-4; -7.582996047725278E-5; -5.582470656134153E-4; -0.16182706968993066; -0.0038481389711918015; -0.00285693069424698; 1.8662109375; -1.672607421875; 0.656982421875;0
153;2317618099; 0.9999996980731815; 4.8517507421985684E-4; -6.517118637491826E-5; -6.03499303914179E-4; -0.16132659651193987; -0.003652346928536082; -0.0018713034762046707; 1.8681640625; -1.67333984375; 0.656494140625;0
154;2317634766; 0.9999997064103213; 4.1101755488109903E-4; 4.21083843766823E-5; -6.453454305295203E-4; -0.16239400773439283; -0.003954056316475503; -0.002149350138900545; 1.86865234375; -1.67236328125; 0.656494140625;0
155;2317651433; 0.9999997155189274; 3.6883465424031314E-4; 4.657351787012987E-5; -6.563184969501924E-4; -0.16415829003212204; -0.0037953615718135623; -0.002603670441301456; 1.8671875; -1.67333984375; 0.657470703125;0
156;2317668100; 0.9999996943713699; 3.929053227397783E-4; 5.0167649316007486E-5; -6.740665998285489E-4; -0.16403552563544993; -0.004490278250419984; -0.0021859923989737615; 1.8701171875; -1.672119140625; 0.656005859375;0
157;2317684767; 0.9999997102495745; 4.0193390108728133E-4; 1.0726623972975857E-4; -6.375294973956503E-4; -0.16326585808461216; -0.005670641009236081; -0.001316415801231395; 1.86767578125; -1.67041015625; 0.657470703125;0
158;2317701434; 0.9999997232607265; 4.391767284339654E-4; 1.8385544720117555E-4; -5.716637527669044E-4; -0.16242747038408265; -0.005938836487056946; -0.0013459952696536007; 1.86962890625; -1.668212890625; 0.655029296875;0
159;2317718101; 0.9999997078739697; 4.8703916137038394E-4; 2.5875803526148605E-4; -5.292344562685681E-4; -0.16235937579292348; -0.006347803406189824; -0.0017798710479110594; 1.87060546875; -1.6689453125; 0.659423828125;0
160;2317734768; 0.9999997555846216; 4.634855322317444E-4; 2.238689940901595E-4; -4.731749485448189E-4; -0.16302338373955072; -0.006329258077463366; -0.0022327069177860356; 1.870361328125; -1.66845703125; 0.660400390625;0
161;2317751435; 0.9999998012183902; 4.330087894924839E-4; 1.2041589781802697E-4; -4.4222910343455496E-4; -0.16256870848027588; -0.00669218095054578; -0.0024510434813394613; 1.87060546875; -1.66650390625; 0.659423828125;0
162;2317768102; 0.9999997875804714; 4.5646176375985226E-4; 1.4288219242464264E-4; -4.4279380013234615E-4; -0.16138084339153996; -0.007743029654713789; -0.0023921541616376135; 1.8701171875; -1.6669921875; 0.65869140625;0
163;2317784769; 0.9999997098938663; 5.43558524133847E-4; 3.0755527650785935E-4; -4.360803435237149E-4; -0.16134322673845258; -0.008994899283058504; -0.0020632733261670214; 1.869140625; -1.6650390625; 0.66162109375;0
164;2317801436; 0.999999623481548; 5.910978337527739E-4; 4.2940924954185117E-4; -4.6823905160980894E-4; -0.16253590472525953; -0.009221879920788992; -0.0027061011826601603; 1.87060546875; -1.666259765625; 0.663330078125;0
165;2317818103; 0.9999996588678439; 4.531587812027782E-4; 3.623695556060902E-4; -5.878772150771928E-4; -0.16347045552181666; -0.008939649274449853; -0.0030799822082796732; 1.87060546875; -1.6650390625; 0.665283203125;0
166;2317834770; 0.9999996209795465; 2.72631564452841E-4; 3.331701708050861E-4; -7.567763413248163E-4; -0.16343910902386133; -0.008099781993896348; -0.0032954581166116034; 1.870849609375; -1.6640625; 0.666259765625;0
167;2317851437; 0.999999666322762; -4.6875508353916295E-5; 2.5555029906254584E-4; -7.745005460202959E-4; -0.16504149527681333; -0.0066522046632928634; -0.003730264923609658; 1.873779296875; -1.66552734375; 0.66650390625;0
168;2317868104; 0.999999531819161; -5.345108416764388E-4; 2.758265994363685E-4; -7.580100960861702E-4; -0.16697152533719098; -0.007748158110805117; -0.0030002123053027574; 1.873779296875; -1.66357421875; 0.666015625;0
169;2317884771; 0.9999992982535467; -5.614752197639072E-4; 2.9409467684163304E-4; -0.0010008727755002613; -0.16957188962636427; -0.009885074584537194; -0.003668314124909852; 1.87548828125; -1.66015625; 0.663818359375;0
170;2317901438; 0.9999986960178326; -3.124626767145866E-4; 1.7263562169045346E-4; -0.0015749687782054544; -0.16893699597456624; -0.006240503008475402; -0.0046380244815714955; 1.875732421875; -1.658935546875; 0.664794921875;0
171;2317918105; 0.9999975021792142; -0.0012919128536277302; 1.4963291510017298E-5; -0.0018238345898074495; -0.16998855162626514; -0.004612607047635633; -0.00441354173153298; 1.87841796875; -1.65478515625; 0.663330078125;0
172;2317934772; 0.9999965793224417; -0.0022359623750636826; -3.5558815352693124E-4; -0.0013097223897307053; -0.17314648387227277; -0.012254642454044735; -0.001401806572633342; 1.878662109375; -1.652099609375; 0.660400390625;0
173;2317951439; 0.9999969633113148; -0.0015024535170276576; 0.001467765906561086; -0.0012890557868375787; -0.1731598635727835; -0.018926835474682206; -0.0063485234814638705; 1.8818359375; -1.6513671875; 0.664306640625;0
174;2317968106; 0.9999982578971295; 0.001330493562167856; 7.728015959736491E-4; -0.0010567721043203138; -0.19081808293526759; -0.011955264531928987; -0.017159704638862308; 1.88037109375; -1.647216796875; 0.66357421875;0
175;2317984773; 0.999981145323404; 0.005997656103958915; 3.001100504458066E-4; 0.0012833755917712188; -0.16212812970327045; -0.031199997167946674; -0.040055879666298325; 1.88037109375; -1.65283203125; 0.6689453125;0
176;2318001440; 0.9999654204711561; 0.00813186387126491; 0.0015816516418830642; 7.273444897893389E-4; -0.15925712214863375; -0.07503031900208906; -0.006124682108152764; 1.878662109375; -1.658203125; 0.679443359375;0
177;2318018107; 0.9999074971006507; 0.013501743244641262; 0.0016383134845061043; -1.2688654125625479E-4; -0.17355643027457449; -0.08192797104366667; 0.040683620139785076; 1.87158203125; -1.661376953125; 0.690185546875;0
178;2318034774; 0.9998187567817471; 0.019026681361574205; -4.933614912807917E-4; -4.4224224779909616E-4; -0.17813178414390785; -0.05037032269532734; 0.038908556481623904; 1.867919921875; -1.67041015625; 0.709228515625;0
179;2318051441; 0.9998251568083579; 0.01807494286658684; -0.004430267790526216; -0.001823452992616992; -0.1692730374955962; -0.022496016936008226; 0.03300647205917782; 1.867431640625; -1.676513671875; 0.718017578125;0
180;2318068108; 0.9998561889891537; 0.014289464170061328; -0.007943097014948332; -0.00450774484963401; -0.17398179033510142; -0.01370384498536472; 0.03737094824967343; 1.866455078125; -1.67626953125; 0.71728515625;0
181;2318084775; 0.9998565781075386; 0.011171535516966924; -0.010876273558745181; -0.0066126154244677835; -0.19518078644483583; -0.019520607993346886; 0.04325303166861827; 1.8662109375; -1.6708984375; 0.705078125;0
182;2318101442; 0.9997959728248644; 0.012167524481088321; -0.01462426906284431; -0.00678931701739216; -0.22769291751937773; -0.0371318787937953; 0.047371438462017454; 1.873046875; -1.664794921875; 0.690185546875;0
183;2318118109; 0.9996573193911686; 0.01713760710692963; -0.019053883131807756; -0.005338140866515185; -0.24314514952372218; -0.055069581342393176; 0.04335417221326858; 1.875732421875; -1.66259765625; 0.669677734375;0
184;2318134776; 0.9994612308621065; 0.02377582730492339; -0.022402757597167675; -0.003174033965166023; -0.25363300660142934; -0.07805224487452558; 0.053998295470019775; 1.876953125; -1.66162109375; 0.645751953125;0
185;2318151443; 0.9991047319528263; 0.033812351641467564; -0.02541691851507555; 6.631132202660207E-4; -0.2602020652720601; -0.08768303484015007; 0.06794633660210435; 1.862548828125; -1.6748046875; 0.62939453125;0
186;2318168110; 0.998692802083677; 0.04275570613025659; -0.02732367997355795; 0.006168725335055469; -0.24521700454011142; -0.04496996050183213; 0.054607497615759566; 1.841796875; -1.70361328125; 0.618408203125;0
187;2318184777; 0.9985086486265955; 0.044438059087385656; -0.029131614562192685; 0.0125334175481312; -0.24547628111452469; 0.02223669459897076; 0.044224335368799536; 1.820556640625; -1.737548828125; 0.615966796875;0
188;2318201444; 0.998549613359371; 0.03893641172149276; -0.03252224448510566; 0.018025790294911248; -0.23713039299425948; 0.06625121549321433; 0.04433122138651668; 1.7802734375; -1.7802734375; 0.610595703125;0
189;2318218111; 0.9985985707858682; 0.032071295594941346; -0.03464792354826168; 0.02391333973072463; -0.21198859784308244; 0.07829782414121897; 0.04682396497498142; 1.735595703125; -1.827392578125; 0.596923828125;0
190;2318234778; 0.9984622945622369; 0.02966748379133244; -0.03546553731135072; 0.03057911715895506; -0.19224625764131195; 0.0709924855630778; 0.05172303442635434; 1.673583984375; -1.87255859375; 0.585205078125;0
191;2318251445; 0.9983440244667551; 0.03017444916376641; -0.033721523600787985; 0.03551859055801627; -0.17401117371604866; 0.06621962548095185; 0.06104801156678524; 1.600341796875; -1.922119140625; 0.57666015625;0
192;2318268112; 0.9983099537204553; 0.02996023269406864; -0.029961193854464722; 0.039773705163019035; -0.156730935687772; 0.07798487506874502; 0.056904407806810234; 1.512451171875; -1.968017578125; 0.582275390625;0
193;2318284779; 0.9984162566207447; 0.026216421899127984; -0.025485467013257296; 0.04275708957988356; -0.14014706661647314; 0.09499900020295013; 0.04923661113576826; 1.414794921875; -2.012451171875; 0.59375;0
194;2318301446; 0.998610911068986; 0.02043430881255287; -0.021014929611785752; 0.04378424432069894; -0.12251032456396274; 0.10456429292510556; 0.040123955829780185; 1.317626953125; -2.04443359375; 0.597412109375;0
195;2318318113; 0.9988565406361981; 0.013273862752402749; -0.016514585205380895; 0.04285655459100247; -0.10790740474775831; 0.10583358981495396; 0.03096225611989254; 1.2177734375; -2.063232421875; 0.601318359375;0
196;2318334780; 0.9990734049459267; 0.0067738463012327055; -0.012546156625358214; 0.04060837955363167; -0.10266115148592442; 0.10241654862003685; 0.02634711191284416; 1.128662109375; -2.07373046875; 0.5927734375;0
197;2318351447; 0.9992316070727244; 0.0024957543317472852; -0.009286185382920017; 0.037996491919783; -0.0955962364460262; 0.09620901408056416; 0.024661531139715302; 1.043701171875; -2.076171875; 0.58154296875;0
198;2318368114; 0.9993430948955112; -6.099410654129833E-4; -0.006526495249575077; 0.03564283260791051; -0.08652824865175165; 0.08870489539251186; 0.027742306758590983; 0.970458984375; -2.0712890625; 0.5615234375;0
199;2318384781; 0.9994176484581317; -0.0025846882829592688; -0.004185004991003134; 0.03376638965189278; -0.07515156464585854; 0.0764921481263174; 0.034821869179418326; 0.897705078125; -2.06201171875; 0.54296875;0
200;2318401448; 0.9994737407546159; -0.0037932788753110847; -0.0020467139015935836; 0.03215063824489378; -0.0688047957183609; 0.06146236445957944; 0.03825665596005844; 0.832763671875; -2.04736328125; 0.517578125;0
201;2318418115; 0.9995238635994039; -0.003856933348056396; -5.196304019542547E-4; 0.030608824621574524; -0.062228417930305764; 0.04430178117013732; 0.04149428018120581; 0.7783203125; -2.032958984375; 0.49462890625;0
202;2318434782; 0.9995912255665734; -0.0045801710107087334; 4.586553909539243E-4; 0.028216899883945212; -0.04946974886829078; 0.0341323740216699; 0.050698024082521526; 0.72314453125; -2.013916015625; 0.472900390625;0
203;2318451449; 0.9996348568667622; -0.008082328316682819; 7.669894432040387E-4; 0.025772866219012317; -0.028832036519386706; 0.05667851246857521; 0.06250900429693025; 0.67626953125; -1.989990234375; 0.44580078125;0
204;2318468116; 0.9995861257133132; -0.00914840085539792; 0.004396769042839117; 0.02691751224057362; 0.012916652234675243; 0.09258172529125865; 0.04205523535402107; 0.635498046875; -1.96533203125; 0.40869140625;0
205;2318484783; 0.9995355100010719; -0.003713676158805135; 0.010841184367374117; 0.028239008088057575; 0.03250364305917425; 0.08393963178481356; 0.013548453651554467; 0.599853515625; -1.9404296875; 0.37841796875;0
206;2318501450; 0.9995002718399792; -0.0019060755212058633; 0.016858146000333096; 0.026671640019813356; 0.02753958459000575; 0.06410093391590145; -0.0047004165788656765; 0.571044921875; -1.91552734375; 0.3486328125;0
207;2318518117; 0.9994991446734514; -0.0026087752415290266; 0.020729529119344513; 0.02376848146745048; 0.01280338967317446; 0.043905515176423195; -0.0019421863906565976; 0.545654296875; -1.891845703125; 0.319091796875;0
208;2318534784; 0.9995142668801615; -0.0026505401960417174; 0.02326439727779304; 0.020566301538762072; -0.002624548833020891; 0.029102992317821035; 0.010717992062337988; 0.532958984375; -1.87060546875; 0.287109375;0
209;2318551451; 0.9995536248283099; -4.910753416685898E-4; 0.024749907428338186; 0.01672578906610187; -0.012630799947210787; 0.027630929121536908; 0.028920905167774173; 0.536376953125; -1.853759765625; 0.258056640625;0
210;2318568118; 0.9995666719717197; 0.003929313795107026; 0.02667947535483355; 0.011799761492131175; -0.013372653422281076; 0.048294661657154264; 0.042706045912490234; 0.541259765625; -1.844970703125; 0.2392578125;0
211;2318584785; 0.9995469522912273; 0.007577800482175823; 0.028456481302851975; 0.006220592980729357; -0.007302913917799483; 0.07019034966494235; 0.0485823949303328; 0.55908203125; -1.846435546875; 0.225341796875;0
212;2318601452; 0.9995039868479473; 0.007412083433900929; 0.03055704369630952; 0.0017630583567345703; -7.415247515935126E-4; 0.06892115633099813; 0.06164130480538793; 0.5888671875; -1.854248046875; 0.220458984375;0
213;2318618119; 0.9994575164207439; 0.006018762589985183; 0.03229591446837243; -0.0023283632911444423; -0.002076278129852586; 0.04893027921017924; 0.09100295013828566; 0.625; -1.86181640625; 0.212890625;0
214;2318634786; 0.9994249253936177; 0.003966231074165022; 0.03253426171102756; -0.008695362439036347; -0.02554227308707412; 0.04200287137874899; 0.1245797942900092; 0.67578125; -1.874267578125; 0.209716796875;0
215;2318651453; 0.9994729554254106; -0.001151452432448713; 0.02833654328845692; -0.015796387085417463; -0.06635861584646091; 0.0744631121923461; 0.13959467648454035; 0.734619140625; -1.887939453125; 0.207275390625;0
216;2318668120; 0.9995220811077546; -0.00528172366352439; 0.023688873618154558; -0.019145496594983838; -0.06930168662941322; 0.11959237652288568; 0.11398894805424728; 0.800048828125; -1.8984375; 0.202880859375;0
217;2318684787; 0.9993816663395203; -0.01083834016685073; 0.024984650909577355; -0.022239212796275946; -0.040487178739105574; 0.10907850694712895; 0.06492206889739958; 0.868896484375; -1.90234375; 0.19384765625;0
218;2318701454; 0.9990512740341916; -0.021104942940740834; 0.025917629690504543; -0.027917910117927075; -0.06181191697789365; 0.07880588654773737; 0.06861251363068743; 0.95654296875; -1.8984375; 0.178466796875;0
219;2318718121; 0.9987719878575501; -0.02767641929550685; 0.025933424773781747; -0.03187459122184764; -0.09050863832347927; 0.042454410088504486; 0.07496443586076479; 1.052490234375; -1.87841796875; 0.1474609375;0
220;2318734788; 0.9986475558258976; -0.028413040780760235; 0.02737330686674117; -0.03385942155044808; -0.1018871087884938; -0.0011662657115270522; 0.060520629566318124; 1.154541015625; -1.85107421875; 0.12353515625;0
221;2318751455; 0.9986624717004765; -0.024461479011309795; 0.029349556508167896; -0.034835430160227006; -0.10432088198970477; -0.04654617754332173; 0.04999194415988984; 1.256591796875; -1.8203125; 0.10693359375;0
222;2318768122; 0.9987210000102438; -0.01609875546539058; 0.03224857657888137; -0.03545734789349203; -0.1267760488958992; -0.07958367337961703; 0.0512386059212774; 1.35595703125; -1.79541015625; 0.10888671875;0
223;2318784789; 0.998702578630248; -0.00528960353443686; 0.035083343601086676; -0.03652859884405305; -0.19249650080459804; -0.10346431656795758; 0.04871410883262969; 1.44970703125; -1.774169921875; 0.135498046875;0
224;2318801456; 0.9985937703946316; 0.007268936695889516; 0.03570748082881443; -0.03850480620915914; -0.2773485334362742; -0.10453529991331258; 0.03847162916928719; 1.537841796875; -1.7646484375; 0.18603515625;0
225;2318818123; 0.9984065846969923; 0.021035907156143396; 0.03302613524803466; -0.0406331962117712; -0.31836978602786126; -0.07600807753971378; 0.03460552729878125; 1.61962890625; -1.76025390625; 0.256103515625;0
226;2318834790; 0.998068672847013; 0.034018919954057036; 0.030831622379378757; -0.041845530562023114; -0.3391772865919132; -0.04237914564592109; 0.03441976341777854; 1.68701171875; -1.76220703125; 0.34375;0
227;2318851457; 0.9977722554655901; 0.04432285562857166; 0.0260136176932701; -0.04253589527148178; -0.370501259512828; -0.019663636645923403; 0.022600630882555164; 1.7392578125; -1.76220703125; 0.439208984375;0
228;2318868124; 0.9975949525763339; 0.051070582429006695; 0.018861312729934885; -0.0428993832902953; -0.3630287167775658; -0.003993838178073743; 0.029387852544580415; 1.779296875; -1.755615234375; 0.52978515625;0
229;2318884791; 0.9974836454651126; 0.056534085103785575; 0.013318010762558757; -0.04065593241380428; -0.37707874114328327; -0.007781449901715878; 0.0548213857101368; 1.812255859375; -1.742919921875; 0.610595703125;0
230;2318901458; 0.9972808265621105; 0.06481109248528574; 0.005040676523138222; -0.0347140726888478; -0.392309157106854; 0.011827300894855473; 0.09372410516798478; 1.83349609375; -1.724609375; 0.686279296875;0
231;2318918125; 0.9971128630196671; 0.07035637370200842; -0.006183085699102337; -0.027887067459012153; -0.3814697631505338; 0.06349250787164865; 0.10394991186201918; 1.843017578125; -1.7109375; 0.742919921875;0
232;2318934792; 0.997426088054118; 0.06491008838660324; -0.02012436147083982; -0.02286677437009849; -0.3514580954382717; 0.1029497789679424; 0.07627424100242575; 1.849365234375; -1.6953125; 0.76904296875;0
233;2318951459; 0.9982817229038715; 0.0486155654665588; -0.02800772851744954; -0.016902533944278486; -0.32528163663002607; 0.09471677114514071; 0.07343462360138502; 1.857177734375; -1.68115234375; 0.76318359375;0
234;2318968126; 0.9984997590993347; 0.043148788225327535; -0.032125648087001135; -0.01021547298202813; -0.30904707820400196; 0.02187198154784385; 0.07416454813969703; 1.861572265625; -1.67578125; 0.740478515625;0
235;2318984793; 0.9982936788192094; 0.04664935148140679; -0.0350417025117791; -0.0023765355140475397; -0.28827061170480556; -0.03292228381075711; 0.04861861624094371; 1.859375; -1.6826171875; 0.715576171875;0
236;2319001460; 0.998002559024046; 0.05093137795093234; -0.03700013017002721; 0.00527989477885893; -0.24302922985355968; -0.037978472317848753; 0.012129937494305609; 1.848876953125; -1.705810546875; 0.6962890625;0
237;2319018127; 0.9978789421144142; 0.052570104694572184; -0.036240093892720204; 0.012675037343776565; -0.19918013224014555; 0.012301275865880075; -0.013811090914060742; 1.820068359375; -1.740234375; 0.68603515625;0
238;2319034794; 0.9979956407321354; 0.051730602381187346; -0.03205352666142646; 0.01735561250717005; -0.1450125818534816; 0.0867577653618784; -0.012018154571801661; 1.78564453125; -1.785400390625; 0.684326171875;0
239;2319051461; 0.9984494308310706; 0.045110266884812705; -0.02632759757283958; 0.01925241545195439; -0.09561836952215647; 0.1432733450404405; -0.0024432079497221787; 1.745361328125; -1.82666015625; 0.69677734375;0
240;2319068128; 0.9990059459526506; 0.03287247603423826; -0.020380064402272278; 0.022162428693345393; -0.06311579025128598; 0.16282899029800776; 0.009788957678322063; 1.70556640625; -1.8662109375; 0.70703125;0
241;2319084795; 0.9992999586196927; 0.020183722059948117; -0.015003260485451864; 0.027696791173219607; -0.06496494891611587; 0.15958224321899891; 0.023373246187024826; 1.65966796875; -1.90380859375; 0.714599609375;0
242;2319101462; 0.9992855145476947; 0.011877156196149624; -0.012242128708645912; 0.03372719763813986; -0.08037846961936816; 0.136581642581965; 0.03537761241734321; 1.60791015625; -1.9404296875; 0.7138671875;0
243;2319118129; 0.9991732893781788; 0.009520323799447394; -0.01117638061383733; 0.03791028546870013; -0.08321290866042674; 0.09996751568449695; 0.04952552243047639; 1.54248046875; -1.978515625; 0.709716796875;0
244;2319134796; 0.9990888452774284; 0.011971206782405736; -0.009213592096764147; 0.039915901230741624; -0.0713039868759641; 0.07790530870095459; 0.052841417561639716; 1.466064453125; -2.013916015625; 0.716064453125;0
245;2319151463; 0.9989848730045721; 0.017165336500449102; -0.0056730298390385014; 0.041260046816634095; -0.06691076191633145; 0.07643965838441064; 0.047680697409213726; 1.387451171875; -2.045166015625; 0.723388671875;0
246;2319168130; 0.9988725790388483; 0.02190709070459737; -0.0027078986664509923; 0.042027580300946665; -0.06555529480327216; 0.09787353964719618; 0.04719490365582962; 1.29345703125; -2.0751953125; 0.74560546875;0
247;2319184797; 0.9988254756523985; 0.024042817605584993; 5.081480178116272E-4; 0.042063688556004016; -0.06034738624080438; 0.13437447438277506; 0.05490783529269047; 1.19970703125; -2.093017578125; 0.775146484375;0
248;2319201464; 0.9988469419368824; 0.022434599147759332; 0.003899491798589339; 0.04226427934001026; -0.05696988094055279; 0.16826587578996172; 0.052386874344792; 1.1044921875; -2.108642578125; 0.806396484375;0
249;2319218131; 0.9989537582603382; 0.016182538577889927; 0.006699356524039302; 0.04224491596493891; -0.056974416092226816; 0.18697859443821138; 0.04194479804947774; 1.0068359375; -2.114990234375; 0.8232421875;0
250;2319234798; 0.9990891885752327; 0.007509941026239253; 0.009198872242832392; 0.04098505590243254; -0.056983676888810356; 0.19021524058606248; 0.03037539542252786; 0.913818359375; -2.110107421875; 0.82421875;0
251;2319251465; 0.9991777286410755; -7.796142590712207E-4; 0.012208285404429921; 0.03865509742262372; -0.05432318743120056; 0.1823522968478351; 0.016782266259748484; 0.83056640625; -2.10205078125; 0.80810546875;0
252;2319268132; 0.9991976856815862; -0.007778403923171168; 0.015480508783664528; 0.03610865836290525; -0.05691713875789728; 0.16365860403838559; 0.00816308340642273; 0.76171875; -2.08935546875; 0.773681640625;0
253;2319284799; 0.9992106066322046; -0.012148089198161294; 0.017580812811310742; 0.03348884207357395; -0.05666813852321343; 0.13479599953559512; 0.008669086885989843; 0.704345703125; -2.071044921875; 0.728515625;0
254;2319301466; 0.9992430131599273; -0.013422418071653286; 0.01935765973861262; 0.03095997987117355; -0.04597341573659486; 0.1058381536009693; 0.011510762105893114; 0.65185546875; -2.050537109375; 0.679931640625;0
255;2319318133; 0.9992946718488717; -0.012516245520423463; 0.02131320207220783; 0.028271006879092318; -0.0369034830012266; 0.09099726926209094; 0.014358511508802532; 0.610107421875; -2.026611328125; 0.628662109375;0
256;2319334800; 0.9993489522210484; -0.012264629789488501; 0.02249096219003666; 0.02540486509679002; -0.039840610278707604; 0.08865462889444198; 0.019398197309135924; 0.577392578125; -2.002685546875; 0.575927734375;0
257;2319351467; 0.9993937965291512; -0.013914252552623074; 0.022628604833317384; 0.02250287266659511; -0.040724467737235585; 0.08679745753601416; 0.023488813732403656; 0.553955078125; -1.9833984375; 0.528076171875;0
258;2319368134; 0.9994176206550236; -0.016491082335884866; 0.022494994882517997; 0.019658050078219566; -0.036102485794204595; 0.08766402325259709; 0.021903165809092913; 0.53759765625; -1.957763671875; 0.4736328125;0
259;2319384801; 0.9994269299007695; -0.019563946969265; 0.021784733319653766; 0.016984968716417376; -0.031975159936572184; 0.08887962705953024; 0.023818648396607144; 0.535400390625; -1.933837890625; 0.412109375;0
260;2319401468; 0.9994000644640966; -0.023167000365436174; 0.02103510748210841; 0.014843365401538328; -0.017129515240167523; 0.08784701957377362; 0.028353865528440415; 0.53759765625; -1.906494140625; 0.3515625;0
261;2319418135; 0.9993211501789739; -0.02659115428616976; 0.021676570168567638; 0.013426675851779675; 5.791654121308702E-5; 0.07996077410851682; 0.0354782206466151; 0.5517578125; -1.874755859375; 0.285400390625;0
262;2319434802; 0.999245729379379; -0.027791114594701904; 0.023642450311015622; 0.013291381039914618; 0.01324497147181258; 0.06991093887054109; 0.039604028301852695; 0.571533203125; -1.843017578125; 0.215087890625;0
263;2319451469; 0.999260169115631; -0.02329600690163436; 0.026547699026074633; 0.015219400706354082; 0.014979594151780722; 0.04413143763099033; 0.05423206367392163; 0.592529296875; -1.805419921875; 0.151123046875;0
264;2319468136; 0.9992744678583333; -0.013505624260531646; 0.03090784761472661; 0.01768731058140266; 0.008291142096288347; 0.021824512177038426; 0.05376151672880773; 0.615478515625; -1.779052734375; 0.102783203125;0
265;2319484803; 0.9992008487150303; -0.0015964198212390368; 0.035747974808493524; 0.017810044020402763; 0.008246434954930017; 3.4471411033193747E-4; 0.037446560681941014; 0.64404296875; -1.759765625; 0.0654296875;0
266;2319501470; 0.9989521099027753; 0.01007736541680948; 0.04212897548048226; 0.014774242857574782; 0.01856800920095346; 4.94817916414648E-4; 0.0023948705883469886; 0.681884765625; -1.761474609375; 0.051513671875;0
267;2319518137; 0.9986290445227185; 0.01560383872733373; 0.049103057021933856; 0.009243454100849981; 0.01189825147779205; 0.01593042228550065; -0.035855338357658896; 0.730712890625; -1.77392578125; 0.052978515625;0
268;2319534804; 0.9985236097455936; 0.014553314108165571; 0.052253860588734526; 0.0028871928705506006; -0.018827556279120562; 0.05838246244915346; -0.054577348634903676; 0.796142578125; -1.794189453125; 0.06005859375;0
269;2319551471; 0.9986412594620974; 0.007955839496646133; 0.05145596954746351; -0.0021500501831649426; -0.05096741941974224; 0.11753252402477952; -0.04395248774847145; 0.873291015625; -1.81689453125; 0.07080078125;0
270;2319568138; 0.9986755090164231; -0.0020619434001752923; 0.051166104264079144; -0.005000585429737109; -0.0823763062295948; 0.1543960577562169; -0.027051565443214732; 0.95654296875; -1.827392578125; 0.073974609375;0
271;2319584805; 0.998581882666027; -0.007893731624440015; 0.052412976939906826; -0.004979202798758493; -0.13611425193041332; 0.14435644426313265; 0.0247808310499832; 1.045166015625; -1.826416015625; 0.07373046875;0
272;2319601472; 0.9985492604191474; -0.00473241772388866; 0.05359418412743867; -0.0021545687676894076; -0.23222460836513614; 0.12269164555350145; 0.06441081249950567; 1.1318359375; -1.828125; 0.08642578125;0
273;2319618139; 0.9985966918194854; 0.0021727890857244914; 0.05291345887660642; -3.032234854739025E-4; -0.3602075145059502; 0.10441923895048164; 0.08785471831228767; 1.20751953125; -1.83349609375; 0.1123046875;0
274;2319634806; 0.9989791090559885; 0.012388287582571628; 0.04342784216680929; -0.0011368927871691359; -0.3546178931269651; 0.13264181670992123; 0.13759970252960751; 1.27099609375; -1.8564453125; 0.15771484375;0
275;2319651473; 0.9991241626162233; 0.013916437296280587; 0.039459102613407966; -4.6869004030847266E-4; -0.2581512930880626; 0.21605312286582545; 0.140179191993141; 1.3173828125; -1.87841796875; 0.211181640625;0
276;2319668140; 0.9992944795262696; 0.009430245127643788; 0.0361072096410694; 0.004228838740155533; -0.26138346439757365; 0.2654914162702717; 0.13120279426076767; 1.3544921875; -1.896728515625; 0.2587890625;0
277;2319684807; 0.9994934480896287; 0.0017808144725100505; 0.03018900725658602; 0.00991462387490666; -0.2827787566056439; 0.2736514835243031; 0.12261842373112669; 1.37255859375; -1.908203125; 0.291259765625;0
278;2319701474; 0.9995796191476882; -0.00785834714390854; 0.0240453538616523; 0.014165179928129046; -0.2810691351563758; 0.24638819020514038; 0.1066597500326476; 1.38134765625; -1.911376953125; 0.302978515625;0
279;2319718141; 0.9995723809906597; -0.015626558603738128; 0.018315534926977132; 0.01659539114351011; -0.2634689485833865; 0.20327782482194695; 0.10219452098920362; 1.38427734375; -1.907958984375; 0.29541015625;0
280;2319734808; 0.999552030480215; -0.01895343598086288; 0.013220155603798136; 0.01901928266812733; -0.24910633240417468; 0.1564279898176894; 0.10177659253716069; 1.381591796875; -1.899658203125; 0.2744140625;0
281;2319751475; 0.9995840213185337; -0.017616644484899746; 0.007776975107057937; 0.021469904982231922; -0.2359618359295994; 0.10673668617873011; 0.09733766421231568; 1.3720703125; -1.887451171875; 0.25;0
282;2319768142; 0.9996496660115664; -0.012716841649353328; 0.0024677944386272137; 0.02308109988795687; -0.213709080234872; 0.07194640021550627; 0.09028543436368258; 1.348388671875; -1.8779296875; 0.219970703125;0
283;2319784809; 0.9996928926182004; -0.006292094389844766; -0.0017336041859216669; 0.023906580963641486; -0.18623804406339878; 0.05371187323908265; 0.07984220348507763; 1.317626953125; -1.87744140625; 0.2041015625;0
284;2319801476; 0.9996994909491864; 5.636017702544682E-4; -0.00444414601738169; 0.02410103141274887; -0.15749320483093482; 0.045481766338790405; 0.06762262979170833; 1.273193359375; -1.880126953125; 0.19140625;0
285;2319818143; 0.9996615828488203; 0.007582073047792778; -0.005652652402596714; 0.024233849576667427; -0.13251772739866832; 0.04403764230376464; 0.05583095499457991; 1.22412109375; -1.888916015625; 0.19091796875;0
286;2319834810; 0.9995803434407914; 0.014262291607750985; -0.0056750575251957045; 0.02456659860401335; -0.1115183505080389; 0.04611688750259746; 0.04436019878874358; 1.17724609375; -1.905517578125; 0.20166015625;0
287;2319851477; 0.9994543259265486; 0.02066574807307177; -0.00484190752783198; 0.025308756879399503; -0.0945941980331302; 0.04662030461107518; 0.03825901924845419; 1.12158203125; -1.924072265625; 0.225830078125;0
288;2319868144; 0.9992709806388004; 0.027405549332751758; -0.0037920140709395427; 0.02630710451999936; -0.08384429440512672; 0.04188266782389483; 0.04255859558897769; 1.058349609375; -1.948486328125; 0.257080078125;0
289;2319884811; 0.999022826872162; 0.034602719278056485; -0.003349439550977884; 0.027291472324012026; -0.07594396772833446; 0.03296683501574029; 0.04828685047411696; 0.98779296875; -1.974365234375; 0.305419921875;0
290;2319901478; 0.9988032839194271; 0.040582467361843316; -0.0036091900587711394; 0.02705618453723166; -0.0739350443047661; 0.03175741501424456; 0.046488004787372174; 0.91259765625; -1.99853515625; 0.368896484375;0
291;2319918145; 0.9987962680473862; 0.042199798814875594; -0.0052196935091899386; 0.024452948989191484; -0.08286411881711908; 0.046372362074831946; 0.0389529962072363; 0.836669921875; -2.0185546875; 0.437255859375;0
292;2319934812; 0.9990698109659824; 0.03732786592431331; -0.008809322185773684; 0.019711394789816233; -0.09410012302717277; 0.07346699999822925; 0.03751503029948885; 0.76806640625; -2.031494140625; 0.501708984375;0
293;2319951479; 0.9994439303205988; 0.02661508473582569; -0.014193198004067431; 0.014213392988180308; -0.09830890957527627; 0.10687719885887573; 0.04071040911505111; 0.71337890625; -2.037353515625; 0.55517578125;0
294;2319968146; 0.9996715327700825; 0.01422041743934234; -0.019149643317366353; 0.009375364407986225; -0.09172308767256723; 0.12608885902855924; 0.03274011497665813; 0.669677734375; -2.03759765625; 0.5859375;0
295;2319984813; 0.9997176783055595; 0.003191727698816191; -0.023064541385618035; 0.00473323233211534; -0.0858337247188449; 0.1207033200601225; 0.010168205557679763; 0.639892578125; -2.032470703125; 0.603515625;0
296;2320001480; 0.9996297472742753; -0.00561951334421637; -0.026620035530045997; -4.039090512880372E-4; -0.08074197448083759; 0.10020564275617455; -0.01899050222361663; 0.62841796875; -2.029541015625; 0.6064453125;0
297;2320018147; 0.999473238607777; -0.012661805240388513; -0.0290587086050636; -0.006965303234038115; -0.0733963337991334; 0.074329578655428; -0.04994593876046752; 0.630615234375; -2.02978515625; 0.603515625;0
298;2320034814; 0.9993045967566435; -0.016391953463575304; -0.029843397296306865; -0.015198631533952928; -0.06631031803837774; 0.0431902716163759; -0.06582528836561186; 0.649658203125; -2.031005859375; 0.592041015625;0
299;2320051481; 0.999189784728411; -0.01438857072741373; -0.028943981281169765; -0.02397892980116165; -0.06954802147767532; 0.014463930513793717; -0.06324772780050285; 0.6845703125; -2.039794921875; 0.590087890625;0
300;2320068148; 0.9990856413052251; -0.007852343882135404; -0.028217954723353925; -0.031144326361544544; -0.09245268593538121; 0.007465935514803888; -0.05192748957199948; 0.73193359375; -2.05078125; 0.592041015625;0
301;2320084815; 0.9990162371330532; 0.0013792877172069118; -0.026844357199109048; -0.03527089446661281; -0.11364820291687053; 0.014341428021771085; -0.05210224646015351; 0.78955078125; -2.06640625; 0.61328125;0
302;2320101482; 0.9989366621636578; 0.011749466027015612; -0.024795585183034544; -0.03704961523202249; -0.14228129212352797; 0.024106396130566497; -0.053425717506351326; 0.847412109375; -2.083740234375; 0.6572265625;0
303;2320118149; 0.9987838909504008; 0.02090309463179349; -0.024284731552996933; -0.037470676884613564; -0.17797798502385004; 0.04003099813125122; -0.05843306904643533; 0.902099609375; -2.102783203125; 0.7119140625;0
304;2320134816; 0.998595016195019; 0.02775904447432377; -0.025399264346385623; -0.03731362286088857; -0.2154154831116524; 0.06464484077777519; -0.06970503985421952; 0.95947265625; -2.113037109375; 0.779541015625;0
305;2320151483; 0.9984042882003307; 0.03161108659102907; -0.028035979983395964; -0.03746465446385478; -0.2496750704256625; 0.09665890533967458; -0.08314219933848341; 1.019287109375; -2.115478515625; 0.84765625;0
306;2320168150; 0.9982538641316071; 0.0325843489392634; -0.030850876707513828; -0.03841492362216731; -0.27074086958730453; 0.13589555194255465; -0.09695908054767524; 1.078857421875; -2.113037109375; 0.914306640625;0
307;2320184817; 0.9981722383770902; 0.030335908889333518; -0.03300578913018027; -0.04052817598932091; -0.2697459006948811; 0.17655931971431854; -0.10439670265572429; 1.1494140625; -2.101806640625; 0.970947265625;0
308;2320201484; 0.9982041751968403; 0.025253288088945655; -0.03254930436380169; -0.043488375983992356; -0.26469737401145915; 0.2004070432552356; -0.0867885775131516; 1.2314453125; -2.0810546875; 1.010009765625;0
309;2320218151; 0.9982365364407328; 0.018766859711273454; -0.033212513357593454; -0.04548132856303334; -0.27784276282823095; 0.20233228813408347; -0.07209873719611047; 1.32470703125; -2.052734375; 1.029296875;0
310;2320234818; 0.9982688575336276; 0.008853379692202346; -0.03335945796836442; -0.047624072805551754; -0.24591298970405617; 0.20257747835228287; -0.09063769002103654; 1.41650390625; -2.015380859375; 1.024169921875;0
311;2320251485; 0.9983786659237073; -0.005115051387109798; -0.029681993967885584; -0.04829963676670996; -0.20124605222622655; 0.18857858503717637; -0.10249549739743338; 1.517333984375; -1.974609375; 0.99560546875;0
312;2320268152; 0.9985022655998457; -0.015477832286068166; -0.022765533277104875; -0.047279940718119084; -0.18071325171674896; 0.1601534156950364; -0.10383451399386204; 1.60986328125; -1.924072265625; 0.95263671875;0
313;2320284819; 0.9986081783869494; -0.02029993491386342; -0.01594503837290885; -0.045993200067815716; -0.1762682546945633; 0.12247363484227235; -0.09498084008731736; 1.689697265625; -1.8671875; 0.900390625;0
314;2320301486; 0.9988622771091089; -0.01693791056528439; -0.008954706952819582; -0.043670032945687054; -0.18029459094558017; 0.031195721716871745; -0.05798022288881104; 1.756591796875; -1.80615234375; 0.8564453125;0
315;2320318153; 0.9992441960761337; -0.0020279714218137956; -0.0017637097984020968; -0.03877903129038352; -0.21750793404355742; -0.08224944586234986; -0.007226082110397689; 1.80810546875; -1.74755859375; 0.842529296875;0
316;2320334820; 0.999150288908262; 0.027391370624831136; -5.387013329606339E-4; -0.030791602600442225; -0.264292376136068; -0.16161664486903474; 0.016065930322302677; 1.830322265625; -1.699462890625; 0.85546875;0
317;2320351487; 0.997828198467133; 0.06268736889148999; -0.006089488166443932; -0.019289848604095664; -0.2832751447528999; -0.14143729123885618; 0.021300311360284853; 1.84423828125; -1.6708984375; 0.888427734375;0
318;2320368154; 0.9957330613230396; 0.09112593701457415; -0.01371444875760984; -0.004862929851307097; -0.26120108409980747; -0.03681937082553226; -0.003815509817850421; 1.83544921875; -1.660888671875; 0.925537109375;0
319;2320384821; 0.9941445478613151; 0.10596096740444319; -0.01908630032080778; 0.009198069601824623; -0.22335048347140818; 0.08833373604189067; -0.015532625079710148; 1.819580078125; -1.667236328125; 0.96923828125;0
320;2320401488; 0.9941946627785548; 0.10412196387363062; -0.01899470377893969; 0.019359503353246044; -0.18631278839531143; 0.22844466175836506; -0.008271911116855093; 1.798095703125; -1.686279296875; 1.015625;0
321;2320418155; 0.9962739019233933; 0.08042188058014685; -0.017471819295656027; 0.025794747542659816; -0.1633988311742769; 0.33932561081377344; 0.021033956092216415; 1.769287109375; -1.705078125; 1.05224609375;0
322;2320434822; 0.9983655031228973; 0.04452109480890537; -0.01599706983352207; 0.032066930753070044; -0.1652369168454228; 0.3419719933964757; 0.033538409440363195; 1.74169921875; -1.736328125; 1.07275390625;0
323;2320451489; 0.9990411604312317; 0.013970514864170613; -0.016176832250780097; 0.03820856680089136; -0.1867427669134056; 0.26162448561440577; 0.028546700858827313; 1.711669921875; -1.783203125; 1.0712890625;0
324;2320468156; 0.9990547331611654; -0.002253992971567087; -0.016064493389354954; 0.04032978695827921; -0.193856021012474; 0.18808285830536672; 0.023712458159845965; 1.67431640625; -1.83544921875; 1.04833984375;0
325;2320484823; 0.9990617107169183; -0.010437850088861333; -0.015536939882596634; 0.0390557673588895; -0.1941807811618299; 0.1498497653308885; 0.022087580738074625; 1.63916015625; -1.88427734375; 1.016845703125;0
326;2320501490; 0.9991074685031431; -0.014429838279724522; -0.014756320622642762; 0.036855083097769636; -0.17671146669195326; 0.1347824343000361; 0.026822764901453654; 1.602294921875; -1.92724609375; 0.979248046875;0
327;2320518157; 0.9991728854099367; -0.014268815332479368; -0.013459055649264308; 0.035620216052394356; -0.1595221625338011; 0.1251032531826862; 0.03432521262829655; 1.55810546875; -1.964599609375; 0.938720703125;0
328;2320534824; 0.999204596863313; -0.011075006989634983; -0.012376373856816949; 0.036253871483746036; -0.15200410213481924; 0.10430438288839322; 0.03786766909648134; 1.5126953125; -1.99658203125; 0.899169921875;0
329;2320551491; 0.9991869189657023; -0.005588255903611422; -0.012411560184468706; 0.037950303524080915; -0.1450327125061061; 0.07964453965432448; 0.03986710563636792; 1.45166015625; -2.025390625; 0.86767578125;0
330;2320568158; 0.9991612171509329; 2.7175642281054846E-4; -0.012598309258776976; 0.038962429258623366; -0.12974011094738558; 0.07065654615416946; 0.04030784718924042; 1.3896484375; -2.04931640625; 0.843994140625;0
331;2320584825; 0.9991744680347612; 0.004346681252982709; -0.011485054334838487; 0.03872444081536481; -0.1117697640288229; 0.08257087025652372; 0.03583722734640836; 1.314208984375; -2.073486328125; 0.829833984375;0
332;2320601492; 0.9992354313933761; 0.005237467754985681; -0.00917110316569031; 0.037643225769496746; -0.09594627449126499; 0.10075184755757706; 0.028015876121462596; 1.242431640625; -2.090576171875; 0.820556640625;0
333;2320618159; 0.9993162600268092; 0.0025474022126123486; -0.006753706852065722; 0.03626169648202283; -0.08373150613490596; 0.11900772943742718; 0.021483762225769643; 1.166015625; -2.10400390625; 0.8115234375;0
334;2320634826; 0.999376107975701; -0.003952697383334924; -0.004383553389814832; 0.034821766905406615; -0.07148561110604446; 0.13612471539398707; 0.016063734044509018; 1.09326171875; -2.1064453125; 0.791015625;0
335;2320651493; 0.999386511918259; -0.012222218143856517; -0.0017363197004788835; 0.0327750266727156; -0.062396762534430814; 0.13952635327823504; 0.008888661612438842; 1.034912109375; -2.107177734375; 0.756103515625;0
336;2320668160; 0.9993654211439832; -0.0189050589267791; 5.151443929634626E-4; 0.030184240837540594; -0.056606681974393766; 0.12688802692713805; 0.0014999593946112694; 0.9794921875; -2.1025390625; 0.7060546875;0
337;2320684827; 0.9993566901320272; -0.022546875710378778; 0.0021001730197624524; 0.027810673442890513; -0.048803194002606895; 0.1079988427101258; -0.004260024229672851; 0.935791015625; -2.091796875; 0.6513671875;0
338;2320701494; 0.9993750435126422; -0.02381377452527919; 0.0033221581431253093; 0.0259111908687302; -0.036412191147787466; 0.09045549082290888; -0.005749854837508207; 0.897705078125; -2.07470703125; 0.593505859375;0
339;2320718161; 0.9994210301881372; -0.023039136083284784; 0.00466431317563193; 0.02459769925863226; -0.02038933780338128; 0.07575131022320862; -0.0029962051545889302; 0.8642578125; -2.0556640625; 0.53662109375;0
340;2320734828; 0.9994684956910385; -0.02086018022460112; 0.00706250086118554; 0.024035392313743936; -0.0018437223575815415; 0.06328916224178426; 0.0018101455909706361; 0.835693359375; -2.033935546875; 0.480224609375;0
341;2320751495; 0.9994888880100673; -0.0182993495648876; 0.010973957675019075; 0.02380480629721707; 0.01655703311470733; 0.05750662708245616; 0.0035113317822984946; 0.81005859375; -2.01220703125; 0.433349609375;0
342;2320768162; 0.9994602972468598; -0.016121845177784755; 0.016183849579553353; 0.023606849600668195; 0.026924383547019218; 0.05809454397803239; 0.003877298744337279; 0.781982421875; -1.9892578125; 0.3837890625;0
343;2320784829; 0.9993779097665304; -0.014706626366438658; 0.0224075408788548; 0.02292183944104659; 0.028347386374952082; 0.05887286126533509; 5.815799643825535E-4; 0.770751953125; -1.9658203125; 0.339111328125;0
344;2320801496; 0.9992542792386284; -0.013654861214239755; 0.029030463191331766; 0.02148633043136397; 0.024209137572845586; 0.05788497364476817; -0.010373526922022553; 0.76708984375; -1.943603515625; 0.2958984375;0
345;2320818163; 0.999093441903604; -0.013040636652783155; 0.03523202761794195; 0.020023495469781803; 0.006321698133515755; 0.05773349262740178; -0.023200735376089594; 0.77392578125; -1.92236328125; 0.256591796875;0
346;2320834830; 0.9989780279449045; -0.010454222639659727; 0.03968663306360836; 0.01893621050750613; -0.010527955951176168; 0.043042601546634696; -0.02137963868259464; 0.795166015625; -1.9052734375; 0.219482421875;0
347;2320851497; 0.9988552202632079; -0.0063354109296306915; 0.04390863856069178; 0.017892539815171086; -0.023780094082004814; 0.03134800385806523; -0.022726498186639535; 0.822509765625; -1.89208984375; 0.190673828125;0
348;2320868164; 0.9986811889320372; -0.0034958150096664475; 0.0485408478356534; 0.01635384487228464; -0.0441605761887974; 0.03123372166294243; -0.03281881479182321; 0.856689453125; -1.8837890625; 0.170166015625;0
349;2320884831; 0.998576507325992; -0.003262986437356896; 0.05156258732944739; 0.013251849834102743; -0.07754683238436162; 0.03889975151483499; -0.03286137635911966; 0.90576171875; -1.880615234375; 0.156494140625;0
350;2320901498; 0.9985870305087315; -0.0028971163234965958; 0.05211157395281087; 0.009996653286095586; -0.12498645709483226; 0.05091917497875826; -0.00673345249959551; 0.9560546875; -1.88037109375; 0.1494140625;0
351;2320918165; 0.9987331259478915; -0.0034650325269704463; 0.049705365327332864; 0.0070365717232474265; -0.15907251342433903; 0.0587989350166231; 0.014213744885116878; 1.018798828125; -1.8837890625; 0.15234375;0
352;2320934832; 0.9988999174869125; -0.004597683960322951; 0.04654949334506182; 0.003310712333980781; -0.1508334534076248; 0.07161067831000675; 0.035201289593697276; 1.07275390625; -1.881103515625; 0.15625;0
353;2320951499; 0.9988155753231587; -0.008627801599227658; 0.0478853577905414; -6.379953065960287E-6; -0.14829221129737064; 0.10659994056368835; 0.0448197994079349; 1.137451171875; -1.877197265625; 0.158935546875;0
354;2320968166; 0.9986063083171619; -0.015824145746292095; 0.05033647872882869; -0.0011297387980514495; -0.19705106168840836; 0.137026353956279; 0.04772375149468537; 1.213623046875; -1.8701171875; 0.16259765625;0
355;2320984833; 0.998476392873616; -0.02454444631408076; 0.04941527080817613; -7.707400224926665E-4; -0.24522426734120645; 0.14058906243998842; 0.07205453271465573; 1.288330078125; -1.8515625; 0.157958984375;0
356;2321001500; 0.9983741878426451; -0.03320008828407173; 0.04633227428693377; 2.3568383251304503E-4; -0.2618489702114801; 0.141417948692024; 0.09035243050860091; 1.363525390625; -1.81982421875; 0.147705078125;0
357;2321018167; 0.9982316538052179; -0.0411666404443215; 0.042803827188405974; 0.002589485248561341; -0.29061611098587836; 0.14986096915133043; 0.10630243163664535; 1.435546875; -1.77685546875; 0.126953125;0
358;2321034834; 0.998038215467234; -0.050093082040609305; 0.036953866221736194; 0.0066944282741424055; -0.32152370227216204; 0.1402926764142466; 0.11970207604446802; 1.499755859375; -1.722900390625; 0.102783203125;0
359;2321051501; 0.9979395018872146; -0.05574136792990392; 0.028870245164093925; 0.013272506114751255; -0.3373475312810999; 0.083087733937618; 0.13933160422664537; 1.5537109375; -1.66064453125; 0.071044921875;0
360;2321068168; 0.9982499740471137; -0.05207583136222582; 0.020018776720743096; 0.01960473620008471; -0.3467003329858407; 0.0164093899637259; 0.15604932178951358; 1.580810546875; -1.602294921875; 0.03662109375;0
361;2321084835; 0.9987941143063294; -0.04179863196496619; 0.011288491172701198; 0.023146523711700204; -0.3381886512906679; -0.03752619679619852; 0.16258665449633358; 1.59912109375; -1.55078125; 0.0068359375;0
362;2321101502; 0.9992461540118542; -0.029430662672847052; 0.0038945892787480845; 0.025015834215646654; -0.3161641900034472; -0.06494482814242768; 0.1649428893360204; 1.599365234375; -1.52001953125; -0.01904296875;0
363;2321118169; 0.9995179813150974; -0.016810906312671126; -0.0015148895659512498; 0.0260557779838187; -0.2867071761548394; -0.07027604914916834; 0.16457296280235317; 1.58984375; -1.5087890625; -0.03564453125;0
364;2321134836; 0.9996128427868016; -0.005296353206355853; -0.006023812512414129; 0.026642576099505696; -0.2621289038454794; -0.05871572980453943; 0.15766439576497127; 1.567138671875; -1.512451171875; -0.047119140625;0
365;2321151503; 0.9995757858896643; 0.0036357291974947747; -0.010104940607788715; 0.027072493634233214; -0.24001116927419452; -0.03533161466493999; 0.14576752368354895; 1.533935546875; -1.529541015625; -0.05615234375;0
366;2321168170; 0.9995033138582858; 0.008842382980650043; -0.01321923707268924; 0.027206426092825864; -0.21483651354593142; -0.0074480904138410214; 0.1286881105436007; 1.498046875; -1.553466796875; -0.060791015625;0
367;2321184837; 0.9994667596606367; 0.010358731399928822; -0.014934615817816245; 0.027126560187857852; -0.18829526445335437; 0.011906366790616754; 0.10854543597239363; 1.4482421875; -1.58154296875; -0.069580078125;0
368;2321201504; 0.9994854923288468; 0.009660720495503872; -0.015350992798905784; 0.02645313069862454; -0.1663240371712808; 0.021658787672039742; 0.0909431185750414; 1.400146484375; -1.6025390625; -0.072998046875;0
369;2321218171; 0.9995400648128638; 0.00885670355307372; -0.014952107894593947; 0.024852607621278586; -0.14883818868445792; 0.022598485642293102; 0.0785719001902569; 1.344970703125; -1.621826171875; -0.078125;0
370;2321234838; 0.9996043288418194; 0.009130084661837845; -0.014128207191512756; 0.02254375914343476; -0.13047980980470636; 0.02017608113440126; 0.06840955187261116; 1.2978515625; -1.6396484375; -0.079833984375;0
371;2321251505; 0.9996527985347154; 0.010786524121501051; -0.013059553165070794; 0.020183690203144252; -0.11090058686361859; 0.018125563682387193; 0.0595812408015858; 1.24951171875; -1.654052734375; -0.080322265625;0
372;2321268172; 0.9996808105274548; 0.013193851862419975; -0.011517440658441349; 0.01820845674083102; -0.08709152206734833; 0.01811909207150401; 0.05413637233472244; 1.203369140625; -1.6728515625; -0.076416015625;0
373;2321284839; 0.9997003691154707; 0.015550130162923864; -0.009663031105980102; 0.016247808226116923; -0.0624863193498593; 0.018813715840725807; 0.054335750644688874; 1.160888671875; -1.691650390625; -0.061279296875;0
374;2321301506; 0.9997092498562833; 0.017731924863683746; -0.008217272313343906; 0.014123421262014713; -0.04308534755058136; 0.0202950212465509; 0.05704067131497841; 1.124267578125; -1.716552734375; -0.044189453125;0
375;2321318173; 0.9997126343410667; 0.019443380875974137; -0.007609703829255799; 0.011776930270121637; -0.031086196731292978; 0.02503155907023478; 0.057249370683098294; 1.08984375; -1.738525390625; -0.023193359375;0
376;2321334840; 0.9997142348505248; 0.020638499209840427; -0.007532316401390072; 0.00942152839111816; -0.02853326735172963; 0.03224631850098679; 0.05443690172525156; 1.053466796875; -1.763916015625; -9.765625E-4;0
377;2321351507; 0.9997088943454532; 0.021793859262494636; -0.00740797198331794; 0.007230229327803415; -0.03281899908810219; 0.036996214190390765; 0.051236393502107; 1.020751953125; -1.791259765625; 0.028076171875;0
378;2321368174; 0.9996912011662529; 0.023331618459485448; -0.006845860743497357; 0.005125629865302114; -0.04243733035426226; 0.037394796908924735; 0.046757586753189265; 0.990234375; -1.81591796875; 0.06103515625;0
379;2321384841; 0.9996643808769156; 0.024937427482576185; -0.006404416901682531; 0.0028694530269043135; -0.05273320602916441; 0.038288893762327136; 0.040147240693067465; 0.964111328125; -1.84375; 0.101806640625;0
380;2321401508; 0.9996324780680649; 0.02638258872347969; -0.006229443806924918; 2.486636363658798E-4; -0.062347638750127575; 0.04137430485952469; 0.033566597664208025; 0.940673828125; -1.87548828125; 0.14501953125;0
381;2321418175; 0.9995955906555172; 0.027525365242672545; -0.006577337976188147; -0.0027835293158524764; -0.06884909232095475; 0.046451156026507394; 0.028244666756656427; 0.921875; -1.90576171875; 0.194091796875;0
382;2321434842; 0.9995459740248351; 0.02863230415231191; -0.007191574898028298; -0.006026460002281686; -0.07369142013522822; 0.05224997682739463; 0.022764644339546412; 0.906982421875; -1.934326171875; 0.242919921875;0
383;2321451509; 0.9994804854599342; 0.02978258590752504; -0.007948700103067642; -0.009411425402498343; -0.07928438603122115; 0.058165838669775545; 0.015994518566910382; 0.89697265625; -1.966552734375; 0.30126953125;0
384;2321468176; 0.9994143967208602; 0.030598854533602525; -0.00859811700466795; -0.012674624739398094; -0.08804814899223362; 0.06539328757847666; 0.008087448921362657; 0.891357421875; -1.99560546875; 0.365234375;0
385;2321484843; 0.9993675787838523; 0.030646909642718802; -0.009035174972062299; -0.015606890089830046; -0.10177441571105916; 0.07368999599312162; -0.0013774894824025302; 0.89306640625; -2.0234375; 0.42724609375;0
386;2321501510; 0.999339610724264; 0.030003152751231568; -0.009614422754123832; -0.018102931739573835; -0.11983041468068764; 0.08250151438278004; -0.010003917062945886; 0.901611328125; -2.046630859375; 0.496337890625;0
387;2321518177; 0.9993271905890463; 0.028846449459555223; -0.01027353510716972; -0.020186703034004414; -0.1360671555528596; 0.09253899464902822; -0.02067223508953179; 0.917236328125; -2.068359375; 0.5634765625;0
388;2321534844; 0.999332776582226; 0.0271013841734368; -0.010788732984076512; -0.021979987828497416; -0.15333775847334022; 0.10129838311736415; -0.027270867637788777; 0.9345703125; -2.087646484375; 0.62548828125;0
389;2321551511; 0.9992976136914434; 0.02551012453038004; -0.012605091050014394; -0.02438492355231037; -0.17403221325645485; 0.1046686227367885; -0.032403814517430816; 0.966796875; -2.099609375; 0.685546875;0
390;2321568178; 0.9992231925347954; 0.023626436107730187; -0.014657160872985688; -0.027927954679171252; -0.18659141576119803; 0.1108400093969183; -0.040671958138440954; 1.00048828125; -2.1103515625; 0.74267578125;0
391;2321584845; 0.9991394607815238; 0.021631283837479698; -0.016348486256002662; -0.03138713854248921; -0.1971262582311699; 0.12202622992007842; -0.04346321092085288; 1.0517578125; -2.11328125; 0.79345703125;0
392;2321601512; 0.9990647248850552; 0.018906946294982352; -0.018608967508806477; -0.034145412582130164; -0.20916294359903967; 0.13044074806798608; -0.03976221497632986; 1.105712890625; -2.11083984375; 0.834716796875;0
393;2321618179; 0.9989757570263652; 0.016213488019906713; -0.02106150121171757; -0.036619296095607; -0.22284137908372012; 0.13569075302406253; -0.036175305002642974; 1.170166015625; -2.106201171875; 0.873291015625;0
394;2321634846; 0.9988502170242628; 0.012718429315648483; -0.02358789997236155; -0.03975042743442819; -0.2286638459525414; 0.15250759586325355; -0.0374604760495247; 1.240234375; -2.0908203125; 0.897705078125;0
395;2321651513; 0.9987535529736233; 0.006627810606465057; -0.024916332346844736; -0.04273861171715954; -0.23012794650687912; 0.17617495973910458; -0.043238549215126126; 1.322509765625; -2.0703125; 0.904296875;0
396;2321668180; 0.9986799684340583; -0.002320683008667057; -0.025508267930456578; -0.04452261611933622; -0.2142695057804028; 0.1861362947805354; -0.05275269364487563; 1.407958984375; -2.043212890625; 0.89208984375;0
397;2321684847; 0.9986303283239784; -0.013899869320363023; -0.022841311888582405; -0.04497260783664537; -0.1798702526900384; 0.17237332434564603; -0.06494143661047697; 1.4970703125; -2.0029296875; 0.85986328125;0
398;2321701514; 0.9985457482433301; -0.024182942855078715; -0.01722040198298991; -0.045000352171737534; -0.15220200324106822; 0.1403733533663386; -0.07873607860482017; 1.584716796875; -1.95556640625; 0.805908203125;0
399;2321718181; 0.9982916337662929; -0.03410629099302448; -0.010602670101718089; -0.04624022333033318; -0.12214669144846185; 0.08471064980946331; -0.08832745996484809; 1.67138671875; -1.8974609375; 0.746826171875;0
400;2321734848; 0.9982503903008489; -0.036403019465452685; -2.748084636933213E-6; -0.04659375956551148; -0.14305723938284942; -0.016005719814546515; -0.07785450658921123; 1.746826171875; -1.826904296875; 0.69775390625;0
401;2321751515; 0.9984332319931233; -0.026969706945409844; 0.012152278128726074; -0.04749777147747753; -0.19176995865664434; -0.12945791621997385; -0.08557201820689267; 1.812255859375; -1.750732421875; 0.673828125;0
402;2321768182; 0.9990052201311131; 0.003466207031521562; 0.016958436517391182; -0.04109704357355093; -0.2825632537303966; -0.24020007692362055; -0.018465885849272015; 1.856689453125; -1.685546875; 0.68896484375;0
403;2321784849; 0.9982234919123435; 0.05060683710160507; 0.008693423613566677; -0.03021973889321389; -0.37414627141943857; -0.31820457659515744; 0.029107267012134397; 1.876708984375; -1.655029296875; 0.740966796875;0
404;2321801516; 0.9951587549548231; 0.09646092575941297; -0.00322473736536244; -0.018545708595998637; -0.3517568361662335; -0.2469145557877014; -0.046060037390461175; 1.87646484375; -1.642578125; 0.798828125;0
405;2321818183; 0.9925183607487172; 0.12160842679761669; -0.008880554031821974; -0.006311090918038665; -0.3080199758478657; -0.037659265918102564; -0.10301906630729486; 1.855712890625; -1.647705078125; 0.869140625;0
406;2321834850; 0.9918506114720631; 0.12611202128736063; -0.017271293768538615; 0.005461228879257486; -0.28267834509657574; 0.16327038661177032; -0.0901243850588227; 1.836669921875; -1.660888671875; 0.93212890625;0
407;2321851517; 0.9931967850098091; 0.11288472347040043; -0.024554862521164598; 0.014637082351238008; -0.2195567802592913; 0.29657077000210047; -0.03498732873652481; 1.816162109375; -1.67529296875; 0.97802734375;0
408;2321868184; 0.9960527915131049; 0.08196004653455354; -0.027483579301244225; 0.02015043820360352; -0.18087893120042384; 0.2979364943275077; 0.01893564304664755; 1.7958984375; -1.69287109375; 1.000732421875;0
409;2321884851; 0.9980904185839279; 0.04820722350712198; -0.027554139354510433; 0.027061953682729237; -0.17192162176375853; 0.20951227412699502; 0.028649513649922534; 1.77880859375; -1.72314453125; 1.00341796875;0
410;2321901518; 0.9988710421520599; 0.023777513117532678; -0.023174957370919413; 0.03397340681856037; -0.17262316896907784; 0.1232787806295181; 0.016268888444850915; 1.75390625; -1.7646484375; 0.990234375;0
411;2321918185; 0.9990517210612111; 0.014068254726734203; -0.019442430156325356; 0.036328153864349684; -0.19221989468396558; 0.09610792315911133; 0.010630077629698767; 1.72265625; -1.813720703125; 0.976806640625;0
412;2321934852; 0.9991711861367896; 0.009693527915782457; -0.018071275469828094; 0.03516255555900866; -0.18101129209444744; 0.09917886141756899; 0.010632879067402054; 1.683837890625; -1.85791015625; 0.964111328125;0
413;2321951519; 0.999270899529134; 0.007187216424895171; -0.015523996451672961; 0.034132371855257755; -0.1493835093560506; 0.11383865242929987; 0.015378050070793629; 1.643310546875; -1.900390625; 0.94775390625;0
414;2321968186; 0.9992901089310634; 0.0074543433878535015; -0.01210605495344297; 0.0348877398331231; -0.12799003579988494; 0.1266427333459776; 0.01643813112655176; 1.595458984375; -1.9365234375; 0.939697265625;0
415;2321984853; 0.9991856563700596; 0.008479385684216245; -0.00984985502088337; 0.038198226121368535; -0.12863367497431208; 0.1315418098057604; 0.01575773528311388; 1.539306640625; -1.975830078125; 0.935791015625;0
416;2322001520; 0.9990432531873773; 0.009787002520916604; -0.009070307667064017; 0.041647597304794615; -0.13194318763491472; 0.1279091393178177; 0.019957648133735705; 1.472412109375; -2.009521484375; 0.931396484375;0
417;2322018187; 0.998920805327186; 0.013002976629863383; -0.008653456234506418; 0.043740884518341856; -0.12980042590860574; 0.12306002536060617; 0.026386682545238613; 1.39453125; -2.0458984375; 0.935302734375;0
418;2322034854; 0.9988226781853301; 0.01693915368572399; -0.007169786271095103; 0.044887824406208254; -0.12279807880934043; 0.12362498720072132; 0.03386935749540175; 1.308837890625; -2.07421875; 0.94287109375;0
419;2322051521; 0.9987631522056223; 0.02037002156178841; -0.005161007681316832; 0.04506209069244949; -0.11018006506264247; 0.13979540753305078; 0.03616500890931068; 1.210693359375; -2.094482421875; 0.961181640625;0
420;2322068188; 0.9987825102979112; 0.020518466492380538; -0.003056112103717479; 0.04475656191681382; -0.10163093145139274; 0.1653364989911479; 0.037388361695731814; 1.11474609375; -2.10498046875; 0.978515625;0
421;2322084855; 0.9989244133959181; 0.014676724992183116; -0.0017928601358733753; 0.043947647464431146; -0.0995058137408783; 0.18905134207672444; 0.04334149927801045; 1.014892578125; -2.112060546875; 0.993896484375;0
422;2322101522; 0.9991763529534026; 0.0010187429597511982; -0.002055149137981716; 0.04051363009581202; -0.10482212267052116; 0.1986275129840341; 0.036025862941902576; 0.93017578125; -2.106201171875; 0.984619140625;0
423;2322118189; 0.9992059125618519; -0.019374838150579415; -0.006763490333946577; 0.034152820477647707; -0.1209856783415835; 0.19521822181459886; 0.045947829480946306; 0.8623046875; -2.107666015625; 0.938720703125;0
424;2322134856; 0.9987818575455122; -0.03615612958891112; -0.013506628309420178; 0.030742581589668028; -0.10327752010028977; 0.2215748205053504; 0.0324118573906609; 0.825439453125; -2.10400390625; 0.865478515625;0
425;2322151523; 0.9985939541551914; -0.03986452234651866; -0.010912284365729275; 0.033194225894048114; -0.05207001017943279; 0.18888317185788414; -0.013865238395743142; 0.781982421875; -2.089111328125; 0.771728515625;0
426;2322168190; 0.9987943989184154; -0.037587004274851565; -0.005140496290451325; 0.03115350857819113; -0.04617502162117207; 0.11231640370312143; -0.03947880466999417; 0.734619140625; -2.0703125; 0.68310546875;0
427;2322184857; 0.9989874155340989; -0.036255415221454174; -0.005046641581809453; 0.026157596991434915; -0.04860529447459355; 0.04497890441449214; -0.024549022473543503; 0.700439453125; -2.0458984375; 0.59912109375;0
428;2322201524; 0.9993544164002981; -0.026946854649252894; -0.006051497896499781; 0.02297818136712243; -0.021332260845254154; -0.004365739939963706; -0.006301075652740809; 0.66943359375; -2.019287109375; 0.529541015625;0
429;2322218191; 0.9996218736600927; -0.012604136345697958; -0.007015581384585856; 0.023409977896210788; 0.013276719979383922; -0.027038511318589156; 0.011775368457671197; 0.63232421875; -1.994873046875; 0.490478515625;0
430;2322234858; 0.999639276990883; 0.001197232890880584; -0.006642545105348286; 0.02599536737715362; 0.04900587050927347; -0.011779815066274268; 0.03087041742744723; 0.5810546875; -1.9755859375; 0.475830078125;0
431;2322251525; 0.9995213686186393; 0.011487217577906661; -0.0034739941344002494; 0.028513310432046694; 0.07825170926221123; 0.0227789816037146; 0.029246882317879766; 0.5185546875; -1.952880859375; 0.48046875;0
432;2322268192; 0.999441337079999; 0.015562207606063305; 0.002300049087597456; 0.029487984067484332; 0.09714341250586672; 0.05489652695124706; 0.01580163166811012; 0.458740234375; -1.9306640625; 0.48681640625;0
433;2322284859; 0.9994420048082092; 0.01508003933514418; 0.009318383039086775; 0.028309701095823554; 0.10624012975284039; 0.06935622437399623; 0.009113972311671492; 0.40625; -1.907958984375; 0.48876953125;0
434;2322301526; 0.9994482141290639; 0.013556152711347524; 0.016379368641204265; 0.025518900462338887; 0.10530501449224806; 0.07293145054026536; 0.008499163830048095; 0.363037109375; -1.8818359375; 0.479248046875;0
435;2322318193; 0.999418541368996; 0.012330028382524727; 0.022856337693900056; 0.022093831609228193; 0.0952177657471595; 0.07374632074688817; 0.007001229141770147; 0.33935546875; -1.85791015625; 0.465576171875;0
436;2322334860; 0.9993676171484545; 0.010902791187340277; 0.02825300538509801; 0.01863498392956322; 0.08199381173181043; 0.0750676014317096; 0.002102007595424906; 0.318115234375; -1.8427734375; 0.44482421875;0
437;2322351527; 0.9992993160314038; 0.009030440466605949; 0.03291299159562744; 0.015364345361057354; 0.06786786996534014; 0.07828301792084325; -0.0023003945613630124; 0.316162109375; -1.825927734375; 0.41455078125;0
438;2322368194; 0.9992047925052499; 0.007114355575765563; 0.03725525618070339; 0.01229692913666295; 0.05167027558494308; 0.08127970515576877; -0.005069608530910017; 0.32080078125; -1.812255859375; 0.3779296875;0
439;2322384861; 0.9990849903976143; 0.00533268316427582; 0.04132982222376542; 0.009622382626988038; 0.030944348386953063; 0.08283559616529085; -0.006367008385674246; 0.34033203125; -1.803466796875; 0.340087890625;0
440;2322401528; 0.998959880197782; 0.0038853438870808943; 0.04484554392537255; 0.007275922494749202; 0.008934719806841554; 0.08361209439563219; -0.006304292902730352; 0.372802734375; -1.7978515625; 0.29443359375;0
441;2322418195; 0.9988557708307384; 0.002467362994810429; 0.04754986195816903; 0.0044801591202273715; -0.01020164234632869; 0.08442657189881705; -0.008232340120834986; 0.4130859375; -1.79931640625; 0.2548828125;0
442;2322434862; 0.998805499276838; 5.345450763416526E-4; 0.04884909126221292; 0.0010272092112596568; -0.029399288434332337; 0.08538829048168724; -0.006590567005229836; 0.467041015625; -1.796875; 0.2138671875;0
443;2322451529; 0.9987839607525792; -0.0021115308242485864; 0.0491307572177398; -0.0035085433131138506; -0.04191828815344357; 0.09190342683549725; -0.002139595548659147; 0.531005859375; -1.802978515625; 0.177734375;0
444;2322468196; 0.9987275018356517; -0.005865993285720683; 0.0493018042945619; -0.008848688783712061; -0.05325496389626092; 0.10514519458919552; 5.622796497147808E-4; 0.609130859375; -1.8095703125; 0.141845703125;0
445;2322484863; 0.9986242416184696; -0.01156468118753018; 0.049448143707431516; -0.013067642666386313; -0.07186470712301334; 0.11501851776790316; 0.003097670342920536; 0.698974609375; -1.813232421875; 0.111328125;0
446;2322501530; 0.9984613976617867; -0.01893031513003207; 0.04995276393664653; -0.014872858616914397; -0.09760509255633132; 0.10512765737444656; 0.017002369655041878; 0.803955078125; -1.8125; 0.078857421875;0
447;2322518197; 0.9983801405365212; -0.021970516485509295; 0.05049089469589189; -0.0143199490377684; -0.1283361674692899; 0.06971135589710743; 0.04147635050863253; 0.9111328125; -1.799072265625; 0.046875;0
448;2322534864; 0.9985038732924039; -0.021440213575791955; 0.04867462194701378; -0.012693046923688; -0.16620794030036173; 0.026905474542013686; 0.05103995132407747; 1.015869140625; -1.782470703125; 0.0185546875;0
449;2322551531; 0.9987647859246118; -0.020216262716021838; 0.04359031463999702; -0.012652651435461655; -0.16111557642834623; 0.026458799942245256; 0.04673736938494753; 1.1142578125; -1.7646484375; 0.007568359375;0
450;2322568198; 0.998821758296791; -0.022868207134491392; 0.04056319425275252; -0.013666291646758921; -0.16289927416605787; 0.08818469738806137; 0.04634236401768984; 1.20849609375; -1.74072265625; -9.765625E-4;0
451;2322584865; 0.9985760661046279; -0.03254462665940688; 0.04044493086510043; -0.012283934464282916; -0.21666664553313975; 0.12649762838029072; 0.0514401918425738; 1.29541015625; -1.70556640625; -0.015625;0
452;2322601532; 0.9982408268357008; -0.043190982565612435; 0.03976916225355732; -0.00825859534324741; -0.267828542393596; 0.08279452403194129; 0.06353725997106484; 1.384765625; -1.647705078125; -0.035888671875;0
453;2322618199; 0.9981524083065748; -0.047243137872442165; 0.037978704466098634; -0.004180158229878162; -0.28906697325653646; 0.02389213403289822; 0.09417562926715158; 1.46728515625; -1.581298828125; -0.05419921875;0
454;2322634866; 0.9982340104380262; -0.047747617857103075; 0.03533453834039058; 7.041264503594991E-4; -0.32316416017684546; 0.0028294983495741055; 0.12502251924099034; 1.5361328125; -1.515380859375; -0.0615234375;0
455;2322651533; 0.9985628229342621; -0.043257009046899275; 0.030886509384476128; 0.006866102236101263; -0.3512291136310213; -0.043179158679140586; 0.16444565178456888; 1.595703125; -1.455078125; -0.05859375;0
456;2322668200; 0.999110304882042; -0.032630164823866326; 0.02385847803827507; 0.012026805385373596; -0.3580890334327488; -0.06978814795526958; 0.20438303844036954; 1.635009765625; -1.414306640625; -0.049560546875;0
457;2322684867; 0.9995125870175912; -0.021892574613311178; 0.016078560560940924; 0.015387769834873334; -0.3537274079897284; -0.04790084355520463; 0.2284265353773628; 1.662841796875; -1.3916015625; -0.038818359375;0
458;2322701534; 0.9996961460668656; -0.014222814346025459; 0.007853067716455; 0.01853797234260543; -0.3536601702472483; -0.016957942075589538; 0.236337768289414; 1.67578125; -1.38671875; -0.033935546875;0
459;2322718201; 0.999716646387811; -0.010535242863461913; -3.36533991542265E-4; 0.021342969282388106; -0.3442426107559135; 0.009625920506857122; 0.23370760730904128; 1.673828125; -1.387939453125; -0.03125;0
460;2322734868; 0.9996413190149497; -0.010168172166352143; -0.008273722629241866; 0.023353524502766343; -0.3301484562512519; 0.024527272275261025; 0.22292042692311861; 1.660400390625; -1.388916015625; -0.046875;0
461;2322751535; 0.9994932588714889; -0.01182366689612116; -0.01565794217981792; 0.02506501981395493; -0.31433121801522357; 0.022801399902989905; 0.20692869731376745; 1.636474609375; -1.389404296875; -0.068359375;0
462;2322768202; 0.999310221094676; -0.011995017678668715; -0.022826314408998797; 0.026723789721886326; -0.3062223253861748; -0.0010937982104704813; 0.1940579203554733; 1.5966796875; -1.385986328125; -0.10107421875;0
463;2322784869; 0.9991258782702979; -0.008742953641893855; -0.02999216147073081; 0.027776075722375008; -0.29902262952578285; -0.03165922896466558; 0.18197163247047066; 1.544921875; -1.384033203125; -0.13818359375;0
464;2322801536; 0.9989392319241577; -0.0018250292980436233; -0.036637730402487474; 0.027834455298961135; -0.2876919005169545; -0.053161588315688346; 0.16250092800805613; 1.475830078125; -1.383056640625; -0.1748046875;0
465;2322818203; 0.998730039622223; 0.00658383092845205; -0.04196853398278688; 0.027085111811363523; -0.26738880645560514; -0.05735282614837783; 0.13551339786139813; 1.3896484375; -1.393798828125; -0.21044921875;0
466;2322834870; 0.9985386832481051; 0.01405901211303201; -0.044973841515651376; 0.026461213405113503; -0.23929967604519503; -0.05394499283252491; 0.11040056134487083; 1.2939453125; -1.4130859375; -0.23681640625;0
467;2322851537; 0.998404238764608; 0.020565676114021936; -0.04568816665177173; 0.026050343775784825; -0.1958866641093409; -0.04744637480922446; 0.08843823874657178; 1.1865234375; -1.435791015625; -0.24951171875;0
468;2322868204; 0.9983089812737088; 0.025337633818634797; -0.04552990804557217; 0.025772265986603822; -0.1595127019102073; -0.032640829800871005; 0.07430820891061377; 1.0703125; -1.462646484375; -0.248291015625;0
469;2322884871; 0.9983047917897782; 0.027161249459189074; -0.04474023307531816; 0.0254582159969925; -0.1306660709454141; -0.0020423589818165874; 0.054005362469357915; 0.957763671875; -1.492431640625; -0.23193359375;0
470;2322901538; 0.9984613208569275; 0.02469706069519828; -0.04303341486960444; 0.024762292913174902; -0.10694194790747391; 0.034692120391010946; 0.03907083246671231; 0.844970703125; -1.51416015625; -0.211669921875;0
471;2322918205; 0.9987261428156381; 0.01834523160611526; -0.04068180012248341; 0.023548572625744477; -0.08147362334510859; 0.06248187053891988; 0.024357033012881602; 0.7353515625; -1.51904296875; -0.185546875;0
472;2322934872; 0.9990005974745093; 0.00991862102163718; -0.03788976969653541; 0.0215358434927925; -0.05795184451300595; 0.07824894728375893; 0.011414281069590923; 0.6396484375; -1.512939453125; -0.165771484375;0
473;2322951539; 0.9992157210642503; 9.97687793638652E-4; -0.0349759485327345; 0.01853727114092649; -0.032562071956840695; 0.08144797901654086; -0.0010435413072900392; 0.551513671875; -1.49462890625; -0.14697265625;0
474;2322968206; 0.9993743048820136; -0.00733647781603558; -0.031381109111421064; 0.014573977692584034; -0.0014771971653444026; 0.07589063416517516; -0.012334390745123302; 0.481201171875; -1.4677734375; -0.135498046875;0
475;2322984873; 0.9994912211617286; -0.013824792491796162; -0.026856929272641664; 0.010241058697209844; 0.03261978492159191; 0.06277132372596074; -0.016294882699821246; 0.42724609375; -1.43603515625; -0.1279296875;0
476;2323001540; 0.9996159969958194; -0.016968204420994226; -0.02105278456896476; 0.006059608128761967; 0.06755635295086448; 0.03993948298068112; -0.011272911061394782; 0.383544921875; -1.404541015625; -0.12451171875;0
477;2323018207; 0.9997551785598566; -0.016135363178387985; -0.014933616693287688; 0.002494010887818338; 0.09330485474014223; 0.012223457851831081; 8.144010736270101E-4; 0.354736328125; -1.379638671875; -0.119140625;0
478;2323034874; 0.9998942385060086; -0.011051313633493015; -0.009454113001232502; -4.101629994146538E-6; 0.10465798771588009; -0.015204279834644523; 0.01990983538320156; 0.3369140625; -1.3642578125; -0.120361328125;0
479;2323051541; 0.9999761638818054; -0.0028928515391314913; -0.006174029376243507; -0.0010883195589686536; 0.09936873058307628; -0.03217626175620552; 0.03816287626366956; 0.324951171875; -1.357666015625; -0.11669921875;0
480;2323068208; 0.9999729005612962; 0.005684817770922668; -0.004541855233887116; -0.0011191697699347858; 0.09053244646494385; -0.031591709815860396; 0.047667891710505526; 0.318359375; -1.361083984375; -0.108642578125;0
481;2323084875; 0.9999090598602105; 0.01311564227950332; -0.0029483035000980595; -0.0010767745991661917; 0.08443344135011407; -0.023603562518648844; 0.04850015178255625; 0.30712890625; -1.376220703125; -0.09375;0
482;2323101542; 0.999810299729997; 0.019430507018753818; -5.861679849181735E-4; -0.0012150546906013193; 0.07978643755613007; -0.01386561387775688; 0.047943650423433425; 0.302978515625; -1.397705078125; -0.0791015625;0
483;2323118209; 0.9997176935605033; 0.02359072347775998; 0.001857451252009812; -0.0021356082763110966; 0.07382332860126573; -0.005392488865623829; 0.047034417300961015; 0.30126953125; -1.423095703125; -0.061279296875;0
484;2323134876; 0.9996528859626639; 0.0256246808418511; 0.004720238637557662; -0.003899059562897045; 0.06888346212445985; 0.005008957833318317; 0.04422310277371112; 0.304931640625; -1.453369140625; -0.039794921875;0
485;2323151543; 0.999607374048135; 0.026185878749320907; 0.0075530737226994216; -0.006507578663157599; 0.059013001459656704; 0.02151349376849145; 0.040459885252122005; 0.312255859375; -1.488037109375; -0.017822265625;0
486;2323168210; 0.9995927305607999; 0.025039023284017803; 0.009508621995794166; -0.00984918426712078; 0.04462234473785558; 0.04078599174701665; 0.03590048852669975; 0.326416015625; -1.526123046875; 9.765625E-4;0
487;2323184877; 0.9995642286376687; 0.023909265251680634; 0.010730459843518394; -0.013585179227885937; 0.025717172026403917; 0.05375249688365105; 0.03383536629041235; 0.347412109375; -1.56494140625; 0.02294921875;0
488;2323201544; 0.9994947127856794; 0.024060508924728455; 0.010863699971175868; -0.01770285419619025; 0.005524892655311649; 0.06595800796264392; 0.033602553155928756; 0.371826171875; -1.6103515625; 0.049560546875;0
489;2323218211; 0.9993763347965672; 0.0251081320733154; 0.010882918484675097; -0.022317823317353578; -0.005163518093089027; 0.07799673278786463; 0.024681236045079474; 0.4033203125; -1.66259765625; 0.081787109375;0
490;2323234878; 0.9992144199646821; 0.02639905362208092; 0.011705297325123988; -0.027140724327710447; -0.01818391138497205; 0.0807921680745997; 0.019008112403589808; 0.438720703125; -1.720458984375; 0.122314453125;0
491;2323251545; 0.9990640177851118; 0.026945364925817977; 0.011623416577887182; -0.03177942515435447; -0.04941889741854996; 0.07853747875544899; 0.02591280941161764; 0.48681640625; -1.778076171875; 0.169189453125;0
492;2323268212; 0.9989431930023416; 0.027292376494632647; 0.011082867130020825; -0.03528162972057723; -0.08352018186550739; 0.08785261613952945; 0.02217908115193748; 0.53857421875; -1.837646484375; 0.226806640625;0
493;2323284879; 0.9989072761718885; 0.026056102790828886; 0.010306848508108868; -0.03740457180670722; -0.11681926220435111; 0.10710012218995027; 0.011176390376238375; 0.5927734375; -1.89453125; 0.287109375;0
494;2323301546; 0.9989818485808357; 0.022229399033438194; 0.008877902979774257; -0.038240068819370726; -0.14401640351945208; 0.13110160958515762; -0.0011248286281557995; 0.657958984375; -1.943115234375; 0.3447265625;0
495;2323318213; 0.9990876381712086; 0.01776383296481128; 0.007553882205739105; -0.038095621211579646; -0.16175473566774007; 0.150441371026892; 0.0025162279391920603; 0.726806640625; -1.983154296875; 0.393310546875;0
496;2323334880; 0.9990947341094312; 0.01366620594617364; 0.006466019548956815; -0.03976352198981195; -0.15263453913254554; 0.1690348910910301; 0.008082968036019315; 0.7978515625; -2.015625; 0.44091796875;0
497;2323351547; 0.9990417875255053; 0.009369679648128446; 0.005928190755176643; -0.04233878169603695; -0.1533245920239387; 0.18173823960652466; 0.01955128232356977; 0.872802734375; -2.0419921875; 0.48388671875;0
498;2323368214; 0.9989166089735194; 0.007566803344805917; 0.0022963027852409006; -0.045859337080952606; -0.1518181357425459; 0.1719736596244974; 0.044677345793541094; 0.9609375; -2.059814453125; 0.5234375;0
499;2323384881; 0.9987902686628168; 0.0046266662216813; 0.0011784260660664405; -0.048940826475837675; -0.14889914308856966; 0.15603988119388695; 0.03545465658980688; 1.051025390625; -2.06591796875; 0.552734375;0
500;2323401548; 0.998756991806568; 0.0026562012391435075; 5.828462230377808E-4; -0.049770234103855726; -0.1742413774970486; 0.1466569633823731; 0.02384724177351738; 1.14794921875; -2.06494140625; 0.578857421875;0
501;2323418215; 0.9987213891842904; 0.001604619554819553; 7.981729807093885E-4; -0.050521034250877735; -0.20977573643157668; 0.15209293408591706; 0.013041386730203587; 1.242431640625; -2.05908203125; 0.600341796875;0
502;2323434882; 0.998691368351249; -0.001067705172433181; 0.0012852182428668704; -0.051115154313008726; -0.2521402966795894; 0.1637709800988251; 0.001390823930268785; 1.34130859375; -2.0390625; 0.616943359375;0
503;2323451549; 0.9986204172688617; -0.007595770348599318; 9.903523380709325E-4; -0.0519479132287557; -0.2435336285098499; 0.15243412543189572; -0.009928513211340723; 1.437255859375; -2.011474609375; 0.623779296875;0
504;2323468216; 0.9985162477907218; -0.014193793878025385; 0.0037630736661747326; -0.052437375886567106; -0.21945397695211463; 0.09777145257349133; -0.012139006300815054; 1.5341796875; -1.96533203125; 0.6142578125;0
505;2323484883; 0.9985221961346156; -0.014661082373003675; 0.00871803098206314; -0.05159915140728761; -0.25405303794771167; 0.006552943796646466; -0.009159060042985195; 1.62451171875; -1.911865234375; 0.607666015625;0
506;2323501550; 0.9986514434060295; -0.005985288909104103; 0.012192125007368606; -0.05010811299114315; -0.31930989765728335; -0.0830259022536261; -7.964373976888928E-4; 1.703857421875; -1.8515625; 0.612548828125;0
507;2323518217; 0.9986915817237584; 0.013727952519222597; 0.012485696967451028; -0.047652652444168615; -0.3656480193899613; -0.14116620298976848; 0.009309199066114562; 1.763427734375; -1.801025390625; 0.644775390625;0
508;2323534884; 0.9980843469391669; 0.04446969730792091; 0.008550381700815264; -0.042154162180371435; -0.4190079285336627; -0.1830225273823216; 0.023382509718365863; 1.801513671875; -1.763427734375; 0.69873046875;0
509;2323551551; 0.9958863398845575; 0.08370344982801173; -0.002399613229402381; -0.03461751543046405; -0.46754925701533234; -0.20191724472900285; -0.018526097176736145; 1.81982421875; -1.7392578125; 0.771240234375;0
510;2323568218; 0.9927050673956955; 0.11685614445987132; -0.0158666393985131; -0.025090644134396437; -0.4546056684388647; -0.11911116340910023; -0.13149333138749564; 1.8203125; -1.72705078125; 0.850830078125;0
511;2323584885; 0.9911973627434026; 0.1292735850860786; -0.025311610875623936; -0.01324577836130353; -0.3873962288938845; 0.02540080452520306; -0.21217828340594663; 1.8134765625; -1.714111328125; 0.92138671875;0
512;2323601552; 0.991266191713145; 0.12716356306496873; -0.034833744681066904; 0.002715810493070847; -0.3291361727644263; 0.14681864935351602; -0.18712552469597343; 1.802978515625; -1.708740234375; 0.967529296875;0
513;2323618219; 0.9916406419288125; 0.12027135805138996; -0.044127756623550986; 0.01537461553534425; -0.2381486838509285; 0.19282084507170927; -0.1322518316715971; 1.784912109375; -1.7177734375; 0.99658203125;0
514;2323634886; 0.9932683369554309; 0.10656583491270691; -0.039950634907795456; 0.02157962932059443; -0.13987354361401225; 0.20424028705926686; -0.0815661154960581; 1.766357421875; -1.730712890625; 1.016845703125;0
515;2323651553; 0.9964277227883012; 0.07414449241858784; -0.028918627468788902; 0.02825067235008333; -0.10165539153866335; 0.2467005687367732; -0.027923111034055405; 1.742919921875; -1.755859375; 1.043212890625;0
516;2323668220; 0.9984390785555175; 0.03550121741713447; -0.022829236477276253; 0.036577259834152054; -0.133575727913002; 0.21800377413354766; -0.001462435261229477; 1.71044921875; -1.794189453125; 1.04736328125;0
517;2323684887; 0.9987215468797659; 0.01347298644707795; -0.02266939318288347; 0.04312596720079654; -0.17199160123979915; 0.12797847625644262; -0.0023987649617297907; 1.67041015625; -1.8466796875; 1.035888671875;0
518;2323701554; 0.998798463590207; 0.0056463529042446725; -0.023075571873039994; 0.04286333878100046; -0.17778920541576823; 0.07903135865528205; -0.0011193939098150182; 1.62939453125; -1.89599609375; 1.008544921875;0
519;2323718221; 0.99898923003504; 0.0019989084740053287; -0.022028796290597678; 0.039131250592048035; -0.15414209954874325; 0.07480001487689156; -0.006379325918698837; 1.578125; -1.940673828125; 0.98193359375;0
520;2323734888; 0.9991832308194676; 9.17191807700557E-4; -0.01901282117865716; 0.035644671960713525; -0.13037829850067295; 0.07719572203248055; -0.015130374431608688; 1.53173828125; -1.9755859375; 0.955810546875;0
521;2323751555; 0.999314049194142; 0.0029480342517308467; -0.01608477263264807; 0.033226800426982735; -0.12156849091508763; 0.07199537737147721; -0.016934835709711694; 1.48095703125; -2.006103515625; 0.93310546875;0
522;2323768222; 0.9993546486524183; 0.00875638474475643; -0.014604613738731455; 0.0316277915850276; -0.11575747047515211; 0.06748915695488499; -0.008970136939120528; 1.427978515625; -2.032470703125; 0.92431640625;0
523;2323784889; 0.999277475916043; 0.017033881361386616; -0.014274947662021755; 0.030831783631096458; -0.10059866027215443; 0.06272010499532732; 0.001985311331241607; 1.36962890625; -2.05615234375; 0.92626953125;0
524;2323801556; 0.9991292191258451; 0.024552555894117478; -0.014367713672344242; 0.0305212105244011; -0.08855337596420937; 0.06055052039135459; 0.012204534826334844; 1.302978515625; -2.0732421875; 0.94775390625;0
525;2323818223; 0.9990090254602821; 0.02779386189043223; -0.015206194947521345; 0.031260836926271775; -0.0618652162097868; 0.08399435521012949; 0.023482353977885236; 1.236572265625; -2.087646484375; 0.97119140625;0
526;2323834890; 0.9990599471080186; 0.02664706139822981; -0.014396111834146465; 0.031014644402617975; -0.02877341022505714; 0.11445987897727446; 0.02735386117808718; 1.16748046875; -2.09814453125; 1.0029296875;0
527;2323851557; 0.9992090971276815; 0.02251137379402235; -0.013993636561283553; 0.029641126884450673; -0.018035443696705334; 0.14934861612880612; 0.02777166322324362; 1.10107421875; -2.10205078125; 1.025146484375;0
528;2323868224; 0.999376505702681; 0.017736620177926765; -0.008562094628372709; 0.029303629292936423; 0.004694365186436143; 0.17771262993463713; 0.009287255021246749; 1.035400390625; -2.102783203125; 1.0439453125;0
529;2323884891; 0.9995953636893187; 0.008490656672170138; -0.00426928173177793; 0.026810275522434843; -0.013328423373641823; 0.17892522553453577; 0.005428000817859845; 0.974853515625; -2.10302734375; 1.051025390625;0
530;2323901558; 0.9997037797214818; -4.804628495459068E-4; -0.003475391694567898; 0.024084094722504085; -0.018295280557777505; 0.1621869846999989; 0.002990727063150969; 0.9287109375; -2.10205078125; 1.04248046875;0
531;2323918225; 0.9997629887152568; -0.006407839753662936; -0.0026177352309151307; 0.020641062159913574; -0.00492320812153632; 0.13100439729916175; 0.007900673684898916; 0.888427734375; -2.104736328125; 1.02490234375;0
532;2323934892; 0.9998132940361807; -0.008240190148537552; -0.0014262589267668437; 0.017419590130409085; 0.007079085659648997; 0.10448749852294022; 0.00914764082944997; 0.857666015625; -2.1015625; 0.9970703125;0
533;2323951559; 0.9998528780962; -0.008200195675016855; -4.710821537059484E-4; 0.015058453945918012; 0.009469761390190887; 0.09200717648931588; 0.009622781688435151; 0.828857421875; -2.10205078125; 0.976806640625;0
534;2323968226; 0.9998955608307846; -0.006534126164566584; -2.756163444034288E-4; 0.012887849385638181; 0.015100780113990044; 0.08244003548691481; 0.011429553580135601; 0.80419921875; -2.100830078125; 0.95703125;0
535;2323984893; 0.9999463802207659; -0.0027977804095742353; 4.034921594575636E-4; 0.00996224383582857; 0.028323186258561048; 0.07086184093831825; 0.013572424263228494; 0.7861328125; -2.097412109375; 0.942138671875;0
536;2324001560; 0.9999733573563868; 0.0015310668300811958; 0.001671804746531558; 0.006938694448328814; 0.0369913418033078; 0.06303002009898621; 0.016262722188816615; 0.772705078125; -2.096435546875; 0.94140625;0
537;2324018227; 0.9999689292389609; 0.005606776931730478; 0.0032279545889016825; 0.004503878139562546; 0.04724964171041518; 0.06517771178725545; 0.013579862851347024; 0.756591796875; -2.093017578125; 0.94677734375;0
538;2324034894; 0.9999533076906458; 0.008006058336689742; 0.004975147237174738; 0.002129173176286095; 0.05721910111052013; 0.07699386113262542; 0.011821411925965735; 0.74267578125; -2.091064453125; 0.959228515625;0
539;2324051561; 0.9999374717888168; 0.008509183445425339; 0.007255340150167045; 7.968053054287218E-5; 0.060743242109735175; 0.09460001786723492; 0.007198996489082329; 0.736572265625; -2.087890625; 0.974365234375;0
540;2324068228; 0.9999301561891597; 0.00667606739566326; 0.009580664613509983; -0.0018231108618753655; 0.05288135140266582; 0.10909589492367706; -4.384099648953241E-4; 0.7314453125; -2.083984375; 0.982421875;0
541;2324084895; 0.9999152713997541; 0.004273527346646933; 0.011500790643653946; -0.004349574708453569; 0.04488047297668884; 0.11202299555866864; -0.0032001377956608415; 0.733154296875; -2.083740234375; 0.990234375;0
542;2324101562; 0.9998782994525749; 0.002454748431824416; 0.01348964905436706; -0.007442436587121182; 0.037304960440036374; 0.10458004792481994; 3.14379110145284E-4; 0.740234375; -2.084716796875; 0.995361328125;0
543;2324118229; 0.9998245552189099; 0.0012970460123688105; 0.015258717151803826; -0.010786473187837391; 0.031425934358881955; 0.09650553899453193; 0.005680600903923879; 0.749267578125; -2.08740234375; 1.000732421875;0
544;2324134896; 0.9997671185740615; 5.014933092265111E-4; 0.016707268300423742; -0.013650066245877598; 0.023063402451532062; 0.0966162274824322; 0.010173404304658112; 0.77001953125; -2.089599609375; 1.00732421875;0
545;2324151563; 0.9997110115991283; -3.324363204674774E-4; 0.018195471740680036; -0.015706927824189258; 0.014221235971583689; 0.10538098589273157; 0.0110927838060106; 0.794189453125; -2.092041015625; 1.011474609375;0
546;2324168230; 0.9996458750158399; -0.001678590076876485; 0.0204129604181072; -0.01698875940550898; -9.665410076894637E-4; 0.11469929419578806; 0.012520882405939137; 0.8203125; -2.094970703125; 1.014892578125;0
547;2324184897; 0.999596467676325; -0.002847203975226531; 0.02181570975738534; -0.017968584983755285; -0.01622982024216761; 0.11432046479471972; 0.018447038191643002; 0.849609375; -2.100830078125; 1.02197265625;0
548;2324201564; 0.9995473192874178; -0.0034933109992515143; 0.022651611236978623; -0.019489940789241794; -0.02927946743316061; 0.10073400143305813; 0.02707517707178111; 0.877197265625; -2.10009765625; 1.0224609375;0
549;2324218231; 0.9994681599767441; -0.0036623867978260727; 0.02375863943084766; -0.022034317961750958; -0.026966568506376153; 0.08872744911090753; 0.020683861504617648; 0.911865234375; -2.1015625; 1.025634765625;0
550;2324234898; 0.9993336772437391; -0.004549827282269658; 0.026603106708023797; -0.0245718398108343; -0.02817068299224967; 0.0895969465479916; 0.007333472801692114; 0.950927734375; -2.105224609375; 1.033203125;0
551;2324251565; 0.9992237723490254; -0.006138569615873557; 0.029425497632790513; -0.02546194856480716; -0.04918719212329897; 0.09724709148904147; 0.0028106258094099737; 0.98828125; -2.099365234375; 1.03857421875;0
552;2324268232; 0.9991892682109949; -0.007628261215511245; 0.030369787094132964; -0.02530399088407831; -0.08147256573235048; 0.10247491780149687; 0.00652288949148053; 1.0302734375; -2.10205078125; 1.04638671875;0
553;2324284899; 0.9992017285358863; -0.009327039660831468; 0.029014816215971406; -0.025827358788997116; -0.10939512989211567; 0.10651544436972495; 0.009451091950337491; 1.070556640625; -2.097412109375; 1.051025390625;0
