DeviceTag:,Xsens DOT,,,,,,,,,,,,,,,,,
FirmwareVersion:,1.3.0,,,,,,,,,,,,,,,,,
AppVersion:,2020.1.1,,,,,,,,,,,,,,,,,
Measurement Mode:,Sensor fusion Mode - Orientation (Quaternion),,,,,,,,,,,,,,,,,
StartTime:,2020-08-10 12:00:17.524 +0200,,,,,,,,,,,,,,,,,
© Xsens Technologies B. V. 2005-2020,,,,,,,,,,,,,,,,,,,
PacketCounter,SampleTimeFine,Quat_W,Quat_X,Quat_Y,Quat_Z
1, 970698876, 0.900515, 0.029549921, 0.10467821, 0.42100123
2, 970715543, 0.9004205, 0.030620353, 0.10518229, 0.4210013
3, 970732210, 0.9003485, 0.030886222, 0.105793625, 0.42098287
4, 970748877, 0.9002342, 0.03159385, 0.10645193, 0.42100874
5, 970765544, 0.90012944, 0.032803785, 0.10716866, 0.42095852
6, 970782211, 0.90009254, 0.033602636, 0.10752391, 0.42088377
7, 970798878, 0.90016896, 0.03323609, 0.10725853, 0.42081708
8, 970815545, 0.90023726, 0.032816045, 0.10684366, 0.4208096
9, 970832212, 0.9002221, 0.033298597, 0.1071915, 0.42071548
10, 970848879, 0.9000945, 0.03420452, 0.107893795, 0.42073634
11, 970865546, 0.9000613, 0.034261893, 0.108162254, 0.42073348
12, 970882213, 0.90012205, 0.033518437, 0.10802766, 0.42069814
13, 970898880, 0.90013397, 0.03345464, 0.108133934, 0.42065036
14, 970915547, 0.90008694, 0.034187257, 0.10850458, 0.42059666
15, 970932214, 0.90007347, 0.034598075, 0.10874132, 0.42053068
16, 970948881, 0.900138, 0.034107137, 0.10874733, 0.42043123
17, 970965548, 0.900104, 0.033539098, 0.108855456, 0.42052212
18, 970982215, 0.90023714, 0.033744164, 0.10924024, 0.42012036
19, 970998882, 0.90015125, 0.03411593, 0.109738566, 0.4201447
20, 971015549, 0.9001523, 0.034010038, 0.10983863, 0.42012444
21, 971032216, 0.90012395, 0.033735543, 0.10967904, 0.4202491
22, 971048883, 0.9000761, 0.033898782, 0.10964046, 0.42034847
23, 971065550, 0.89981556, 0.03417714, 0.10979839, 0.42084256
24, 971082217, 0.89953667, 0.034108147, 0.11003303, 0.42138246
25, 971098884, 0.8995646, 0.034276422, 0.11003938, 0.4213074
26, 971115551, 0.89956206, 0.034591258, 0.10992613, 0.42131668
27, 971132218, 0.89959794, 0.034475997, 0.1097489, 0.42129585
28, 971148885, 0.89971346, 0.03361632, 0.10946851, 0.4211917
29, 971165552, 0.89981776, 0.032939106, 0.10902464, 0.42113742
30, 971182219, 0.89972055, 0.033121627, 0.10870723, 0.42141303
31, 971198886, 0.8996853, 0.03366978, 0.108556405, 0.42148364
32, 971215553, 0.89952147, 0.03336019, 0.10855879, 0.421857
33, 971232220, 0.8993391, 0.03246074, 0.10857038, 0.42231283
34, 971248887, 0.89937603, 0.032164108, 0.10857991, 0.42225444
35, 971265554, 0.89939797, 0.03277145, 0.10869228, 0.42213205
36, 971282221, 0.8992699, 0.033001058, 0.10876603, 0.42236817
37, 971298888, 0.8995846, 0.032307148, 0.10867823, 0.42177373
38, 971315555, 0.8997248, 0.031256407, 0.108776614, 0.4215286
39, 971332222, 0.8999138, 0.031115942, 0.109149486, 0.4210386
40, 971348889, 0.8998573, 0.03161678, 0.10950039, 0.42103118
41, 971365556, 0.89999497, 0.031764783, 0.10944762, 0.42073902
42, 971382223, 0.9002171, 0.03135257, 0.10918063, 0.42036387
43, 971398890, 0.90042645, 0.031331364, 0.10911651, 0.4199336
44, 971415557, 0.90068877, 0.03180536, 0.10954999, 0.419222
45, 971432224, 0.9005184, 0.031710707, 0.110094145, 0.41945252
46, 971448891, 0.9005234, 0.031138025, 0.11046529, 0.41938707
47, 971465558, 0.90045863, 0.030959854, 0.11084702, 0.41943863
48, 971482225, 0.900333, 0.031353857, 0.1114618, 0.41951624
49, 971498892, 0.9005007, 0.031315345, 0.11201312, 0.41901204
50, 971515559, 0.90018725, 0.030373175, 0.11238831, 0.41965398
51, 971532226, 0.900015, 0.029702004, 0.11277658, 0.4199667
52, 971548893, 0.8993761, 0.029467389, 0.11358392, 0.421133
53, 971565560, 0.89913017, 0.028756224, 0.11470761, 0.4214026
54, 971582227, 0.8989048, 0.027202746, 0.115484096, 0.42177463
55, 971598894, 0.8986084, 0.025971835, 0.11608792, 0.4223177
56, 971615561, 0.89881206, 0.025886312, 0.11709241, 0.42161152
57, 971632228, 0.8986751, 0.0256328, 0.11855311, 0.42151108
58, 971648895, 0.898256, 0.024677858, 0.11991998, 0.42207393
59, 971665562, 0.8978776, 0.02350378, 0.121299736, 0.42255184
60, 971682229, 0.8980863, 0.022509648, 0.12278214, 0.42173335
61, 971698896, 0.897643, 0.021167353, 0.12422668, 0.4223229
62, 971715563, 0.89789635, 0.020083448, 0.12540329, 0.42148903
63, 971732230, 0.8983845, 0.01963562, 0.1266823, 0.4200852
64, 971748897, 0.8981851, 0.019529765, 0.1284246, 0.4199876
65, 971765564, 0.8977732, 0.01881116, 0.13055225, 0.42024472
66, 971782231, 0.8976026, 0.017866295, 0.13253444, 0.42002982
67, 971798898, 0.8974981, 0.01760767, 0.13445015, 0.41965535
68, 971815565, 0.8974299, 0.017880378, 0.13638338, 0.41916528
69, 971832232, 0.897431, 0.017219445, 0.13813548, 0.41861686
70, 971848899, 0.89739245, 0.015707808, 0.13956559, 0.41828448
71, 971865566, 0.8972348, 0.01476397, 0.14120607, 0.41810608
72, 971882233, 0.8968775, 0.014695525, 0.14336604, 0.41814008
73, 971898900, 0.8965278, 0.014431863, 0.14539398, 0.41819927
74, 971915567, 0.8963356, 0.013236863, 0.14689577, 0.41812557
75, 971932234, 0.89623433, 0.011862652, 0.14822236, 0.41791594
76, 971948901, 0.8960369, 0.011135802, 0.14999351, 0.4177268
77, 971965568, 0.8956827, 0.010735555, 0.15198845, 0.41777614
78, 971982235, 0.8952719, 0.009503274, 0.15380447, 0.41802177
79, 971998902, 0.8948206, 0.007558683, 0.15529673, 0.4184759
80, 972015569, 0.89427286, 0.0065282136, 0.15707296, 0.419001
81, 972032236, 0.8936911, 0.0063004983, 0.15950298, 0.4193272
82, 972048903, 0.89314294, 0.005609473, 0.16196741, 0.4195604
83, 972065570, 0.89264995, 0.004143694, 0.16423562, 0.41974494
84, 972082237, 0.89219654, 0.0029165677, 0.16656925, 0.41979933
85, 972098904, 0.8917374, 0.001927845, 0.16919483, 0.4197306
86, 972115571, 0.8913617, 4.980895E-4, 0.17169943, 0.4195156
87, 972132238, 0.8910257, -0.0012605402, 0.1740817, 0.41924584
88, 972148905, 0.8906137, -0.0027178866, 0.17664267, 0.41904324
89, 972165572, 0.8900982, -0.0041271704, 0.17947593, 0.4189231
90, 972182239, 0.8895797, -0.006042292, 0.18219575, 0.41882733
91, 972198906, 0.8890461, -0.007882123, 0.18456796, 0.41889107
92, 972215573, 0.88833994, -0.008871433, 0.18725424, 0.41917706
93, 972232240, 0.88742423, -0.009222546, 0.19067158, 0.41956857
94, 972248907, 0.8863834, -0.010030426, 0.19451603, 0.4199855
95, 972265574, 0.8853908, -0.011358894, 0.19824561, 0.42030102
96, 972282241, 0.88442767, -0.012172459, 0.20200464, 0.42051622
97, 972298908, 0.8834385, -0.012699655, 0.20593865, 0.42067164
98, 972315575, 0.8824989, -0.014637096, 0.20965913, 0.42074308
99, 972332242, 0.8817415, -0.017932288, 0.21254879, 0.42075327
100, 972348909, 0.8811112, -0.02103193, 0.21521103, 0.42057717
101, 972365576, 0.880398, -0.022997929, 0.21838562, 0.42033124
102, 972382243, 0.87962943, -0.024991835, 0.22168046, 0.42010137
103, 972398910, 0.87875026, -0.028424852, 0.22460218, 0.4201716
104, 972415577, 0.87809724, -0.031654675, 0.2270183, 0.42000726
105, 972432244, 0.87737834, -0.03356605, 0.22995202, 0.419765
106, 972448911, 0.8766383, -0.03508483, 0.23321775, 0.41938528
107, 972465578, 0.8758781, -0.038301107, 0.23610896, 0.41907442
108, 972482245, 0.8752125, -0.04239834, 0.23822775, 0.41887102
109, 972498912, 0.8745377, -0.045360386, 0.24032259, 0.4187736
110, 972515579, 0.87374145, -0.046867218, 0.24293655, 0.41876134
111, 972532246, 0.87290007, -0.048481885, 0.2455635, 0.41880003
112, 972548913, 0.8720783, -0.050853524, 0.24783817, 0.41889086
113, 972565580, 0.8712753, -0.05264069, 0.25028273, 0.41888782
114, 972582247, 0.8703722, -0.052764494, 0.25346965, 0.4188335
115, 972598914, 0.8693807, -0.05238049, 0.25682753, 0.41889513
116, 972615581, 0.8682791, -0.053315923, 0.26011553, 0.41903317
117, 972632248, 0.8671766, -0.055383794, 0.26324555, 0.41909358
118, 972648915, 0.86617535, -0.05689487, 0.2667044, 0.4187747
119, 972665582, 0.8651265, -0.058795184, 0.27026412, 0.41839772
120, 972682249, 0.86404467, -0.062451977, 0.27327922, 0.418145
121, 972698916, 0.8630614, -0.06664159, 0.27569923, 0.41794032
122, 972715583, 0.86216617, -0.06963816, 0.27836192, 0.417534
123, 972732250, 0.8612834, -0.07188455, 0.28139082, 0.4169444
124, 972748917, 0.86035454, -0.07478007, 0.2840232, 0.41656792
125, 972765584, 0.8593962, -0.078357734, 0.28608862, 0.41647512
126, 972782251, 0.8584088, -0.08169616, 0.28817183, 0.41643378
127, 972798918, 0.85750335, -0.08400205, 0.29039642, 0.4162952
128, 972815585, 0.8566749, -0.08573128, 0.292609, 0.4160991
129, 972832252, 0.8558994, -0.08780228, 0.29436132, 0.41602686
130, 972848919, 0.8551033, -0.0901474, 0.29591933, 0.41605708
131, 972865586, 0.8542713, -0.09172556, 0.2978804, 0.41602176
132, 972882253, 0.85335946, -0.09261296, 0.300655, 0.41570082
133, 972898920, 0.8523164, -0.093823195, 0.30370975, 0.41534868
134, 972915587, 0.8511713, -0.095951945, 0.3066517, 0.41504887
135, 972932254, 0.85010654, -0.09816007, 0.30923414, 0.4147985
136, 972948921, 0.84913063, -0.09973055, 0.3121046, 0.41427255
137, 972965588, 0.8479637, -0.10149479, 0.31551826, 0.4136485
138, 972982255, 0.8466395, -0.1042733, 0.318847, 0.41311648
139, 972998922, 0.84527534, -0.10782675, 0.3216256, 0.41284397
140, 973015589, 0.8439672, -0.11111261, 0.32439724, 0.41248026
141, 973032256, 0.8426731, -0.11401255, 0.32747874, 0.4118995
142, 973048923, 0.8412128, -0.11756584, 0.33047977, 0.4114882
143, 973065590, 0.83976144, -0.121629946, 0.33314323, 0.4111235
144, 973082257, 0.83834815, -0.12519954, 0.3360178, 0.41059673
145, 973098924, 0.83701724, -0.12834634, 0.3389978, 0.40989006
146, 973115591, 0.8356703, -0.1317262, 0.3415624, 0.40943682
147, 973132258, 0.8343246, -0.13526475, 0.34362355, 0.40930292
148, 973148925, 0.83290654, -0.13821934, 0.34593868, 0.4092538
149, 973165592, 0.8314673, -0.14027077, 0.3487422, 0.4091033
150, 973182259, 0.8299094, -0.1420368, 0.3518934, 0.40895844
151, 973198926, 0.8282858, -0.14353466, 0.35527387, 0.40880454
152, 973215593, 0.8267817, -0.14397067, 0.35911503, 0.40833947
153, 973232260, 0.82526714, -0.14390062, 0.36363953, 0.40742266
154, 973248927, 0.8237207, -0.14431766, 0.36825344, 0.4062588
155, 973265594, 0.82214886, -0.14584963, 0.37224743, 0.40525472
156, 973282261, 0.8204171, -0.14876664, 0.37555876, 0.40464798
157, 973298928, 0.8185512, -0.1527492, 0.37843734, 0.4042613
158, 973315595, 0.8167611, -0.15678768, 0.38103837, 0.40389198
159, 973332262, 0.8150922, -0.16036318, 0.38346598, 0.40356198
160, 973348929, 0.81337464, -0.16346179, 0.38606447, 0.40330645
161, 973365596, 0.8114495, -0.16632079, 0.38911462, 0.4030842
162, 973382263, 0.80949813, -0.16887935, 0.39231268, 0.40284398
163, 973398930, 0.80766237, -0.1705309, 0.3957959, 0.40242583
164, 973415597, 0.80600667, -0.17055336, 0.39988476, 0.40169302
165, 973432264, 0.80414027, -0.17015755, 0.4048573, 0.40061888
166, 973448931, 0.8018223, -0.17052251, 0.4104353, 0.39943212
167, 973465598, 0.79953027, -0.1720466, 0.4156205, 0.3980088
168, 973482265, 0.79725903, -0.17540047, 0.41960886, 0.3969146
169, 973498932, 0.7949401, -0.18063341, 0.42192602, 0.39676225
170, 973515599, 0.79227555, -0.18669413, 0.42394498, 0.39713413
171, 973532266, 0.7897101, -0.19174054, 0.42672485, 0.39686224
172, 973548933, 0.78743035, -0.19533691, 0.43009114, 0.39600378
173, 973565600, 0.7853387, -0.19844481, 0.4332732, 0.39514214
174, 973582267, 0.7831384, -0.20168296, 0.4362365, 0.3946088
175, 973598934, 0.7806078, -0.20496465, 0.43957168, 0.3942305
176, 973615601, 0.7780055, -0.20766748, 0.4434819, 0.39358044
177, 973632268, 0.77541023, -0.20920789, 0.44824356, 0.39249048
178, 973648935, 0.7729374, -0.20998186, 0.45369223, 0.39069024
179, 973665602, 0.7706465, -0.21084881, 0.4590834, 0.38844466
180, 973682269, 0.768134, -0.21263704, 0.46409592, 0.3864851
181, 973698936, 0.7653477, -0.21544795, 0.46870643, 0.38488892
182, 973715603, 0.76237136, -0.2184615, 0.47329617, 0.38347808
183, 973732270, 0.7594099, -0.22132988, 0.47801322, 0.3818547
184, 973748937, 0.75642717, -0.22412571, 0.48276722, 0.38016
185, 973765604, 0.75336623, -0.22677375, 0.4874795, 0.37865117
186, 973782271, 0.7495836, -0.23050797, 0.4923881, 0.37755072
187, 973798938, 0.7452771, -0.23556566, 0.49699545, 0.37691706
188, 973815605, 0.7409192, -0.2411172, 0.50111586, 0.3765425
189, 973832272, 0.7367482, -0.24641669, 0.50496113, 0.37615874
190, 973848939, 0.7321316, -0.2516521, 0.5093685, 0.37576383
191, 973865606, 0.72742474, -0.2564898, 0.5143912, 0.37479082
192, 973882273, 0.72290653, -0.26032603, 0.5201961, 0.37287083
193, 973898940, 0.71879554, -0.2633011, 0.5262876, 0.37017182
194, 973915607, 0.7144902, -0.26596302, 0.5321812, 0.36817223
195, 973932274, 0.7098151, -0.26923037, 0.53784716, 0.3666038
196, 973948941, 0.705524, -0.27220544, 0.54313284, 0.3648933
197, 973965608, 0.7014715, -0.27557373, 0.54778004, 0.3632273
198, 973982275, 0.69717896, -0.2802402, 0.5515192, 0.3622617
199, 973998942, 0.69223696, -0.28585303, 0.5547103, 0.3624816
200, 974015609, 0.6873681, -0.2911145, 0.5578152, 0.36279443
201, 974032276, 0.6831592, -0.29501215, 0.5612709, 0.3622659
202, 974048943, 0.6797067, -0.29805642, 0.56483024, 0.3607328
203, 974065610, 0.67666376, -0.3008649, 0.568244, 0.35875532
204, 974082277, 0.6737939, -0.30348626, 0.571531, 0.35672203
205, 974098944, 0.6711165, -0.3050118, 0.57556736, 0.35396737
206, 974115611, 0.66901034, -0.30471396, 0.5807989, 0.3496387
207, 974132278, 0.66663975, -0.30418938, 0.58660895, 0.3448916
208, 974148945, 0.66403836, -0.30486873, 0.5919044, 0.34023175
209, 974165612, 0.6619827, -0.30620113, 0.5962488, 0.3354208
210, 974182279, 0.66046906, -0.30726027, 0.60017705, 0.33039302
211, 974198946, 0.6589785, -0.30811518, 0.6039197, 0.32571968
212, 974215613, 0.65655315, -0.30941212, 0.6077566, 0.32223284
213, 974232280, 0.6530088, -0.31160176, 0.6115906, 0.32006374
214, 974248947, 0.64855134, -0.3149529, 0.6149467, 0.31941602
215, 974265614, 0.6434572, -0.31955838, 0.61746436, 0.32028595
216, 974282281, 0.6377596, -0.3249121, 0.6194958, 0.32236642
217, 974298948, 0.6322157, -0.32948425, 0.6215126, 0.32475492
218, 974315615, 0.62781817, -0.33191493, 0.62390065, 0.32622847
219, 974332282, 0.6247189, -0.3329723, 0.6266725, 0.32578745
220, 974348949, 0.622062, -0.334213, 0.62912196, 0.3248789
221, 974365616, 0.6188734, -0.33670548, 0.6305959, 0.32553664
222, 974382283, 0.6145326, -0.34111854, 0.631015, 0.32834116
223, 974398950, 0.60901487, -0.3464429, 0.63088524, 0.33325988
224, 974415617, 0.6032177, -0.35152048, 0.6307965, 0.3386114
225, 974432284, 0.59859616, -0.35509226, 0.6308635, 0.34293386
226, 974448951, 0.594774, -0.35797894, 0.63154626, 0.345318
227, 974465618, 0.59221286, -0.36040714, 0.63182503, 0.34668124
228, 974482285, 0.5904043, -0.3620269, 0.63196224, 0.3478264
229, 974498952, 0.5892562, -0.3625907, 0.6322468, 0.34866807
230, 974515619, 0.58851683, -0.36284426, 0.6327498, 0.34874022
231, 974532286, 0.5879851, -0.36328048, 0.6332514, 0.34827226
232, 974548953, 0.5876151, -0.36324033, 0.6342378, 0.3471418
233, 974565620, 0.58797884, -0.36189422, 0.6358896, 0.34490284
234, 974582287, 0.58877224, -0.35951895, 0.6379457, 0.3422263
235, 974598954, 0.58927435, -0.3570524, 0.6401902, 0.33974415
236, 974615621, 0.5894031, -0.3550959, 0.6421681, 0.3378331
237, 974632288, 0.5891782, -0.3538087, 0.6438024, 0.33646244
238, 974648955, 0.5890121, -0.35318893, 0.644835, 0.3354255
239, 974665622, 0.5892094, -0.35283947, 0.64544463, 0.33427215
240, 974682289, 0.5896825, -0.3520833, 0.6460956, 0.33297497
241, 974698956, 0.59023994, -0.3507394, 0.6471165, 0.3314197
242, 974715623, 0.5906853, -0.34903237, 0.64834875, 0.33001715
243, 974732290, 0.5910614, -0.3475239, 0.64946705, 0.32873437
244, 974748957, 0.5913316, -0.3465669, 0.6502254, 0.32775784
245, 974765624, 0.59143275, -0.3461013, 0.65060264, 0.32731876
246, 974782291, 0.5913402, -0.34583524, 0.6508133, 0.32734817
247, 974798958, 0.5912209, -0.34532148, 0.6512067, 0.32732368
248, 974815625, 0.5912621, -0.34479833, 0.6516695, 0.32687923
249, 974832292, 0.5912912, -0.34456158, 0.651953, 0.3265108
250, 974848959, 0.5913284, -0.34449998, 0.65191734, 0.3265797
251, 974865626, 0.59134454, -0.34445643, 0.6518275, 0.32677573
252, 974882293, 0.59139687, -0.34421858, 0.6518441, 0.32689887
253, 974898960, 0.5914968, -0.34391278, 0.65195096, 0.32682663
254, 974915627, 0.5915862, -0.343871, 0.65202045, 0.32657006
255, 974932294, 0.59170127, -0.34388617, 0.6519922, 0.3264021
256, 974948961, 0.59183794, -0.34386393, 0.65188015, 0.3264014
257, 974965628, 0.5919174, -0.3437828, 0.6517537, 0.32659516
258, 974982295, 0.59196705, -0.3438232, 0.6516167, 0.326736
259, 974998962, 0.59196436, -0.3440248, 0.6514244, 0.32691205
260, 975015629, 0.5919061, -0.3444076, 0.65113264, 0.32719594
261, 975032296, 0.5917105, -0.34489453, 0.65078497, 0.3277279
262, 975048963, 0.59140646, -0.3454122, 0.6504372, 0.3284211
263, 975065630, 0.59105724, -0.34604, 0.6500847, 0.3290861
264, 975082297, 0.5906444, -0.34693947, 0.64974105, 0.32955864
265, 975098964, 0.59008676, -0.34827203, 0.64922625, 0.33016637
266, 975115631, 0.589626, -0.34972864, 0.648426, 0.33102104
267, 975132298, 0.58923143, -0.35130185, 0.64714515, 0.3325606
268, 975148965, 0.58887506, -0.35286283, 0.6455983, 0.33454004
269, 975165632, 0.5885953, -0.35444427, 0.643976, 0.33648154
270, 975182299, 0.5886312, -0.35577676, 0.64240193, 0.33801794
271, 975198966, 0.58917326, -0.3564784, 0.641036, 0.3389262
272, 975215633, 0.590238, -0.3563163, 0.6399737, 0.33925167
273, 975232300, 0.5913477, -0.35565576, 0.6392123, 0.33944792
274, 975248967, 0.5921297, -0.355095, 0.63843036, 0.3401424
275, 975265634, 0.5921969, -0.35473916, 0.63770556, 0.34175217
276, 975282301, 0.59179294, -0.353851, 0.63750345, 0.34374413
277, 975298968, 0.59190613, -0.35184222, 0.6379949, 0.34469837
278, 975315635, 0.59278876, -0.34889677, 0.63895243, 0.34440187
279, 975332302, 0.59445286, -0.3458146, 0.6396138, 0.34341288
280, 975348969, 0.59670645, -0.34325922, 0.639471, 0.34233278
281, 975365636, 0.5993408, -0.34122995, 0.6385756, 0.3414293
282, 975382303, 0.6025267, -0.33916822, 0.6370192, 0.34078294
283, 975398970, 0.60622615, -0.33655834, 0.63504434, 0.34049553
284, 975415637, 0.61014414, -0.33364236, 0.6327383, 0.34066007
285, 975432304, 0.61385286, -0.33127862, 0.6300994, 0.3411947
286, 975448971, 0.6173563, -0.32982147, 0.626857, 0.34225625
287, 975465638, 0.6210142, -0.32877094, 0.6230145, 0.3436628
288, 975482305, 0.62496763, -0.32751745, 0.61867565, 0.3455262
289, 975498972, 0.6290265, -0.3259138, 0.6140469, 0.34792605
290, 975515639, 0.63288254, -0.3243616, 0.6093833, 0.35057288
291, 975532306, 0.63686067, -0.32242927, 0.6048352, 0.35301882
292, 975548973, 0.6412807, -0.32004806, 0.60034776, 0.35483938
293, 975565640, 0.6456989, -0.31791314, 0.59548944, 0.35692656
294, 975582307, 0.64943427, -0.31686, 0.58993244, 0.36029828
295, 975598974, 0.65267897, -0.31630623, 0.58404607, 0.36448696
296, 975615641, 0.65642434, -0.31466287, 0.5784615, 0.36807165
297, 975632308, 0.66084903, -0.31147897, 0.57352966, 0.37057164
298, 975648975, 0.66548836, -0.30759466, 0.56872773, 0.37290722
299, 975665642, 0.67016006, -0.30339634, 0.56357485, 0.37579206
300, 975682309, 0.67515934, -0.29864398, 0.5580991, 0.3788101
301, 975698976, 0.68050754, -0.29316732, 0.5525805, 0.38159835
302, 975715643, 0.6861625, -0.28712508, 0.5471341, 0.3839072
303, 975732310, 0.69205624, -0.28058562, 0.54202497, 0.38540742
304, 975748977, 0.698157, -0.2733295, 0.5372991, 0.38623494
305, 975765644, 0.7044033, -0.26541308, 0.5326817, 0.38681
306, 975782311, 0.7105229, -0.2577815, 0.527721, 0.38757786
307, 975798978, 0.7163216, -0.2512994, 0.521779, 0.3892029
308, 975815645, 0.7218087, -0.24559337, 0.5150096, 0.39171606
309, 975832312, 0.72708046, -0.24009621, 0.50778127, 0.3947988
310, 975848979, 0.73231477, -0.23435667, 0.50052315, 0.39782998
311, 975865646, 0.7376166, -0.22826594, 0.49365553, 0.40015098
312, 975882313, 0.74281603, -0.22216158, 0.48728365, 0.4017754
313, 975898980, 0.7476994, -0.21634595, 0.48111013, 0.40332782
314, 975915647, 0.7524012, -0.21079701, 0.47468355, 0.40513292
315, 975932314, 0.7568974, -0.2056488, 0.4679755, 0.4072029
316, 975948981, 0.761129, -0.20087624, 0.46137336, 0.40922624
317, 975965648, 0.7651251, -0.1963339, 0.45502746, 0.4110802
318, 975982315, 0.76904005, -0.19182529, 0.44886518, 0.4126751
319, 975998982, 0.7729247, -0.18760116, 0.44240427, 0.414333
320, 976015649, 0.7766257, -0.18413192, 0.43523952, 0.41655096
321, 976032316, 0.78021556, -0.18118781, 0.42740974, 0.4192323
322, 976048983, 0.78398645, -0.17844322, 0.41875154, 0.42210272
323, 976065650, 0.7875393, -0.1759314, 0.4102318, 0.42489982
324, 976082317, 0.79097694, -0.17313865, 0.40222836, 0.4273064
325, 976098984, 0.79436433, -0.1696007, 0.39537463, 0.4288355
326, 976115651, 0.79764754, -0.16519625, 0.38937834, 0.42994544
327, 976132318, 0.8009184, -0.16051093, 0.3835513, 0.43087643
328, 976148985, 0.8043385, -0.1560798, 0.37705928, 0.43186256
329, 976165652, 0.80775267, -0.15165716, 0.37043998, 0.43279332
330, 976182319, 0.81116545, -0.14693321, 0.36390197, 0.43358585
331, 976198986, 0.81445956, -0.14195919, 0.35751885, 0.4343774
332, 976215653, 0.817662, -0.13706908, 0.3511373, 0.4351363
333, 976232320, 0.82071686, -0.13224725, 0.34489956, 0.4358658
334, 976248987, 0.8235353, -0.12731569, 0.33919, 0.43649808
335, 976265654, 0.8261193, -0.12238733, 0.3338968, 0.43710566
336, 976282321, 0.82845, -0.11801392, 0.32841995, 0.43804556
337, 976298988, 0.83044595, -0.11432081, 0.3230402, 0.439244
338, 976315655, 0.8324083, -0.110519186, 0.31790933, 0.44024488
339, 976332322, 0.83450776, -0.10643966, 0.31320173, 0.44064978
340, 976348989, 0.83668786, -0.102294855, 0.30864215, 0.4407148
341, 976365656, 0.83863944, -0.09866336, 0.30348775, 0.44141248
342, 976382323, 0.840462, -0.09608901, 0.2983576, 0.44201073
343, 976398990, 0.8420431, -0.09380997, 0.29316843, 0.44296214
344, 976415657, 0.84362924, -0.09097397, 0.2872459, 0.44441342
345, 976432324, 0.8454523, -0.08767668, 0.28076342, 0.44575235
346, 976448991, 0.8472897, -0.08403295, 0.27431586, 0.44697824
347, 976465658, 0.84907657, -0.08011609, 0.26893744, 0.44757465
348, 976482325, 0.85097504, -0.0761879, 0.26439783, 0.44735968
349, 976498992, 0.8526172, -0.07318611, 0.2595292, 0.44758517
350, 976515659, 0.8541967, -0.07102772, 0.25353637, 0.44835562
351, 976532326, 0.85569376, -0.06946124, 0.24743874, 0.44915202
352, 976548993, 0.8571239, -0.0674795, 0.24187678, 0.4497563
353, 976565660, 0.85872996, -0.0648489, 0.23708147, 0.4496329
354, 976582327, 0.8601221, -0.062093746, 0.23266098, 0.4496704
355, 976598994, 0.8617468, -0.05913467, 0.22814901, 0.44927007
356, 976615661, 0.86306417, -0.05666744, 0.22409417, 0.44910008
357, 976632328, 0.86457264, -0.053495273, 0.22050622, 0.44836318
358, 976648995, 0.8657005, -0.04997917, 0.21642388, 0.4485816
359, 976665662, 0.86683035, -0.046402022, 0.21211657, 0.44884172
360, 976682329, 0.8679395, -0.042979255, 0.20820618, 0.44886997
361, 976698996, 0.86938465, -0.038918726, 0.20504929, 0.44789577
362, 976715663, 0.870366, -0.03560081, 0.20191652, 0.44768915
363, 976732330, 0.87138325, -0.032790665, 0.1977236, 0.44779652
364, 976748997, 0.8724074, -0.03039074, 0.19289353, 0.448078
365, 976765664, 0.87324136, -0.02768396, 0.18843687, 0.44852486
366, 976782331, 0.87386686, -0.023709523, 0.18443453, 0.44919792
367, 976798998, 0.8744273, -0.018813144, 0.1803984, 0.44997722
368, 976815665, 0.8749669, -0.013662029, 0.17595531, 0.45087266
369, 976832332, 0.8754649, -0.008224145, 0.17162108, 0.45170772
370, 976848999, 0.87587583, -0.0021219798, 0.16832028, 0.452223
371, 976865666, 0.87621355, 0.004057122, 0.16619459, 0.45234153
372, 976882333, 0.8764535, 0.008562965, 0.16387844, 0.45265886
373, 976899000, 0.8766544, 0.011397518, 0.16071172, 0.45334214
374, 976915667, 0.87700367, 0.01375067, 0.15646291, 0.45408714
375, 976932334, 0.8774307, 0.016323572, 0.15194976, 0.454709
376, 976949001, 0.8778303, 0.019124236, 0.14780687, 0.45519373
377, 976965668, 0.8781459, 0.02200471, 0.14418778, 0.45561534
378, 976982335, 0.8784087, 0.02413922, 0.14110889, 0.45596504
379, 976999002, 0.87877804, 0.02427477, 0.13742065, 0.45637244
380, 977015669, 0.87930983, 0.022618027, 0.13258196, 0.45686424
381, 977032336, 0.87986875, 0.021051358, 0.12764935, 0.45726755
382, 977049003, 0.88009685, 0.020717278, 0.12434734, 0.45775354
383, 977065670, 0.8798798, 0.021275213, 0.12311843, 0.4584768
384, 977082337, 0.87946993, 0.022426277, 0.12333642, 0.45914942
385, 977099004, 0.8791662, 0.023866192, 0.123590544, 0.45958972
386, 977115671, 0.878991, 0.025531713, 0.123490445, 0.4598621
387, 977132338, 0.8788997, 0.026826747, 0.123293996, 0.46001577
388, 977149005, 0.8787218, 0.027834605, 0.1232762, 0.46030045
389, 977165672, 0.87848353, 0.029102983, 0.12364123, 0.460579
390, 977182339, 0.87816626, 0.03160944, 0.12483722, 0.4606961
391, 977199006, 0.87785965, 0.035413224, 0.12651943, 0.46054485
392, 977215673, 0.8776323, 0.038546402, 0.12785865, 0.46035668
393, 977232340, 0.8775028, 0.040918026, 0.12864417, 0.46017978
394, 977249007, 0.87733006, 0.04367079, 0.12942976, 0.4600356
395, 977265674, 0.8770679, 0.04721571, 0.1305056, 0.4598812
396, 977282341, 0.8768378, 0.050040595, 0.13132, 0.45978972
397, 977299008, 0.87680054, 0.051409762, 0.1311677, 0.45975333
398, 977315675, 0.87681603, 0.052344617, 0.1303596, 0.45984802
399, 977332342, 0.8767456, 0.0535856, 0.12980475, 0.45999625
400, 977349009, 0.8766431, 0.054666106, 0.1297261, 0.46008638
401, 977365676, 0.87666744, 0.055551615, 0.12955657, 0.45998177
402, 977382343, 0.87696284, 0.056461293, 0.12919466, 0.45940948
403, 977399010, 0.87728477, 0.057630435, 0.12853587, 0.45883402
404, 977415677, 0.8776006, 0.058544617, 0.1273262, 0.45845175
405, 977432344, 0.8778467, 0.05868302, 0.12582637, 0.45837685
406, 977449011, 0.8779641, 0.058760278, 0.123996206, 0.4586409
407, 977465678, 0.87819195, 0.057609227, 0.12170005, 0.4589654
408, 977482345, 0.8785984, 0.05504938, 0.11893426, 0.4592267
409, 977499012, 0.8788325, 0.0525604, 0.11596928, 0.45982838
410, 977515679, 0.878903, 0.051550116, 0.11333614, 0.46046403
411, 977532346, 0.8787587, 0.052508652, 0.11182654, 0.46099994
412, 977549013, 0.878552, 0.055455722, 0.11135684, 0.46116236
413, 977565680, 0.8784362, 0.059095487, 0.11081633, 0.46106115
414, 977582347, 0.8785262, 0.061011218, 0.108663596, 0.4611525
415, 977599014, 0.8787095, 0.060083725, 0.10458039, 0.46186867
416, 977615681, 0.87870574, 0.057759173, 0.10011721, 0.46315953
417, 977632348, 0.87820536, 0.0571668, 0.09718855, 0.46480286
418, 977649015, 0.8772909, 0.059779227, 0.095857866, 0.4664748
419, 977665682, 0.87634027, 0.06506214, 0.09509124, 0.46770954
420, 977682349, 0.8751898, 0.07253752, 0.09479107, 0.46882397
421, 977699016, 0.87430584, 0.079471186, 0.09313928, 0.46967965
422, 977715683, 0.87365377, 0.0839062, 0.08934373, 0.47085756
423, 977732350, 0.87279516, 0.08714283, 0.08553745, 0.47256565
424, 977749017, 0.87074316, 0.0912403, 0.084208146, 0.47580552
425, 977765684, 0.8670218, 0.09913404, 0.086170994, 0.48064587
426, 977782351, 0.8637383, 0.11005395, 0.088585645, 0.48373243
427, 977799018, 0.8600798, 0.123196386, 0.091671295, 0.48649952
428, 977815685, 0.8557701, 0.13830686, 0.09595611, 0.48920456
429, 977832352, 0.85083723, 0.15465845, 0.10108336, 0.491873
430, 977849019, 0.8461883, 0.17067355, 0.105869584, 0.4935865
431, 977865686, 0.8414257, 0.18583323, 0.110871784, 0.49515274
432, 977882353, 0.8365433, 0.19983608, 0.11465488, 0.49710682
433, 977899020, 0.83182514, 0.212135, 0.11691889, 0.49939552
434, 977915687, 0.8273905, 0.22331952, 0.119244225, 0.50133264
435, 977932354, 0.82268167, 0.23461844, 0.122199364, 0.5032062
436, 977949021, 0.81789654, 0.24657105, 0.12436431, 0.50475895
437, 977965688, 0.8134487, 0.25830945, 0.12528738, 0.50584656
438, 977982355, 0.8095711, 0.26885718, 0.1251351, 0.50660807
439, 977999022, 0.80630803, 0.2781375, 0.12530002, 0.5067612
440, 978015689, 0.8024921, 0.28749415, 0.12689516, 0.50719965
441, 978032356, 0.79698443, 0.2987892, 0.12922868, 0.50876415
442, 978049023, 0.789109, 0.31212172, 0.13360655, 0.511895
443, 978065690, 0.78065383, 0.3262112, 0.13825211, 0.5148323
444, 978082357, 0.7720354, 0.33995283, 0.1419439, 0.51792413
445, 978099024, 0.76237947, 0.35391426, 0.14572702, 0.52181053
446, 978115691, 0.75117326, 0.36819577, 0.1502651, 0.5268691
447, 978132358, 0.7390833, 0.382327, 0.15527168, 0.5324217
448, 978149025, 0.7270972, 0.39612135, 0.15910825, 0.53768224
449, 978165692, 0.7147308, 0.4094924, 0.1620336, 0.5433425
450, 978182359, 0.7011648, 0.42343512, 0.16524082, 0.54933256
451, 978199026, 0.68565655, 0.43903497, 0.17078279, 0.5549385
452, 978215693, 0.66896755, 0.45561942, 0.17764619, 0.5597636
453, 978232360, 0.6516479, 0.4716287, 0.18486866, 0.5645752
454, 978249027, 0.63371557, 0.48609677, 0.19120626, 0.570574
455, 978265694, 0.6159812, 0.49926406, 0.19622812, 0.5768857
456, 978282361, 0.59586877, 0.51232874, 0.20234437, 0.5843941
457, 978299028, 0.57325953, 0.5266685, 0.20992464, 0.591545
458, 978315695, 0.55046713, 0.5404085, 0.2166729, 0.5983289
459, 978332362, 0.529836, 0.5515185, 0.22152741, 0.6050017
460, 978349029, 0.50841874, 0.5615457, 0.22609377, 0.61242026
461, 978365696, 0.48553896, 0.5724947, 0.23063082, 0.61912125
462, 978382363, 0.46196365, 0.5833799, 0.23483326, 0.6253888
463, 978399030, 0.4381011, 0.59310466, 0.23896942, 0.6318132
464, 978415697, 0.4155737, 0.60115117, 0.24299288, 0.6378639
465, 978432364, 0.39486724, 0.60775, 0.24685045, 0.64326113
466, 978449031, 0.37530142, 0.61321855, 0.24941583, 0.6487709
467, 978465698, 0.35534665, 0.6177144, 0.25049463, 0.655294
468, 978482365, 0.33381903, 0.6213248, 0.25261202, 0.6623502
469, 978499032, 0.31196493, 0.62422276, 0.25583345, 0.6690092
470, 978515699, 0.29155827, 0.62665087, 0.25818047, 0.67501515
471, 978532366, 0.27286294, 0.628895, 0.25952953, 0.68020684
472, 978549033, 0.25490707, 0.6314486, 0.26049286, 0.68442565
473, 978565700, 0.23584479, 0.6336598, 0.26269338, 0.6883639
474, 978582367, 0.21542071, 0.6351205, 0.26592696, 0.69245845
475, 978599034, 0.19509442, 0.63569945, 0.26952088, 0.69655085
476, 978615701, 0.17588286, 0.6359481, 0.27196503, 0.7004787
477, 978632368, 0.15815653, 0.6365955, 0.27337512, 0.70356137
478, 978649035, 0.13985503, 0.63742507, 0.27453178, 0.7062311
479, 978665702, 0.11860795, 0.6376499, 0.277521, 0.70874316
480, 978682369, 0.09660544, 0.63748837, 0.28249395, 0.7102629
481, 978699036, 0.07562486, 0.6369496, 0.28762755, 0.711229
482, 978715703, 0.05583621, 0.6362263, 0.29225016, 0.71182036
483, 978732370, 0.03652677, 0.6353698, 0.29627582, 0.71217394
484, 978749037, 0.01744333, 0.6337859, 0.29978877, 0.71283793
485, 978765704, -0.0011731386, 0.63131195, 0.30291128, 0.7139248
486, 978782371, -0.019983029, 0.627987, 0.3063855, 0.7150952
487, 978799038, -0.040028073, 0.624378, 0.31136984, 0.7152613
488, 978815705, -0.05982597, 0.62027484, 0.31600523, 0.71541667
489, 978832372, -0.07692782, 0.6156091, 0.31925225, 0.71636975
490, 978849039, -0.092735514, 0.61010695, 0.32098493, 0.7184278
491, 978865706, -0.10785828, 0.6039694, 0.32232288, 0.7208992
492, 978882373, -0.12188926, 0.5980573, 0.32395923, 0.72285616
493, 978899040, -0.13550834, 0.5927203, 0.32560638, 0.72408605
494, 978915707, -0.14936672, 0.5871761, 0.32686415, 0.72530955
495, 978932374, -0.16306049, 0.5809073, 0.32712373, 0.7272881
496, 978949041, -0.17664067, 0.57402474, 0.32625672, 0.72996604
497, 978965708, -0.1899588, 0.5668701, 0.3249262, 0.7328009
498, 978982375, -0.20266077, 0.5612082, 0.32265097, 0.73475873
499, 978999042, -0.21540847, 0.5561182, 0.32033828, 0.73601323
500, 979015709, -0.22830202, 0.55060464, 0.31844676, 0.73709196
501, 979032376, -0.2403665, 0.54482263, 0.3164809, 0.73839843
502, 979049043, -0.251086, 0.539117, 0.31391728, 0.7401115
503, 979065710, -0.26035407, 0.5334496, 0.3114678, 0.7420479
504, 979082377, -0.26830924, 0.527909, 0.3096452, 0.74393696
505, 979099044, -0.27622092, 0.521586, 0.3076715, 0.7463166
506, 979115711, -0.2842126, 0.51452404, 0.30498832, 0.74931335
507, 979132378, -0.29108104, 0.50770175, 0.30184463, 0.75259596
508, 979149045, -0.29711, 0.50096476, 0.29910782, 0.7558405
509, 979165712, -0.30325234, 0.49374524, 0.29678133, 0.75906163
510, 979182379, -0.31015006, 0.48570403, 0.29467845, 0.7622751
511, 979199046, -0.3158334, 0.47754607, 0.2916842, 0.7662372
512, 979215713, -0.32182145, 0.46921968, 0.28808346, 0.7702415
513, 979232380, -0.32828435, 0.46054307, 0.2838434, 0.7743142
514, 979249047, -0.33411458, 0.4521932, 0.27925396, 0.7783998
515, 979265714, -0.3404302, 0.44321626, 0.27474698, 0.78241986
516, 979282381, -0.34644994, 0.43398935, 0.27076378, 0.7863287
517, 979299048, -0.35253724, 0.42486286, 0.26640287, 0.7900877
518, 979315715, -0.358533, 0.41528344, 0.26200035, 0.79394555
519, 979332382, -0.36434665, 0.40542895, 0.25761533, 0.7978179
520, 979349049, -0.37002873, 0.39645147, 0.25282803, 0.8012384
521, 979365716, -0.37573165, 0.3884322, 0.24761236, 0.80413586
522, 979382383, -0.3818693, 0.3793818, 0.2435713, 0.8067952
523, 979399050, -0.38733196, 0.36948097, 0.24058269, 0.80967766
524, 979415717, -0.39196226, 0.35944995, 0.23783195, 0.81277156
525, 979432384, -0.3952235, 0.35067847, 0.23424643, 0.8160587
526, 979449051, -0.39767066, 0.34257331, 0.23098403, 0.81923634
527, 979465718, -0.4001077, 0.33364227, 0.22871235, 0.8223671
528, 979482385, -0.40328553, 0.32379127, 0.22668459, 0.82530844
529, 979499052, -0.4064312, 0.3139421, 0.22440714, 0.82818806
530, 979515719, -0.40942565, 0.30407917, 0.22145957, 0.8311813
531, 979532386, -0.41254175, 0.2944311, 0.21827178, 0.83395284
532, 979549053, -0.41571957, 0.28567415, 0.21510008, 0.8362413
533, 979565720, -0.41820803, 0.2782124, 0.21219061, 0.8382573
534, 979582387, -0.42012253, 0.27216017, 0.21000354, 0.83983624
535, 979599054, -0.4223617, 0.2671205, 0.20900866, 0.8405788
536, 979615721, -0.42471474, 0.26265556, 0.20869619, 0.8408778
537, 979632388, -0.42679727, 0.25903624, 0.20833628, 0.84103525
538, 979649055, -0.42829823, 0.25635073, 0.20774749, 0.84124076
539, 979665722, -0.42916527, 0.25401285, 0.20745885, 0.84157914
540, 979682389, -0.43032017, 0.25155267, 0.20681085, 0.84188795
541, 979699056, -0.43139607, 0.24903992, 0.20568435, 0.84236014
542, 979715723, -0.43202892, 0.24701977, 0.20406891, 0.8430233
543, 979732390, -0.43227568, 0.24570236, 0.20241335, 0.8436807
544, 979749057, -0.43254724, 0.24481855, 0.20146087, 0.8440264
545, 979765724, -0.43303043, 0.24410295, 0.20162474, 0.84394675
546, 979782391, -0.4335555, 0.24363348, 0.20281677, 0.84352714
547, 979799058, -0.43409956, 0.24331781, 0.20411651, 0.8430246
548, 979815725, -0.43420887, 0.24323049, 0.20531192, 0.84270316
549, 979832392, -0.4339919, 0.24345982, 0.20584892, 0.84261775
550, 979849059, -0.43375507, 0.24363546, 0.20599736, 0.8426527
551, 979865726, -0.43371508, 0.2434786, 0.2061018, 0.84269303
552, 979882393, -0.43350714, 0.24325272, 0.20625792, 0.842827
553, 979899060, -0.43290645, 0.24303946, 0.20628242, 0.8431914
554, 979915727, -0.43195993, 0.24343592, 0.20597857, 0.8436365
555, 979932394, -0.43129888, 0.2442939, 0.20586061, 0.8437556
556, 979949061, -0.43119097, 0.24491838, 0.2064425, 0.8434875
557, 979965728, -0.4310739, 0.24555412, 0.2070961, 0.84320205
558, 979982395, -0.4302253, 0.24670541, 0.20708667, 0.8433019
559, 979999062, -0.42850953, 0.248332, 0.20637304, 0.8438726
560, 980015729, -0.42629343, 0.24995759, 0.2053582, 0.8447621
561, 980032396, -0.4239489, 0.25149468, 0.20479235, 0.8456227
562, 980049063, -0.42179525, 0.25305066, 0.20550293, 0.8460631
563, 980065730, -0.4201842, 0.25447577, 0.20707911, 0.84605294
564, 980082397, -0.4183507, 0.2556077, 0.20814069, 0.8463599
565, 980099064, -0.41602054, 0.25658014, 0.20803247, 0.8472404
566, 980115731, -0.41310662, 0.25718957, 0.2073765, 0.848641
567, 980132398, -0.4092936, 0.25810215, 0.20604445, 0.8505338
568, 980149065, -0.40494445, 0.2597262, 0.20470731, 0.8524421
569, 980165732, -0.40104014, 0.26207677, 0.204795, 0.85354656
570, 980182399, -0.39801234, 0.26490965, 0.20647992, 0.85368335
571, 980199066, -0.3954261, 0.26776364, 0.20813535, 0.8535928
572, 980215733, -0.39246905, 0.27054763, 0.20848992, 0.85399306
573, 980232400, -0.38893622, 0.27374277, 0.20753963, 0.8548223
574, 980249067, -0.38491568, 0.27741036, 0.20594455, 0.85584486
575, 980265734, -0.38057277, 0.28138995, 0.20421249, 0.85690224
576, 980282401, -0.37605378, 0.28521988, 0.20250516, 0.8580355
577, 980299068, -0.37057278, 0.28889522, 0.20010841, 0.8597512
578, 980315735, -0.36288002, 0.292822, 0.19521844, 0.86282283
579, 980332402, -0.3535523, 0.2963611, 0.18843202, 0.8669858
580, 980349069, -0.34431785, 0.299511, 0.1825451, 0.87087065
581, 980365736, -0.33610258, 0.3023702, 0.17801717, 0.87402356
582, 980382403, -0.33018976, 0.30334818, 0.17662024, 0.8762192
583, 980399070, -0.32515305, 0.30485317, 0.17627743, 0.87764823
584, 980415737, -0.318436, 0.30838296, 0.1744303, 0.8792456
585, 980432404, -0.3092108, 0.31267023, 0.1704071, 0.8818092
586, 980449071, -0.29731724, 0.3173385, 0.16455688, 0.8853361
587, 980465738, -0.2829642, 0.3230007, 0.15651499, 0.8894408
588, 980482405, -0.2686186, 0.32856885, 0.14868169, 0.8931855
589, 980499072, -0.25742164, 0.33286557, 0.1444517, 0.89558274
590, 980515739, -0.24753095, 0.33703184, 0.14223064, 0.897167
591, 980532406, -0.23646584, 0.3422588, 0.13878354, 0.8987114
592, 980549073, -0.2255099, 0.34730333, 0.13574564, 0.90005505
593, 980565740, -0.21633188, 0.35176778, 0.13510935, 0.9006695
594, 980582407, -0.20843837, 0.3559159, 0.13637018, 0.9007111
595, 980599074, -0.19965872, 0.3605228, 0.13680777, 0.90080154
596, 980615741, -0.1874321, 0.36637047, 0.13418457, 0.9014636
597, 980632408, -0.17047282, 0.37300926, 0.12794891, 0.9030129
598, 980649075, -0.15171106, 0.37941584, 0.121665254, 0.90455794
599, 980665742, -0.13495755, 0.3854269, 0.11908095, 0.9050151
600, 980682409, -0.1217715, 0.39084068, 0.11998284, 0.9044443
601, 980699076, -0.11050342, 0.3960609, 0.12119888, 0.9034577
602, 980715743, -0.09643949, 0.4019362, 0.118749864, 0.90279853
603, 980732410, -0.075817235, 0.40736324, 0.10922454, 0.9035358
604, 980749077, -0.05306164, 0.41033942, 0.0973187, 0.9051713
605, 980765744, -0.033235956, 0.4120937, 0.088721134, 0.90620244
606, 980782411, -0.014938225, 0.4143295, 0.082012184, 0.9063013
607, 980799078, 0.007817451, 0.41688478, 0.07108586, 0.9061419
608, 980815745, 0.03768737, 0.4191231, 0.05401376, 0.9055375
609, 980832412, 0.066356026, 0.4205893, 0.039453045, 0.9039608
610, 980849079, 0.08441082, 0.42216155, 0.03536187, 0.9018891
611, 980865746, 0.09391173, 0.42411217, 0.038338326, 0.89991087
612, 980882413, 0.10524696, 0.42760575, 0.0386332, 0.896986
613, 980899080, 0.12694949, 0.43157074, 0.02976653, 0.8926055
614, 980915747, 0.15664333, 0.43408674, 0.014557126, 0.8870287
615, 980932414, 0.18413979, 0.43533763, 0.0024779928, 0.8812308
616, 980949081, 0.20215029, 0.43701878, -5.804291E-4, 0.8764415
617, 980965748, 0.21399418, 0.4394205, 0.0015122674, 0.87241846
618, 980982415, 0.22836374, 0.44151124, 8.293288E-4, 0.86770815
619, 980999082, 0.25154835, 0.44089252, -0.008667234, 0.86154634
620, 981015749, 0.27994722, 0.43670836, -0.023435112, 0.85461473
621, 981032416, 0.30008677, 0.43428838, -0.029312767, 0.84881246
622, 981049083, 0.3107482, 0.43495813, -0.02633162, 0.844721
623, 981065750, 0.3217702, 0.43686953, -0.023643032, 0.83967257
624, 981082417, 0.34017858, 0.4356572, -0.02845422, 0.83286965
625, 981099084, 0.36514795, 0.42987087, -0.041127697, 0.8247344
626, 981115751, 0.38890627, 0.42276612, -0.053450733, 0.8168009
627, 981132418, 0.40760452, 0.41817415, -0.05968377, 0.80958426
628, 981149085, 0.4255005, 0.4156012, -0.06434099, 0.80130225
629, 981165752, 0.44847465, 0.4103969, -0.074863076, 0.7904686
630, 981182419, 0.4762762, 0.39921156, -0.09081869, 0.77816665
631, 981199086, 0.5029009, 0.3851435, -0.10458115, 0.766693
632, 981215753, 0.523185, 0.3745391, -0.11013832, 0.75754046
633, 981232420, 0.53622675, 0.3690446, -0.108692385, 0.75130093
634, 981249087, 0.5467242, 0.36557195, -0.10640082, 0.7457404
635, 981265754, 0.55984986, 0.36031553, -0.10748227, 0.7383688
636, 981282421, 0.57688224, 0.3497392, -0.113204926, 0.72943413
637, 981299088, 0.59426403, 0.33744946, -0.11839368, 0.72038966
638, 981315755, 0.60644925, 0.32985246, -0.11770421, 0.7138365
639, 981332422, 0.6134905, 0.32788032, -0.11084173, 0.7098156
640, 981349089, 0.6208436, 0.32647166, -0.104340464, 0.705041
641, 981365756, 0.6325929, 0.32068127, -0.10313729, 0.6973899
642, 981382423, 0.6469989, 0.31075913, -0.10350193, 0.6885555
643, 981399090, 0.6600794, 0.3015795, -0.10039399, 0.68063647
644, 981415757, 0.66962534, 0.29582313, -0.09405723, 0.6747175
645, 981432424, 0.67762583, 0.29130498, -0.08828698, 0.6694552
646, 981449091, 0.68781716, 0.2842992, -0.085747115, 0.66236615
647, 981465758, 0.699644, 0.2741743, -0.08404396, 0.6544185
648, 981482425, 0.71065456, 0.264343, -0.0792758, 0.647154
649, 981499092, 0.719347, 0.2582597, -0.07162016, 0.64086854
650, 981515759, 0.725898, 0.25440788, -0.064978056, 0.63570946
651, 981532426, 0.732691, 0.24908261, -0.06049645, 0.6304458
652, 981549093, 0.74036765, 0.2419204, -0.056954913, 0.6245691
653, 981565760, 0.7473962, 0.23551033, -0.05181725, 0.6190711
654, 981582427, 0.75328946, 0.23100562, -0.045077406, 0.6141331
655, 981599094, 0.75819176, 0.2275041, -0.039247986, 0.6097924
656, 981615761, 0.7625929, 0.22404687, -0.03357493, 0.6059109
657, 981632428, 0.767204, 0.22026008, -0.027553873, 0.60176784
658, 981649095, 0.7723259, 0.21493603, -0.022737682, 0.59732604
659, 981665762, 0.7779445, 0.20765296, -0.018770028, 0.5927314
660, 981682429, 0.7830735, 0.2005248, -0.014060647, 0.5885475
661, 981699096, 0.7872148, 0.19513118, -0.007805754, 0.5849409
662, 981715763, 0.7910698, 0.19027472, -0.0012017424, 0.58138025
663, 981732430, 0.7950353, 0.18539797, 0.005002481, 0.5775133
664, 981749097, 0.79876316, 0.18080668, 0.011262243, 0.5737242
665, 981765764, 0.80206674, 0.17670995, 0.018060185, 0.5702073
666, 981782431, 0.8052702, 0.17226191, 0.024376143, 0.5668082
667, 981799098, 0.80867517, 0.16665372, 0.029314449, 0.563393
668, 981815765, 0.8122335, 0.16069646, 0.033205118, 0.5597775
669, 981832432, 0.8157052, 0.15502472, 0.037302576, 0.55605847
670, 981849099, 0.8186562, 0.15028815, 0.04224551, 0.55265814
671, 981865766, 0.8212986, 0.14621188, 0.047512867, 0.54939353
672, 981882433, 0.82398486, 0.14150205, 0.051892005, 0.54619914
673, 981899100, 0.82653826, 0.13673058, 0.055667926, 0.54317635
674, 981915767, 0.82874876, 0.13292052, 0.06006081, 0.5402783
675, 981932434, 0.8307787, 0.12959348, 0.064796515, 0.5374139
676, 981949101, 0.8329768, 0.12576926, 0.06929223, 0.53435063
677, 981965768, 0.8356078, 0.120812364, 0.07266224, 0.53092766
678, 981982435, 0.83838147, 0.11501687, 0.075351715, 0.5274561
679, 981999102, 0.8410307, 0.108701855, 0.07843268, 0.5241182
680, 982015769, 0.84356827, 0.10146583, 0.08162477, 0.5209939
681, 982032436, 0.8458734, 0.09220669, 0.08393137, 0.5186055
682, 982049103, 0.84815705, 0.082846224, 0.0856697, 0.5161655
683, 982065770, 0.85022604, 0.07671423, 0.088687725, 0.5131914
684, 982082437, 0.85217416, 0.073781006, 0.09298678, 0.5096165
685, 982099104, 0.8542065, 0.07158677, 0.09758269, 0.50565225
686, 982115771, 0.8562508, 0.068841204, 0.10256327, 0.50157374
687, 982132438, 0.858243, 0.06562983, 0.10840298, 0.49735364
688, 982149105, 0.8603375, 0.061582025, 0.11440647, 0.49288785
689, 982165772, 0.86261773, 0.05588339, 0.11952228, 0.48834652
690, 982182439, 0.8648501, 0.049524516, 0.12468711, 0.4837716
691, 982199106, 0.8667137, 0.04408734, 0.1305558, 0.47939414
692, 982215773, 0.8682819, 0.039197035, 0.13599247, 0.47545406
693, 982232440, 0.86980295, 0.033542052, 0.13967729, 0.47202563
694, 982249107, 0.8711968, 0.027834922, 0.14250645, 0.4689706
695, 982265774, 0.87232137, 0.023587072, 0.1460526, 0.46601275
696, 982282441, 0.87312, 0.021000568, 0.15037526, 0.46325812
697, 982299108, 0.8736157, 0.020398619, 0.15452237, 0.46097988
698, 982315775, 0.8739118, 0.02181056, 0.15825607, 0.45908344
699, 982332442, 0.8742835, 0.023264837, 0.16074015, 0.4574386
700, 982349109, 0.8747174, 0.022788435, 0.16166617, 0.45630527
701, 982365776, 0.875048, 0.0210504, 0.16243175, 0.4554823
702, 982382443, 0.8751334, 0.019695017, 0.1636614, 0.4549383
703, 982399110, 0.8751224, 0.019395268, 0.16505542, 0.4544682
704, 982415777, 0.8751707, 0.019930992, 0.165992, 0.45401067
705, 982432444, 0.8752356, 0.020522702, 0.16659178, 0.4536392
706, 982449111, 0.87531847, 0.020601321, 0.16676304, 0.45341283
707, 982465778, 0.875346, 0.02042846, 0.16708246, 0.45324993
708, 982482445, 0.87527597, 0.020860694, 0.1676298, 0.4531634
709, 982499112, 0.8752737, 0.02153425, 0.16786021, 0.45305115
710, 982515779, 0.8754343, 0.021736657, 0.16770405, 0.452789
711, 982532446, 0.8756099, 0.021737594, 0.16760068, 0.45248717
712, 982549113, 0.875673, 0.021747157, 0.16751665, 0.45239618
713, 982565780, 0.8757753, 0.021382391, 0.16743904, 0.4522442
714, 982582447, 0.875879, 0.021045864, 0.1673928, 0.45207623
715, 982599114, 0.8759282, 0.021332385, 0.16749735, 0.45192856
716, 982615781, 0.87598854, 0.02178795, 0.16729793, 0.45186383
717, 982632448, 0.8761493, 0.021478845, 0.16659924, 0.4518252
718, 982649115, 0.876237, 0.020852985, 0.16604125, 0.45188966
719, 982665782, 0.8761337, 0.020700706, 0.16606244, 0.4520891
720, 982682449, 0.8759337, 0.020600185, 0.16584687, 0.4525602
721, 982699116, 0.8757066, 0.020391142, 0.1648133, 0.45338607
722, 982715783, 0.8755176, 0.020548582, 0.16355887, 0.45419738
723, 982732450, 0.8754828, 0.020699067, 0.16229022, 0.45471263
724, 982749117, 0.875493, 0.021096662, 0.16155061, 0.45493814
725, 982765784, 0.87541646, 0.021985644, 0.16143827, 0.45508307
726, 982782451, 0.87537295, 0.022245994, 0.16112673, 0.4552644
727, 982799118, 0.8754443, 0.021765761, 0.16036518, 0.45541948
728, 982815785, 0.8755042, 0.021553691, 0.15991354, 0.4554732
729, 982832452, 0.8755374, 0.021889236, 0.16009898, 0.45532787
730, 982849119, 0.8755986, 0.02219055, 0.16046971, 0.455065
731, 982865786, 0.8757053, 0.022196677, 0.16062999, 0.45480278
732, 982882453, 0.87575984, 0.02217682, 0.16094886, 0.45458597
733, 982899120, 0.8758175, 0.022052689, 0.16137598, 0.4543295
734, 982915787, 0.87598795, 0.021778997, 0.16157883, 0.45394185
735, 982932454, 0.87621343, 0.021375773, 0.16177167, 0.4534571
736, 982949121, 0.87644255, 0.021180881, 0.16205943, 0.45292002
737, 982965788, 0.87663084, 0.021014182, 0.1624637, 0.45241818
738, 982982455, 0.87680596, 0.02085548, 0.16292085, 0.45192176
739, 982999122, 0.87694937, 0.020952288, 0.16330801, 0.4514991
740, 983015789, 0.87707096, 0.021419557, 0.16370136, 0.45109826
741, 983032456, 0.87721074, 0.021751985, 0.16388369, 0.45074436
742, 983049123, 0.87738675, 0.0218767, 0.16403402, 0.45034096
743, 983065790, 0.87746406, 0.022120997, 0.1642998, 0.4500812
744, 983082457, 0.87749755, 0.02280769, 0.16464728, 0.44985476
745, 983099124, 0.8775728, 0.023666497, 0.16523962, 0.44944623
746, 983115791, 0.87773854, 0.02371157, 0.16573709, 0.448937
747, 983132458, 0.8779627, 0.022848334, 0.16586196, 0.4484968
748, 983149125, 0.878167, 0.022320725, 0.16603667, 0.44805875
749, 983165792, 0.8783057, 0.022621537, 0.16656993, 0.4475735
750, 983182459, 0.8784965, 0.02316762, 0.16718966, 0.44693974
751, 983199126, 0.87871164, 0.023362147, 0.16779104, 0.44628072
752, 983215793, 0.87887317, 0.023323257, 0.1684757, 0.44570622
753, 983232460, 0.87899876, 0.02326498, 0.16894281, 0.44528484
754, 983249127, 0.8791632, 0.02303538, 0.1691539, 0.44489148
755, 983265794, 0.8794062, 0.022541048, 0.16907836, 0.4444651
756, 983282461, 0.8796446, 0.022130858, 0.16905272, 0.44402358
757, 983299128, 0.8798257, 0.022224093, 0.16922417, 0.4435945
758, 983315795, 0.8799298, 0.022999715, 0.16967668, 0.44317567
759, 983332462, 0.880012, 0.023868304, 0.17009205, 0.44280705
760, 983349129, 0.88019145, 0.024180744, 0.17018472, 0.44239748
761, 983365796, 0.88039064, 0.024221811, 0.17016129, 0.4420079
762, 983382463, 0.8805648, 0.024233773, 0.17027926, 0.44161493
763, 983399130, 0.8807222, 0.024120117, 0.17050098, 0.44122127
764, 983415797, 0.88082206, 0.023863457, 0.17070507, 0.44095698
765, 983432464, 0.8809321, 0.023714747, 0.17099597, 0.44063216
766, 983449131, 0.8811105, 0.023583768, 0.17103054, 0.4402691
767, 983465798, 0.881329, 0.023533503, 0.17093804, 0.4398704
768, 983482465, 0.88147706, 0.0233521, 0.17087805, 0.43960622
769, 983499132, 0.88155675, 0.023133008, 0.17101264, 0.43940565
770, 983515799, 0.88157946, 0.022955518, 0.17135741, 0.43923524
771, 983532466, 0.8816395, 0.02249055, 0.17154087, 0.43906713
772, 983549133, 0.881718, 0.021823067, 0.17153043, 0.43894738
773, 983565800, 0.88174534, 0.021574115, 0.1717295, 0.4388267
774, 983582467, 0.8817942, 0.021446731, 0.17201045, 0.43862465
775, 983599134, 0.8819296, 0.021003198, 0.17208436, 0.4383449
776, 983615801, 0.88205177, 0.02058823, 0.17205702, 0.43812948
777, 983632468, 0.88207173, 0.020587087, 0.17201401, 0.43810612
778, 983649135, 0.8820521, 0.020491611, 0.17181836, 0.43822694
779, 983665802, 0.8820384, 0.019808399, 0.17148404, 0.43841708
780, 983682469, 0.88202655, 0.019027704, 0.17108364, 0.43863168
781, 983699136, 0.8820028, 0.018909538, 0.17090751, 0.43875313
782, 983715803, 0.8820018, 0.019261714, 0.17091918, 0.43873513
783, 983732470, 0.88203984, 0.019261306, 0.17077872, 0.43871337
784, 983749137, 0.8821002, 0.018880377, 0.1705612, 0.43869326
785, 983765804, 0.8821207, 0.018620174, 0.17046349, 0.43870118
786, 983782471, 0.88215256, 0.0186023, 0.1703942, 0.43866462
787, 983799138, 0.8822281, 0.01856917, 0.1704449, 0.43849456
788, 983815805, 0.8822868, 0.018496267, 0.17061836, 0.4383119
789, 983832472, 0.8823397, 0.018601159, 0.1710725, 0.438024
790, 983849139, 0.88241357, 0.018574739, 0.17164643, 0.43765137
791, 983865806, 0.8825694, 0.018288594, 0.172006, 0.437208
792, 983882473, 0.88273424, 0.01808101, 0.17223886, 0.43679196
793, 983899140, 0.8828469, 0.018235594, 0.17249143, 0.43645808
794, 983915807, 0.88286984, 0.018294768, 0.17275651, 0.43630424
795, 983932474, 0.88284355, 0.018060178, 0.17297004, 0.43628263
796, 983949141, 0.8828049, 0.017545799, 0.17310663, 0.43632784
797, 983965808, 0.88278, 0.016958408, 0.17306253, 0.43641844
798, 983982475, 0.88277096, 0.016757976, 0.17311318, 0.4364248
799, 983999142, 0.88270336, 0.017127149, 0.17344193, 0.43641672
800, 984015809, 0.88263077, 0.017466603, 0.17392507, 0.436358
801, 984032476, 0.882613, 0.017139846, 0.1741402, 0.4363207
802, 984049143, 0.88265467, 0.01646975, 0.17406057, 0.43629414
803, 984065810, 0.8826737, 0.015999574, 0.17386279, 0.43635204
804, 984082477, 0.882651, 0.016169302, 0.17383634, 0.43640223
805, 984099144, 0.88260233, 0.016582748, 0.17396273, 0.43643478
806, 984115811, 0.88258076, 0.016967375, 0.17404887, 0.43642923
807, 984132478, 0.88260883, 0.017015623, 0.17396857, 0.43640247
808, 984149145, 0.88264847, 0.016512718, 0.17348179, 0.43653527
809, 984165812, 0.8825803, 0.016322188, 0.17335431, 0.43673116
810, 984182479, 0.8824296, 0.016401608, 0.17353654, 0.4369603
811, 984199146, 0.88235, 0.016373413, 0.17343476, 0.43716213
812, 984215813, 0.88230544, 0.016557831, 0.1734513, 0.43723866
813, 984232480, 0.8821919, 0.017022677, 0.17366347, 0.43736565
814, 984249147, 0.8820708, 0.017608838, 0.17401277, 0.43744808
815, 984265814, 0.8819797, 0.017956797, 0.17441584, 0.4374573
816, 984282481, 0.8819142, 0.018113775, 0.1747209, 0.4374611
817, 984299148, 0.88186234, 0.018588832, 0.17514597, 0.43737513
818, 984315815, 0.88185084, 0.018802168, 0.17520052, 0.43736777
819, 984332482, 0.881829, 0.018213628, 0.17497252, 0.43752757
820, 984349149, 0.8817328, 0.017363686, 0.17482662, 0.4378146
821, 984365816, 0.8816028, 0.016566673, 0.17482616, 0.43810725
822, 984382483, 0.8814209, 0.016017988, 0.1749057, 0.43846208
823, 984399150, 0.8812442, 0.015885621, 0.17509016, 0.43874797
824, 984415817, 0.881076, 0.015995681, 0.17544596, 0.43893957
825, 984432484, 0.8809096, 0.01596333, 0.17571276, 0.43916774
826, 984449151, 0.8807239, 0.015915662, 0.17602274, 0.43941844
827, 984465818, 0.88053125, 0.015436687, 0.17632118, 0.4397011
828, 984482485, 0.8803683, 0.014742486, 0.1765229, 0.43997043
829, 984499152, 0.8802166, 0.014549394, 0.17679283, 0.440172
830, 984515819, 0.8801183, 0.014679083, 0.17687057, 0.44033313
831, 984532486, 0.8800147, 0.014707121, 0.17696531, 0.44050115
832, 984549153, 0.8798987, 0.014687744, 0.17717245, 0.4406501
833, 984565820, 0.8797478, 0.014817698, 0.17755085, 0.44079483
834, 984582487, 0.8795673, 0.015219229, 0.17808576, 0.4409253
835, 984599154, 0.8795114, 0.015362273, 0.17837624, 0.44091433
836, 984615821, 0.8795251, 0.0152884275, 0.17846781, 0.4408527
837, 984632488, 0.87949, 0.015451568, 0.17866877, 0.4408357
838, 984649155, 0.87942094, 0.015311859, 0.17881225, 0.4409201
839, 984665822, 0.8793986, 0.014922325, 0.17879054, 0.44098675
840, 984682489, 0.8793478, 0.014841727, 0.17881335, 0.44108164
841, 984699156, 0.87932616, 0.015030676, 0.17887832, 0.4410921
842, 984715823, 0.87931466, 0.015108528, 0.17900828, 0.44105962
843, 984732490, 0.87926537, 0.015146011, 0.17927833, 0.44104692
844, 984749157, 0.87915826, 0.015111783, 0.17942607, 0.44120163
845, 984765824, 0.8790606, 0.015106743, 0.17933784, 0.44143233
846, 984782491, 0.87899494, 0.01530378, 0.17915161, 0.44163185
847, 984799158, 0.8789672, 0.015649587, 0.17906593, 0.44170952
848, 984815825, 0.8789258, 0.015901186, 0.17897668, 0.44181937
849, 984832492, 0.87887067, 0.016133454, 0.17889039, 0.44195533
850, 984849159, 0.8787991, 0.016365392, 0.17893241, 0.44207188
851, 984865826, 0.8787409, 0.016637556, 0.17906033, 0.44212562
852, 984882493, 0.8787474, 0.016992759, 0.1790069, 0.44212076
853, 984899160, 0.8787749, 0.017556556, 0.17883675, 0.44211292
854, 984915827, 0.8787751, 0.01847062, 0.17879511, 0.44209245
855, 984932494, 0.87874466, 0.019574134, 0.17902258, 0.44201323
856, 984949161, 0.8787836, 0.020703264, 0.17939663, 0.44173285
