DeviceTag:,Xsens DOT 5,,,,,,,,,,,,,,,,,
FirmwareVersion:,1.3.0,,,,,,,,,,,,,,,,,
AppVersion:,2020.1.1,,,,,,,,,,,,,,,,,
Measurement Mode:,Sensor fusion Mode - Orientation (Quaternion),,,,,,,,,,,,,,,,,
StartTime:,2020-08-10 12:00:17.523 +0200,,,,,,,,,,,,,,,,,
© Xsens Technologies B. V. 2005-2020,,,,,,,,,,,,,,,,,,,
PacketCounter,SampleTimeFine,Quat_W,Quat_X,Quat_Y,Quat_Z
1, 991090003, 0.952172, 0.1836077, 0.066631645, 0.23498295
2, 991106670, 0.9519683, 0.18460523, 0.0658866, 0.2352369
3, 991123337, 0.95175695, 0.18565074, 0.06540532, 0.23540317
4, 991140004, 0.95174104, 0.18584703, 0.06519557, 0.23537116
5, 991156671, 0.95181954, 0.18553428, 0.06505023, 0.23534048
6, 991173338, 0.9517994, 0.18552636, 0.06504483, 0.23542988
7, 991190005, 0.95171344, 0.18585065, 0.0650515, 0.23551977
8, 991206672, 0.9516766, 0.18606392, 0.06509429, 0.23548836
9, 991223339, 0.95167595, 0.18607432, 0.06522881, 0.23544565
10, 991240006, 0.9516448, 0.18619883, 0.06549402, 0.23539944
11, 991256673, 0.9515655, 0.18657415, 0.06571862, 0.23536055
12, 991273340, 0.9514998, 0.18689717, 0.06591694, 0.2353143
13, 991290007, 0.9515246, 0.18668248, 0.06608407, 0.235337
14, 991306674, 0.95155835, 0.18634558, 0.06620782, 0.23543319
15, 991323341, 0.95160323, 0.18643203, 0.0663415, 0.23514521
16, 991340008, 0.951585, 0.18666309, 0.066547275, 0.23497772
17, 991356675, 0.9515561, 0.18672477, 0.06671821, 0.23499687
18, 991373342, 0.95157945, 0.18675171, 0.0668151, 0.23485364
19, 991390009, 0.9515537, 0.1869862, 0.06694214, 0.23473519
20, 991406676, 0.95149565, 0.18724564, 0.06711722, 0.23471363
21, 991423343, 0.95152426, 0.18707198, 0.06716747, 0.23472206
22, 991440010, 0.9515253, 0.18666439, 0.06718857, 0.2350362
23, 991456677, 0.9515657, 0.18656039, 0.06715082, 0.23496535
24, 991473344, 0.9516228, 0.18692964, 0.067078225, 0.23446138
25, 991490011, 0.95157665, 0.18709251, 0.06716086, 0.23449478
26, 991506678, 0.951618, 0.18698937, 0.067126416, 0.23441917
27, 991523345, 0.95163774, 0.18684573, 0.067069694, 0.23447011
28, 991540012, 0.95163804, 0.18670812, 0.066997886, 0.23459862
29, 991556679, 0.9517044, 0.18647417, 0.066893086, 0.2345458
30, 991573346, 0.9517356, 0.1859429, 0.06699563, 0.23481137
31, 991590013, 0.9518507, 0.1854446, 0.06715513, 0.2346932
32, 991606680, 0.9520398, 0.18502973, 0.0673021, 0.2342103
33, 991623347, 0.9521759, 0.18468422, 0.06746757, 0.23388293
34, 991640014, 0.9523135, 0.18440294, 0.06761985, 0.23350012
35, 991656681, 0.95234674, 0.18432419, 0.0679748, 0.23332322
36, 991673348, 0.95224726, 0.18450774, 0.06842247, 0.2334537
37, 991690015, 0.95234805, 0.18452878, 0.068677425, 0.23295051
38, 991706682, 0.95239794, 0.1843016, 0.068870775, 0.23286898
39, 991723349, 0.95241255, 0.18405205, 0.06909305, 0.23294085
40, 991740016, 0.9524102, 0.18401042, 0.06931189, 0.23291853
41, 991756683, 0.9524519, 0.1840485, 0.069530904, 0.23265237
42, 991773350, 0.9524867, 0.18388695, 0.06976302, 0.23256798
43, 991790017, 0.9525808, 0.18365218, 0.069998816, 0.23229705
44, 991806684, 0.9526829, 0.18375112, 0.07024042, 0.2317268
45, 991823351, 0.95266145, 0.18406636, 0.07058672, 0.23145942
46, 991840018, 0.95256686, 0.18428925, 0.07106742, 0.2315239
47, 991856685, 0.9525215, 0.18421857, 0.07158515, 0.23160756
48, 991873352, 0.95259243, 0.18392424, 0.072057374, 0.23140313
49, 991890019, 0.95207936, 0.18351857, 0.07307638, 0.2335081
50, 991906686, 0.9520803, 0.18341316, 0.07378585, 0.23336385
51, 991923353, 0.95205975, 0.18316239, 0.07464311, 0.23337217
52, 991940020, 0.95222986, 0.18273802, 0.075467885, 0.23274392
53, 991956687, 0.9522283, 0.18206787, 0.07647779, 0.23294635
54, 991973354, 0.9523249, 0.18136472, 0.07744144, 0.23278114
55, 991990021, 0.95249176, 0.18045299, 0.07841358, 0.23248158
56, 992006688, 0.952655, 0.17982635, 0.07947412, 0.23193769
57, 992023355, 0.95260596, 0.1797428, 0.08086195, 0.23172355
58, 992040022, 0.9522154, 0.17995773, 0.082643196, 0.23253284
59, 992056689, 0.95219475, 0.18014702, 0.08418077, 0.23191752
60, 992073356, 0.95213217, 0.17980649, 0.085710734, 0.23187858
61, 992090023, 0.952223, 0.17921177, 0.08706817, 0.23146
62, 992106690, 0.9521804, 0.17856345, 0.08859889, 0.2315551
63, 992123357, 0.9520661, 0.1780653, 0.09027683, 0.231761
64, 992140024, 0.95197964, 0.17783983, 0.092033446, 0.23159845
65, 992156691, 0.95190066, 0.17783323, 0.09365391, 0.23127814
66, 992173358, 0.95183694, 0.17737985, 0.09518761, 0.23126264
67, 992190025, 0.951509, 0.17644301, 0.096940696, 0.23259655
68, 992206692, 0.9516782, 0.17582121, 0.0983496, 0.2317824
69, 992223359, 0.951338, 0.17542213, 0.10015775, 0.23270532
70, 992240026, 0.9511334, 0.17532818, 0.101941876, 0.23283784
71, 992256693, 0.95100206, 0.17514297, 0.10380952, 0.232688
72, 992273360, 0.95114225, 0.17515615, 0.10558252, 0.23130353
73, 992290027, 0.95117164, 0.17521486, 0.107447304, 0.23027697
74, 992306694, 0.9511154, 0.17517011, 0.109289765, 0.22967567
75, 992323361, 0.95063305, 0.17451693, 0.11147092, 0.23111622
76, 992340028, 0.9506361, 0.1739025, 0.11331734, 0.23066875
77, 992356695, 0.9504765, 0.17330822, 0.11534229, 0.2307702
78, 992373362, 0.9502563, 0.17277893, 0.11740254, 0.23103489
79, 992390029, 0.95010406, 0.17211318, 0.1194537, 0.23110647
80, 992406696, 0.94987047, 0.17092203, 0.12170841, 0.23177354
81, 992423363, 0.9499626, 0.1698477, 0.12373183, 0.23111305
82, 992440030, 0.949779, 0.16891067, 0.12597528, 0.2313429
83, 992456697, 0.94937336, 0.16803034, 0.12847348, 0.23227252
84, 992473364, 0.94930995, 0.16726163, 0.13084191, 0.2317644
85, 992490031, 0.9489913, 0.1665723, 0.13344006, 0.232084
86, 992506698, 0.9487532, 0.1661919, 0.13604873, 0.23181547
87, 992523365, 0.9487126, 0.16575672, 0.13863002, 0.23076163
88, 992540032, 0.9483042, 0.16475129, 0.14159432, 0.23136052
89, 992556699, 0.94820374, 0.16378623, 0.14431575, 0.23077437
90, 992573366, 0.94774526, 0.16269276, 0.147285, 0.23155388
91, 992590033, 0.9471107, 0.161527, 0.15049659, 0.23289761
92, 992606700, 0.9467641, 0.16053787, 0.15370356, 0.23289654
93, 992623367, 0.946416, 0.15962078, 0.15710002, 0.23267533
94, 992640034, 0.9459823, 0.15894929, 0.1605783, 0.23252435
95, 992656701, 0.9455489, 0.1583625, 0.16417064, 0.23217808
96, 992673368, 0.94509816, 0.15774399, 0.16800983, 0.23168743
97, 992690035, 0.9447545, 0.15718833, 0.17185497, 0.23064485
98, 992706702, 0.94446814, 0.15656087, 0.1755016, 0.22949499
99, 992723369, 0.94367325, 0.15475082, 0.17932057, 0.23103498
100, 992740036, 0.9431156, 0.15248168, 0.18291628, 0.23200028
101, 992756703, 0.9427797, 0.15039991, 0.18644184, 0.23191763
102, 992773370, 0.9427138, 0.14850673, 0.18984094, 0.23064479
103, 992790037, 0.9424282, 0.14648995, 0.19327469, 0.2302504
104, 992806704, 0.9421164, 0.14437023, 0.19669154, 0.22997071
105, 992823371, 0.9419413, 0.14264049, 0.20004348, 0.22887413
106, 992840038, 0.9414881, 0.14106797, 0.20358448, 0.2285909
107, 992856705, 0.94093066, 0.13970344, 0.20703565, 0.22862363
108, 992873372, 0.94051427, 0.13811138, 0.21024176, 0.22837864
109, 992890039, 0.94008005, 0.1358795, 0.21332607, 0.22864425
110, 992906706, 0.93980676, 0.13353086, 0.21625899, 0.2283959
111, 992923373, 0.9394698, 0.13123906, 0.21922845, 0.2282801
112, 992940040, 0.9390175, 0.12932289, 0.2222978, 0.22826713
113, 992956707, 0.93852544, 0.12785114, 0.22557594, 0.22790274
114, 992973374, 0.9379817, 0.12673345, 0.22915453, 0.22719409
115, 992990041, 0.9373919, 0.12579335, 0.23291993, 0.22632033
116, 993006708, 0.936698, 0.12491331, 0.23671106, 0.22574624
117, 993023375, 0.9359566, 0.12392846, 0.24054855, 0.2253073
118, 993040042, 0.9353146, 0.12251099, 0.24431089, 0.22469988
119, 993056709, 0.93470496, 0.12090526, 0.24787092, 0.22420724
120, 993073376, 0.93400997, 0.119145185, 0.25136724, 0.22415362
121, 993090043, 0.9333428, 0.11681703, 0.25477555, 0.22430906
122, 993106710, 0.9327587, 0.11451794, 0.25805214, 0.2241786
123, 993123377, 0.93216383, 0.112535246, 0.26128823, 0.22390865
124, 993140044, 0.9315081, 0.11062904, 0.2645379, 0.22377132
125, 993156711, 0.93091315, 0.10854587, 0.26758647, 0.22364323
126, 993173378, 0.93038, 0.10649876, 0.27044624, 0.22340557
127, 993190045, 0.9298537, 0.104310006, 0.27330354, 0.22315273
128, 993206712, 0.92933077, 0.10213868, 0.27609885, 0.22289385
129, 993223379, 0.92877746, 0.10016889, 0.27888268, 0.22262822
130, 993240046, 0.9282047, 0.09820716, 0.28168598, 0.2223613
131, 993256713, 0.9276137, 0.09617366, 0.2845233, 0.22210376
132, 993273380, 0.92703193, 0.09432073, 0.2873809, 0.22164786
133, 993290047, 0.92640215, 0.09259531, 0.2903725, 0.22110891
134, 993306714, 0.92567044, 0.09103269, 0.29347396, 0.22072716
135, 993323381, 0.92489207, 0.08927201, 0.29667455, 0.22043046
136, 993340048, 0.9241279, 0.08713789, 0.2999185, 0.22009952
137, 993356715, 0.92334425, 0.08486571, 0.30320328, 0.21977499
138, 993373382, 0.92253774, 0.08231584, 0.30651543, 0.21953766
139, 993390049, 0.9217466, 0.07927637, 0.30974534, 0.21944618
140, 993406716, 0.9209264, 0.07629095, 0.31305748, 0.21924733
141, 993423383, 0.92003274, 0.073638916, 0.31657287, 0.21885803
142, 993440050, 0.9190257, 0.07130081, 0.32021236, 0.21856843
143, 993456717, 0.91800237, 0.06904554, 0.32379714, 0.21831147
144, 993473384, 0.9170144, 0.066548124, 0.32726842, 0.21806295
145, 993490051, 0.9160241, 0.06397153, 0.33069625, 0.21782465
146, 993506718, 0.91501284, 0.061511017, 0.33408958, 0.21760532
147, 993523385, 0.91400373, 0.059126567, 0.33746117, 0.21730487
148, 993540052, 0.9130192, 0.056692142, 0.3408023, 0.21687745
149, 993556719, 0.91203845, 0.05406293, 0.3441643, 0.21636611
150, 993573386, 0.91106087, 0.051462267, 0.34749556, 0.21579295
151, 993590053, 0.9100033, 0.049291603, 0.35104027, 0.21502353
152, 993606720, 0.9088507, 0.04745317, 0.3548666, 0.2140286
153, 993623387, 0.907616, 0.045989554, 0.35875568, 0.21310271
154, 993640054, 0.9062648, 0.044752937, 0.36277893, 0.21230383
155, 993656721, 0.9048808, 0.043194667, 0.36678752, 0.21164079
156, 993673388, 0.9035426, 0.041289125, 0.3705114, 0.2112522
157, 993690055, 0.9021756, 0.039340552, 0.37418514, 0.21099116
158, 993706722, 0.90077853, 0.03685286, 0.37781098, 0.21094738
159, 993723389, 0.89940333, 0.033607494, 0.38127473, 0.21112533
160, 993740056, 0.8980203, 0.029969325, 0.38468444, 0.21137477
161, 993756723, 0.89669126, 0.026385542, 0.38803637, 0.21136881
162, 993773390, 0.8952969, 0.022860106, 0.39157647, 0.21116108
163, 993790057, 0.89382154, 0.019735688, 0.39535555, 0.2106837
164, 993806724, 0.8922197, 0.016584618, 0.3995178, 0.20989168
165, 993823391, 0.8905116, 0.013416495, 0.4038424, 0.20909439
166, 993840058, 0.8887877, 0.010702936, 0.4082013, 0.20811932
167, 993856725, 0.88703626, 0.008358584, 0.4126129, 0.20699668
168, 993873392, 0.8852012, 0.006060161, 0.41691938, 0.20630206
169, 993890059, 0.88324094, 0.003078284, 0.421104, 0.2062705
170, 993906726, 0.8813345, -8.1882026E-4, 0.4249371, 0.20658576
171, 993923393, 0.879521, -0.0053942334, 0.42851868, 0.20684667
172, 993940060, 0.87766427, -0.010057142, 0.432104, 0.20710073
173, 993956727, 0.87570685, -0.014347132, 0.4358492, 0.20728582
174, 993973394, 0.8736868, -0.018017855, 0.43984, 0.20709313
175, 993990061, 0.8716935, -0.021222316, 0.44396654, 0.2063829
176, 994006728, 0.8696466, -0.024664445, 0.44820845, 0.20546447
177, 994023395, 0.86749154, -0.028516779, 0.45252442, 0.20461375
178, 994040062, 0.86518836, -0.032069027, 0.45695838, 0.20398453
179, 994056729, 0.8626779, -0.034902137, 0.46172792, 0.20341088
180, 994073396, 0.86018664, -0.036959887, 0.46657062, 0.20254615
181, 994090063, 0.8576957, -0.03926182, 0.4713933, 0.20150697
182, 994106730, 0.85498834, -0.04275203, 0.47617978, 0.20104751
183, 994123397, 0.85207146, -0.0469759, 0.48091567, 0.20121531
184, 994140064, 0.8487904, -0.05161697, 0.48590785, 0.20195065
185, 994156731, 0.84524167, -0.056082975, 0.49121186, 0.20281109
186, 994173398, 0.8418862, -0.059986956, 0.49641475, 0.20298186
187, 994190065, 0.8384201, -0.065459445, 0.50126463, 0.20371804
188, 994206732, 0.8344265, -0.07337392, 0.50573057, 0.20636192
189, 994223399, 0.82994986, -0.08217569, 0.510286, 0.20985365
190, 994240066, 0.82557994, -0.089563705, 0.5150897, 0.21231729
191, 994256733, 0.8214605, -0.094863355, 0.5204358, 0.21295555
192, 994273400, 0.81742203, -0.09883153, 0.52613723, 0.21268198
193, 994290067, 0.81323993, -0.10266328, 0.53198916, 0.2123412
194, 994306734, 0.8090896, -0.106821805, 0.5376021, 0.21200767
195, 994323401, 0.80504507, -0.11129555, 0.5429991, 0.21134803
196, 994340068, 0.8010481, -0.1160062, 0.548177, 0.21063383
197, 994356735, 0.79699296, -0.120792955, 0.55312824, 0.21038258
198, 994373402, 0.79276884, -0.1258743, 0.55797964, 0.2105513
199, 994390069, 0.78870624, -0.13130745, 0.56233263, 0.21090971
200, 994406736, 0.7850475, -0.13636181, 0.5663405, 0.21062896
201, 994423403, 0.781673, -0.1403928, 0.5704035, 0.20956458
202, 994440070, 0.7784301, -0.14330158, 0.5746475, 0.20806667
203, 994456737, 0.775244, -0.14606458, 0.5788424, 0.20640638
204, 994473404, 0.7720045, -0.14993343, 0.58257484, 0.2052699
205, 994490071, 0.7684842, -0.15512203, 0.5860095, 0.20484754
206, 994506738, 0.7645051, -0.16152152, 0.5892689, 0.20543894
207, 994523405, 0.7603277, -0.16859268, 0.5922282, 0.2067469
208, 994540072, 0.7561441, -0.17494503, 0.59530693, 0.20796688
209, 994556739, 0.7522934, -0.1792701, 0.5987734, 0.20829642
210, 994573406, 0.74859136, -0.18215947, 0.6026492, 0.20794894
211, 994590073, 0.7449257, -0.18437907, 0.6066939, 0.20739521
212, 994606740, 0.74117506, -0.18707821, 0.61059815, 0.20695738
213, 994623407, 0.7373946, -0.190542, 0.61418927, 0.20667487
214, 994640074, 0.7336084, -0.19463822, 0.61733276, 0.2069661
215, 994656741, 0.7298386, -0.19905709, 0.6201717, 0.20760359
216, 994673408, 0.7263479, -0.20324413, 0.6227821, 0.20797409
217, 994690075, 0.7229384, -0.20643902, 0.62568814, 0.20798448
218, 994706742, 0.71972656, -0.20884804, 0.62865764, 0.20776434
219, 994723409, 0.71668667, -0.21058132, 0.6315273, 0.20781988
220, 994740076, 0.71354145, -0.2122352, 0.63437885, 0.20827493
221, 994756743, 0.71065605, -0.21421424, 0.6367898, 0.20875625
222, 994773410, 0.70844376, -0.216325, 0.6385574, 0.2087003
223, 994790077, 0.70649457, -0.21832025, 0.64018494, 0.20824283
224, 994806744, 0.7048647, -0.22034216, 0.6414868, 0.20762919
225, 994823411, 0.7032835, -0.22229534, 0.64258724, 0.2075062
226, 994840078, 0.70166045, -0.2242145, 0.6435575, 0.20792845
227, 994856745, 0.69996375, -0.22606443, 0.6445138, 0.2086807
228, 994873412, 0.6983585, -0.22788358, 0.645374, 0.20942026
229, 994890079, 0.69687766, -0.22970533, 0.64612454, 0.21004769
230, 994906746, 0.6955216, -0.23121043, 0.6468126, 0.21077208
231, 994923413, 0.6941888, -0.23257907, 0.6474592, 0.2116731
232, 994940080, 0.6930366, -0.23389645, 0.6479225, 0.21257754
233, 994956747, 0.69199026, -0.23509584, 0.6483976, 0.21321368
234, 994973414, 0.691177, -0.23596855, 0.6488855, 0.21340325
235, 994990081, 0.6905386, -0.23667333, 0.6493443, 0.21329406
236, 995006748, 0.69002116, -0.23730552, 0.64975286, 0.21302232
237, 995023415, 0.6895917, -0.23791821, 0.6501095, 0.2126405
238, 995040082, 0.689193, -0.23823115, 0.65047735, 0.21245839
239, 995056749, 0.68879294, -0.23837182, 0.6508446, 0.21247306
240, 995073416, 0.6884418, -0.23842035, 0.65118927, 0.21250054
241, 995090083, 0.688168, -0.23837414, 0.65155035, 0.21233204
242, 995106750, 0.6880327, -0.23826778, 0.6518352, 0.21201539
243, 995123417, 0.68796927, -0.23801619, 0.6521036, 0.21167804
244, 995140084, 0.687886, -0.2378211, 0.65233874, 0.21144366
245, 995156751, 0.6878026, -0.2376988, 0.65247214, 0.21144068
246, 995173418, 0.6876116, -0.23778193, 0.6526083, 0.21154827
247, 995190085, 0.68739545, -0.23804773, 0.65268517, 0.21171433
248, 995206752, 0.6871205, -0.23826641, 0.65278095, 0.21206549
249, 995223419, 0.68679893, -0.23851597, 0.6528601, 0.21258222
250, 995240086, 0.68653363, -0.23873964, 0.652927, 0.2129825
251, 995256753, 0.6863808, -0.23882377, 0.6529968, 0.21316703
252, 995273420, 0.6862808, -0.23875327, 0.6531447, 0.21311407
253, 995290087, 0.68619454, -0.2385475, 0.6533744, 0.21291783
254, 995306754, 0.6860801, -0.2383826, 0.65353954, 0.21296515
255, 995323421, 0.685948, -0.23830892, 0.6536589, 0.213106
256, 995340088, 0.68585306, -0.23828395, 0.6537251, 0.21323657
257, 995356755, 0.685818, -0.23825541, 0.6537911, 0.21317895
258, 995373422, 0.68583304, -0.2382064, 0.65380186, 0.21315262
259, 995390089, 0.6858119, -0.2382121, 0.65378445, 0.2132674
260, 995406756, 0.6857758, -0.23829521, 0.65369874, 0.2135537
261, 995423423, 0.68577063, -0.23839356, 0.6535824, 0.21381603
262, 995440090, 0.685787, -0.23856063, 0.65340096, 0.21413124
263, 995456757, 0.6857493, -0.23886138, 0.65318555, 0.21457389
264, 995473424, 0.6857075, -0.23936658, 0.652754, 0.2154558
265, 995490091, 0.68556607, -0.24019328, 0.65218383, 0.21670927
266, 995506758, 0.68554085, -0.24116611, 0.65140027, 0.2180608
267, 995523425, 0.6856301, -0.24218318, 0.65045005, 0.21948463
268, 995540092, 0.68581206, -0.24308865, 0.6495137, 0.22068495
269, 995556759, 0.6860207, -0.24378511, 0.64865077, 0.22180323
270, 995573426, 0.68635845, -0.24415518, 0.6478599, 0.22266124
271, 995590093, 0.686918, -0.24406119, 0.6471541, 0.22309095
272, 995606760, 0.6876378, -0.24360669, 0.6464834, 0.22331423
273, 995623427, 0.68847835, -0.24304377, 0.64570665, 0.22358502
274, 995640094, 0.6895447, -0.2426165, 0.6446628, 0.22377501
275, 995656761, 0.6913663, -0.24217759, 0.643053, 0.22326128
276, 995673428, 0.69361275, -0.24195741, 0.6412023, 0.22185133
277, 995690095, 0.6955176, -0.24213882, 0.6393021, 0.22117215
278, 995706762, 0.6971268, -0.24210136, 0.63769424, 0.22078791
279, 995723429, 0.6989373, -0.24152668, 0.63612294, 0.22022516
280, 995740096, 0.7009718, -0.24069397, 0.63432705, 0.21985075
281, 995756763, 0.7032982, -0.23970026, 0.63214684, 0.21978605
282, 995773430, 0.7057463, -0.23864672, 0.6297494, 0.21996789
283, 995790097, 0.70827174, -0.23739558, 0.62732357, 0.22013536
284, 995806764, 0.71093416, -0.2361527, 0.6246876, 0.22038585
285, 995823431, 0.7136125, -0.23547743, 0.621581, 0.22123478
286, 995840098, 0.71639705, -0.23536715, 0.61791676, 0.22261293
287, 995856765, 0.71920073, -0.23570776, 0.6137149, 0.22482534
288, 995873432, 0.72214526, -0.23590952, 0.6093116, 0.22714032
289, 995890099, 0.72514516, -0.23599423, 0.6047489, 0.22967403
290, 995906766, 0.72829163, -0.23577912, 0.6001177, 0.23207434
291, 995923433, 0.73179674, -0.23540714, 0.5951557, 0.23419411
292, 995940100, 0.7355659, -0.23450583, 0.5900425, 0.23621985
293, 995956767, 0.7395163, -0.23311202, 0.58493614, 0.23795897
294, 995973434, 0.7436603, -0.23133649, 0.5797488, 0.23946664
295, 995990101, 0.7482, -0.22912113, 0.574336, 0.24049735
296, 996006768, 0.75314194, -0.22660889, 0.56861955, 0.24103461
297, 996023435, 0.7581774, -0.22367044, 0.56285626, 0.24151921
298, 996040102, 0.7633545, -0.22028157, 0.5570485, 0.24179132
299, 996056769, 0.76879257, -0.21673125, 0.5509256, 0.24179876
300, 996073436, 0.7743768, -0.21295431, 0.54469395, 0.24145333
301, 996090103, 0.7799661, -0.20899417, 0.5383813, 0.24108101
302, 996106770, 0.78541887, -0.20481485, 0.5320531, 0.24101464
303, 996123437, 0.7909338, -0.19992512, 0.52582556, 0.24075128
304, 996140104, 0.7966015, -0.1943313, 0.5196914, 0.23996335
305, 996156771, 0.80230856, -0.18801416, 0.51376647, 0.23873776
306, 996173438, 0.80810446, -0.18091567, 0.5078788, 0.23726758
307, 996190105, 0.81371504, -0.17376283, 0.5018979, 0.23616347
308, 996206772, 0.8190319, -0.16718882, 0.49576685, 0.23547766
309, 996223439, 0.8241646, -0.16152748, 0.48927578, 0.23509698
310, 996240106, 0.8291278, -0.15674481, 0.48240736, 0.23507768
311, 996256773, 0.8337806, -0.15225959, 0.47556856, 0.23550357
312, 996273440, 0.838316, -0.14749573, 0.46884218, 0.23592083
313, 996290107, 0.8428517, -0.1423791, 0.46220723, 0.23599525
314, 996306774, 0.8473861, -0.13648257, 0.45590022, 0.23550895
315, 996323441, 0.85192937, -0.12970074, 0.44981992, 0.23464108
316, 996340108, 0.8562898, -0.12284645, 0.44387278, 0.23378152
317, 996356775, 0.86036676, -0.11684972, 0.437791, 0.23335493
318, 996373442, 0.86422306, -0.111967325, 0.43133825, 0.23351546
319, 996390109, 0.86801237, -0.10731637, 0.4247321, 0.2337527
320, 996406776, 0.8717757, -0.1024291, 0.41817987, 0.23375425
321, 996423443, 0.87537956, -0.0975794, 0.4116911, 0.23387855
322, 996440110, 0.8787973, -0.09238679, 0.4054783, 0.23402493
323, 996456777, 0.88223594, -0.086159684, 0.3995191, 0.23371106
324, 996473444, 0.88562906, -0.07932639, 0.39377695, 0.23304136
325, 996490111, 0.88878167, -0.072861955, 0.38813153, 0.23262069
326, 996506778, 0.89174145, -0.06665392, 0.38250762, 0.23247021
327, 996523445, 0.8946869, -0.060322996, 0.37672937, 0.23231792
328, 996540112, 0.8975667, -0.053857397, 0.37090945, 0.23216318
329, 996556779, 0.9002851, -0.04749083, 0.365129, 0.23219076
330, 996573446, 0.902793, -0.041259237, 0.3594438, 0.232514
331, 996590113, 0.9051435, -0.034864035, 0.3539513, 0.23284838
332, 996606780, 0.9075449, -0.028255947, 0.34838837, 0.23278625
333, 996623447, 0.90987414, -0.021892361, 0.3427748, 0.23271307
334, 996640114, 0.91198206, -0.015963785, 0.3372104, 0.23307307
335, 996656781, 0.91399974, -0.010223971, 0.33168024, 0.23342712
336, 996673448, 0.91599405, -0.004406045, 0.3261578, 0.2335735
337, 996690115, 0.91791135, 0.001139389, 0.32060647, 0.23377158
338, 996706782, 0.9196633, 0.006065345, 0.3150517, 0.2343615
339, 996723449, 0.92136264, 0.01060155, 0.3094014, 0.23505215
340, 996740116, 0.9230162, 0.015559398, 0.30391634, 0.23544453
341, 996756783, 0.92457086, 0.020586543, 0.29858914, 0.23577468
342, 996773450, 0.9260339, 0.024998613, 0.29317805, 0.23639584
343, 996790117, 0.92746216, 0.028742459, 0.28761503, 0.23720375
344, 996806784, 0.92883104, 0.032620724, 0.2821293, 0.23793319
345, 996823451, 0.9301718, 0.036858175, 0.27673882, 0.23840638
346, 996840118, 0.931428, 0.04064197, 0.2714296, 0.23899032
347, 996856785, 0.9325708, 0.044213403, 0.26623333, 0.23974293
348, 996873452, 0.933608, 0.048431043, 0.261232, 0.24039203
349, 996890119, 0.9345426, 0.05314525, 0.25633466, 0.24103606
350, 996906786, 0.9353703, 0.057684857, 0.25148112, 0.24189271
351, 996923453, 0.93602633, 0.062121615, 0.24675255, 0.24312347
352, 996940120, 0.9368003, 0.06677095, 0.24187328, 0.24381247
353, 996956787, 0.93754315, 0.07163283, 0.2370101, 0.24435225
354, 996973454, 0.9381054, 0.07630097, 0.23225184, 0.24534786
355, 996990121, 0.9386972, 0.080230586, 0.2272987, 0.2464669
356, 997006788, 0.9393072, 0.08407162, 0.22229548, 0.24742381
357, 997023455, 0.9398397, 0.08874012, 0.21748513, 0.2480462
358, 997040122, 0.9402711, 0.0940291, 0.21285303, 0.24848048
359, 997056789, 0.94064105, 0.09886963, 0.20830129, 0.24905774
360, 997073456, 0.941041, 0.10255351, 0.2036104, 0.24993572
361, 997090123, 0.941471, 0.10556424, 0.19875938, 0.25096533
362, 997106790, 0.94187784, 0.108610235, 0.19386004, 0.25196895
363, 997123457, 0.94221246, 0.11212058, 0.18906316, 0.25282398
364, 997140124, 0.94248354, 0.11595152, 0.18447922, 0.25347105
365, 997156791, 0.9426913, 0.119958065, 0.18018351, 0.25392392
366, 997173458, 0.9428109, 0.124272205, 0.17612477, 0.25425228
367, 997190125, 0.9428566, 0.12868845, 0.17223601, 0.25454944
368, 997206792, 0.9429485, 0.13270696, 0.16827734, 0.25479418
369, 997223459, 0.94299823, 0.13630307, 0.16445468, 0.25520748
370, 997240126, 0.94297475, 0.14000344, 0.1607573, 0.25564617
371, 997256793, 0.9428754, 0.1439882, 0.15718885, 0.2560186
372, 997273460, 0.94270134, 0.14791268, 0.15370294, 0.2565373
373, 997290127, 0.9425718, 0.15128401, 0.15019031, 0.25712794
374, 997306794, 0.9425074, 0.15418673, 0.14673044, 0.25763685
375, 997323461, 0.942472, 0.15657333, 0.14338998, 0.25820643
376, 997340128, 0.9424049, 0.15835342, 0.14029805, 0.25906274
377, 997356795, 0.94236416, 0.159356, 0.13745706, 0.26011798
378, 997373462, 0.9422907, 0.16037214, 0.13485266, 0.26112047
379, 997390129, 0.94207376, 0.16200997, 0.13253413, 0.26207796
380, 997406796, 0.9417009, 0.16414757, 0.13072188, 0.26299626
381, 997423463, 0.94135535, 0.16593292, 0.12925015, 0.26383877
382, 997440130, 0.9411469, 0.16711675, 0.12796517, 0.2644615
383, 997456797, 0.94102836, 0.16807231, 0.12684317, 0.2648172
384, 997473464, 0.9409374, 0.16879301, 0.12583822, 0.26516125
385, 997490131, 0.9408444, 0.16906425, 0.12506214, 0.2656851
386, 997506798, 0.9407558, 0.16934212, 0.12455041, 0.2660622
387, 997523465, 0.9405961, 0.17044659, 0.124399096, 0.2659924
388, 997540132, 0.9404006, 0.17197883, 0.124589495, 0.26560843
389, 997556799, 0.9401908, 0.1734696, 0.1249989, 0.26518846
390, 997573466, 0.9399586, 0.17518285, 0.12546788, 0.26466328
391, 997590133, 0.93964446, 0.17768453, 0.12625241, 0.26373667
392, 997606800, 0.9392445, 0.18049406, 0.12733659, 0.26273045
393, 997623467, 0.9388003, 0.18329641, 0.12855735, 0.2617813
394, 997640134, 0.93840414, 0.18595251, 0.12985894, 0.26068377
395, 997656801, 0.9381096, 0.18841268, 0.13105087, 0.25937766
396, 997673468, 0.93788683, 0.19020467, 0.13199948, 0.25839302
397, 997690135, 0.93776405, 0.19117808, 0.13277732, 0.25772062
398, 997706802, 0.93783414, 0.191465, 0.13341258, 0.25692335
399, 997723469, 0.93799037, 0.1915838, 0.13374351, 0.25609076
400, 997740136, 0.9380375, 0.19184813, 0.13407916, 0.25554395
401, 997756803, 0.9379456, 0.19219778, 0.13441993, 0.25543988
402, 997773470, 0.9377837, 0.19301021, 0.13462184, 0.25531536
403, 997790137, 0.9376472, 0.19426227, 0.13477714, 0.25478414
404, 997806804, 0.9375871, 0.19509828, 0.13478114, 0.25436458
405, 997823471, 0.9376691, 0.19492263, 0.13437408, 0.2544125
406, 997840138, 0.9379189, 0.194196, 0.13382114, 0.2543385
407, 997856805, 0.9382131, 0.19412738, 0.1331633, 0.25364992
408, 997873472, 0.9384291, 0.1944856, 0.13256706, 0.25288805
409, 997890139, 0.9386248, 0.19430299, 0.13192417, 0.25263813
410, 997906806, 0.938846, 0.19384018, 0.13132033, 0.2524864
411, 997923473, 0.9390818, 0.19376361, 0.13075334, 0.25196195
412, 997940140, 0.9392657, 0.19400056, 0.13036695, 0.25129297
413, 997956807, 0.939386, 0.19450456, 0.13013488, 0.25057322
414, 997973474, 0.9394167, 0.19611566, 0.130159, 0.24918571
415, 997990141, 0.9393712, 0.19836509, 0.13043098, 0.24742828
416, 998006808, 0.9393163, 0.20029283, 0.13091832, 0.2458214
417, 998023475, 0.93937397, 0.20159508, 0.13145342, 0.24424629
418, 998040142, 0.93944854, 0.20318219, 0.13202374, 0.24232893
419, 998056809, 0.93932974, 0.20578706, 0.13276902, 0.24017471
420, 998073476, 0.93901104, 0.20895077, 0.13382733, 0.23809303
421, 998090143, 0.9385798, 0.21238558, 0.1352923, 0.2359164
422, 998106810, 0.9381273, 0.21615413, 0.13705488, 0.23326142
423, 998123477, 0.9376574, 0.22026871, 0.13898718, 0.23013678
424, 998140144, 0.93723303, 0.22431844, 0.14106229, 0.22666487
425, 998156811, 0.9369665, 0.22790854, 0.14329728, 0.22275013
426, 998173478, 0.93671495, 0.23135686, 0.14567414, 0.21867381
427, 998190145, 0.93645394, 0.23451681, 0.14792554, 0.21488176
428, 998206812, 0.93634284, 0.23680285, 0.14998795, 0.21140093
429, 998223479, 0.9363718, 0.2380422, 0.15214507, 0.20831643
430, 998240146, 0.9363709, 0.23930977, 0.1544412, 0.20515431
431, 998256813, 0.93621886, 0.24135555, 0.15686731, 0.20157973
432, 998273480, 0.936021, 0.24361107, 0.15938996, 0.19777162
433, 998290147, 0.93576694, 0.2460088, 0.16177624, 0.19403243
434, 998306814, 0.93546605, 0.24851061, 0.16399664, 0.19039653
435, 998323481, 0.9352289, 0.25052023, 0.16612266, 0.1870554
436, 998340148, 0.93495893, 0.25242054, 0.16814849, 0.18401644
437, 998356815, 0.9346745, 0.25443554, 0.17000215, 0.18095753
438, 998373482, 0.9343393, 0.25633234, 0.17205979, 0.17804332
439, 998390149, 0.9340153, 0.25798643, 0.17422135, 0.17523032
440, 998406816, 0.9337061, 0.25950944, 0.1763795, 0.17244709
441, 998423483, 0.93331647, 0.26120004, 0.17853504, 0.16976532
442, 998440150, 0.9329589, 0.2627888, 0.18073425, 0.16692844
443, 998456817, 0.9325496, 0.26453093, 0.18305336, 0.16390955
444, 998473484, 0.9318768, 0.26686883, 0.185581, 0.16107881
445, 998490151, 0.9310829, 0.26954925, 0.18805134, 0.15831822
446, 998506818, 0.9304491, 0.27146786, 0.19069088, 0.1555849
447, 998523485, 0.93008983, 0.2722086, 0.19354905, 0.15288658
448, 998540152, 0.92975, 0.27291128, 0.19640072, 0.1500378
449, 998556819, 0.92920494, 0.27425325, 0.19926056, 0.14716902
450, 998573486, 0.928544, 0.27584746, 0.2022836, 0.14420775
451, 998590153, 0.9277816, 0.27724338, 0.20583846, 0.14138024
452, 998606820, 0.9270403, 0.27812228, 0.20969109, 0.13883065
453, 998623487, 0.9263773, 0.27898988, 0.21326695, 0.13603987
454, 998640154, 0.9257556, 0.2798088, 0.21659158, 0.13331068
455, 998656821, 0.9251286, 0.28027806, 0.22014952, 0.13082701
456, 998673488, 0.92422485, 0.2814593, 0.22392859, 0.12823923
457, 998690155, 0.9232724, 0.28301045, 0.22755519, 0.12526813
458, 998706822, 0.9226833, 0.28367582, 0.23078407, 0.122157656
459, 998723489, 0.9222771, 0.2835271, 0.23402299, 0.11937566
460, 998740156, 0.9218472, 0.28314987, 0.23732652, 0.1170472
461, 998756823, 0.9214538, 0.28249928, 0.24061148, 0.11499191
462, 998773490, 0.9212373, 0.28148884, 0.24367934, 0.112722784
463, 998790157, 0.92114097, 0.280285, 0.24655664, 0.1102256
464, 998806824, 0.9207556, 0.27959868, 0.24969208, 0.108109176
465, 998823491, 0.920077, 0.2796076, 0.25286487, 0.10647696
466, 998840158, 0.91953105, 0.27939394, 0.25577366, 0.10479368
467, 998856825, 0.91908234, 0.27930585, 0.2582167, 0.10295778
468, 998873492, 0.91843605, 0.2800006, 0.26035327, 0.10144619
469, 998890159, 0.9178733, 0.28023887, 0.26243114, 0.100523226
470, 998906826, 0.9175244, 0.27950907, 0.26458442, 0.10009308
471, 998923493, 0.9171656, 0.27875438, 0.2666938, 0.099889904
472, 998940160, 0.9166194, 0.27883917, 0.26847416, 0.0998959
473, 998956827, 0.9160928, 0.27919096, 0.26987207, 0.09997859
474, 998973494, 0.91561526, 0.27970123, 0.27101383, 0.09983752
475, 998990161, 0.91486347, 0.28084233, 0.27242023, 0.09969923
476, 999006828, 0.91391, 0.28221178, 0.2741937, 0.09971511
477, 999023495, 0.9130356, 0.28339198, 0.27584448, 0.099824905
478, 999040162, 0.9124426, 0.28416285, 0.27699727, 0.09986267
479, 999056829, 0.9119211, 0.28499398, 0.2778892, 0.099781126
480, 999073496, 0.91117024, 0.2863231, 0.27901214, 0.09970014
481, 999090163, 0.9100245, 0.28836867, 0.280617, 0.09976589
482, 999106830, 0.9084927, 0.29113644, 0.28260055, 0.100087866
483, 999123497, 0.906962, 0.293747, 0.2846929, 0.10041257
484, 999140164, 0.9057511, 0.29542992, 0.28685415, 0.100254506
485, 999156831, 0.9044387, 0.29727745, 0.28930736, 0.09959074
486, 999173498, 0.9026084, 0.30019063, 0.29217723, 0.09907731
487, 999190165, 0.90043515, 0.30392444, 0.2950342, 0.0990038
488, 999206832, 0.8986399, 0.3068519, 0.29753378, 0.09880289
489, 999223499, 0.89734805, 0.3086245, 0.29976183, 0.09828768
490, 999240166, 0.8962924, 0.3099267, 0.30180645, 0.09756355
491, 999256833, 0.8952409, 0.3112062, 0.30378172, 0.097012304
492, 999273500, 0.894039, 0.3130241, 0.30551034, 0.09681902
493, 999290167, 0.8928574, 0.31504768, 0.30675182, 0.0972327
494, 999306834, 0.8920072, 0.31647676, 0.30763158, 0.09761416
495, 999323501, 0.8911433, 0.31790414, 0.30874696, 0.097345
496, 999340168, 0.889777, 0.3203916, 0.31031275, 0.09670936
497, 999356835, 0.8879906, 0.32379526, 0.31200257, 0.09635247
498, 999373502, 0.8856572, 0.32829767, 0.31384856, 0.096598186
499, 999390169, 0.88293755, 0.3336451, 0.31561244, 0.09742244
500, 999406836, 0.88052005, 0.33824894, 0.31718647, 0.09831169
501, 999423503, 0.8782407, 0.3421776, 0.31915075, 0.09874671
502, 999440170, 0.87624437, 0.34543183, 0.32108966, 0.09886402
503, 999456837, 0.8746254, 0.3481014, 0.32251397, 0.09919986
504, 999473504, 0.8731174, 0.35072017, 0.3234015, 0.100364596
505, 999490171, 0.871684, 0.35358748, 0.3237063, 0.10177153
506, 999506838, 0.87064314, 0.3557598, 0.32387227, 0.1025779
507, 999523505, 0.86975193, 0.35760882, 0.32407483, 0.103069335
508, 999540172, 0.8690707, 0.35921326, 0.32385945, 0.10390832
509, 999556839, 0.8685466, 0.36055577, 0.3234233, 0.10499474
510, 999573506, 0.8678805, 0.36223528, 0.32300416, 0.10600705
511, 999590173, 0.86738724, 0.36379996, 0.32243863, 0.10640714
512, 999606840, 0.8670366, 0.3651891, 0.32187778, 0.10620466
513, 999623507, 0.86664885, 0.36666742, 0.32133225, 0.105926275
514, 999640174, 0.866246, 0.36815664, 0.32077938, 0.105732314
515, 999656841, 0.8655946, 0.37003866, 0.32041845, 0.10559062
516, 999673508, 0.8645428, 0.3725586, 0.32029837, 0.10571208
517, 999690175, 0.863699, 0.3749039, 0.31992635, 0.10544301
518, 999706842, 0.86277723, 0.37700513, 0.3199942, 0.105292246
519, 999723509, 0.8614159, 0.3798584, 0.3201449, 0.105724655
520, 999740176, 0.8602808, 0.38236535, 0.32013494, 0.10595969
521, 999756843, 0.8592228, 0.38489342, 0.31997037, 0.105888255
522, 999773510, 0.85827297, 0.38745072, 0.31941217, 0.10595025
523, 999790177, 0.8571896, 0.39013195, 0.31887683, 0.10649351
524, 999806844, 0.856084, 0.39301866, 0.31817436, 0.106873214
525, 999823511, 0.8551956, 0.39571315, 0.3172394, 0.10682203
526, 999840178, 0.85455686, 0.3982129, 0.31588456, 0.10665834
527, 999856845, 0.8542528, 0.40031272, 0.31413823, 0.106391296
528, 999873512, 0.85419667, 0.40203714, 0.31219202, 0.10606761
529, 999890179, 0.8541328, 0.40366697, 0.31023377, 0.10613829
530, 999906846, 0.85410464, 0.40508413, 0.30836734, 0.106404655
531, 999923513, 0.8540182, 0.40646365, 0.30668217, 0.106708035
532, 999940180, 0.854058, 0.40754724, 0.30505648, 0.106916815
533, 999956847, 0.854078, 0.40845233, 0.30367914, 0.10722149
534, 999973514, 0.8539562, 0.40933532, 0.30260423, 0.10786128
535, 999990181, 0.85380685, 0.41007605, 0.30166447, 0.1088578
536, 1000006848, 0.853675, 0.41058916, 0.30084592, 0.11021487
537, 1000023515, 0.8536762, 0.41073957, 0.30007264, 0.111742996
538, 1000040182, 0.8537247, 0.41072792, 0.29941633, 0.11316629
539, 1000056849, 0.85377085, 0.41069198, 0.29885638, 0.11442143
540, 1000073516, 0.8538102, 0.41063684, 0.29842177, 0.115456745
541, 1000090183, 0.8539416, 0.41037357, 0.2981413, 0.11614332
542, 1000106850, 0.85417306, 0.40995076, 0.29789063, 0.11657719
543, 1000123517, 0.85435486, 0.40963262, 0.29769352, 0.11686538
544, 1000140184, 0.8545136, 0.40937778, 0.29752624, 0.117023304
545, 1000156851, 0.8547069, 0.4090546, 0.2974067, 0.11704575
546, 1000173518, 0.85485363, 0.40873837, 0.29739627, 0.11710542
547, 1000190185, 0.8550085, 0.40840384, 0.29743007, 0.117055915
548, 1000206852, 0.8551221, 0.40820926, 0.29741517, 0.116943136
549, 1000223519, 0.8553265, 0.4079107, 0.29729834, 0.1167871
550, 1000240186, 0.8555178, 0.4076878, 0.2971101, 0.11664263
551, 1000256853, 0.85574335, 0.4074055, 0.29693693, 0.11641541
552, 1000273520, 0.85597575, 0.40717983, 0.29674396, 0.115988545
553, 1000290187, 0.85625064, 0.40692264, 0.29652965, 0.11540896
554, 1000306854, 0.85648835, 0.40672874, 0.29636294, 0.11475584
555, 1000323521, 0.8567008, 0.40650928, 0.29628474, 0.11414597
556, 1000340188, 0.8569358, 0.40621743, 0.29621923, 0.11358966
557, 1000356855, 0.8571748, 0.40587303, 0.29623288, 0.11298055
558, 1000373522, 0.8573801, 0.4055312, 0.29639447, 0.1122242
559, 1000390189, 0.85752034, 0.40523374, 0.2967632, 0.11124835
560, 1000406856, 0.8576422, 0.40493783, 0.29725915, 0.11005588
561, 1000423523, 0.8577471, 0.4046314, 0.29784614, 0.10877122
562, 1000440190, 0.85793746, 0.40412155, 0.29847103, 0.10744455
563, 1000456857, 0.8582739, 0.40336597, 0.29904926, 0.10597916
564, 1000473524, 0.8588252, 0.4022327, 0.29954532, 0.10440783
565, 1000490191, 0.8595763, 0.40082172, 0.29985693, 0.10274482
566, 1000506858, 0.8604725, 0.39917397, 0.3000654, 0.10103477
567, 1000523525, 0.8615004, 0.39724305, 0.3002536, 0.09931289
568, 1000540192, 0.8625588, 0.3951516, 0.3004359, 0.09790874
569, 1000556859, 0.8635549, 0.3930721, 0.30058843, 0.097025104
570, 1000573526, 0.8645576, 0.39101657, 0.30057967, 0.096425585
571, 1000590193, 0.8655923, 0.38891304, 0.30050883, 0.09587142
572, 1000606860, 0.8666066, 0.3868807, 0.30043712, 0.095151566
573, 1000623527, 0.86756384, 0.38489166, 0.30051935, 0.094231285
574, 1000640194, 0.8684433, 0.38295817, 0.30076212, 0.09322852
575, 1000656861, 0.8692064, 0.3811917, 0.30102953, 0.0924897
576, 1000673528, 0.86996716, 0.37945452, 0.301177, 0.09199955
577, 1000690195, 0.87080985, 0.37738767, 0.30142775, 0.09170706
578, 1000706862, 0.8716801, 0.37508634, 0.30183503, 0.09154247
579, 1000723529, 0.87246275, 0.37270966, 0.30251113, 0.09156094
580, 1000740196, 0.8730369, 0.37053666, 0.30336532, 0.0920794
581, 1000756863, 0.8736948, 0.36855766, 0.3037154, 0.092626534
582, 1000773530, 0.8745344, 0.36649415, 0.30368423, 0.092991196
583, 1000790197, 0.8754451, 0.36440876, 0.30345684, 0.09335969
584, 1000806864, 0.87653476, 0.36218727, 0.30284473, 0.09376792
585, 1000823531, 0.8777565, 0.35963997, 0.3022017, 0.09421678
586, 1000840198, 0.8788739, 0.35690722, 0.30202666, 0.09475122
587, 1000856865, 0.8797793, 0.35441673, 0.30212376, 0.09538629
588, 1000873532, 0.88051224, 0.35228857, 0.30223903, 0.09613973
589, 1000890199, 0.88111746, 0.35052568, 0.30226177, 0.09696185
590, 1000906866, 0.8816965, 0.34900537, 0.30204862, 0.0978426
591, 1000923533, 0.88238335, 0.3472616, 0.30165786, 0.09905469
592, 1000940200, 0.8831073, 0.3452681, 0.3013068, 0.100626
593, 1000956867, 0.88374686, 0.34323907, 0.3010838, 0.10260117
594, 1000973534, 0.88434285, 0.34143338, 0.3006764, 0.104665995
595, 1000990201, 0.8849444, 0.33985192, 0.29998848, 0.10668205
596, 1001006868, 0.8854553, 0.33867404, 0.29912165, 0.10860529
597, 1001023535, 0.88583827, 0.33782253, 0.29825625, 0.11049789
598, 1001040202, 0.88610697, 0.33740935, 0.29725453, 0.11229097
599, 1001056869, 0.8863298, 0.3371898, 0.2961677, 0.114050135
600, 1001073536, 0.8866221, 0.3370289, 0.29484385, 0.11567255
601, 1001090203, 0.88695455, 0.3370711, 0.2931059, 0.11740492
602, 1001106870, 0.88714343, 0.33782205, 0.2908073, 0.119516484
603, 1001123537, 0.88707834, 0.3388995, 0.28868252, 0.12207317
604, 1001140204, 0.8868057, 0.3395153, 0.28759214, 0.1248833
605, 1001156871, 0.88635063, 0.3398673, 0.2871637, 0.12810114
606, 1001173538, 0.8863018, 0.33985317, 0.28613254, 0.13075615
607, 1001190205, 0.88689095, 0.3393853, 0.28412437, 0.13234618
608, 1001206872, 0.8878182, 0.33830315, 0.2818646, 0.13372478
609, 1001223539, 0.88889396, 0.33637863, 0.2797641, 0.13582726
610, 1001240206, 0.8900216, 0.3338686, 0.27791938, 0.13839877
611, 1001256873, 0.8913564, 0.33144438, 0.27549294, 0.14047173
612, 1001273540, 0.892992, 0.32914242, 0.27225527, 0.14180124
613, 1001290207, 0.8945763, 0.3272109, 0.26883996, 0.14279866
614, 1001306874, 0.89577574, 0.32554895, 0.26603264, 0.14432862
615, 1001323541, 0.8964249, 0.32423776, 0.2642155, 0.14656863
616, 1001340208, 0.8966402, 0.3240562, 0.26248756, 0.14874268
617, 1001356875, 0.8968198, 0.32508725, 0.2599008, 0.14994782
618, 1001373542, 0.8971511, 0.32691264, 0.2564009, 0.1500229
619, 1001390209, 0.8974802, 0.3287623, 0.25280592, 0.15011273
620, 1001406876, 0.89758253, 0.33007875, 0.24990359, 0.15146515
621, 1001423543, 0.89781684, 0.32990986, 0.2476166, 0.15417705
622, 1001440210, 0.89844507, 0.32861224, 0.24518326, 0.15714848
623, 1001456877, 0.89948803, 0.32702023, 0.24206404, 0.15932386
624, 1001473544, 0.90057504, 0.32575935, 0.23877375, 0.16072601
625, 1001490211, 0.9008554, 0.32619926, 0.23610923, 0.16219144
626, 1001506878, 0.9001872, 0.32881767, 0.23419632, 0.16338336
627, 1001523545, 0.899274, 0.3322675, 0.2323881, 0.16401343
628, 1001540212, 0.8986306, 0.33568013, 0.23015806, 0.16373502
629, 1001556879, 0.8982816, 0.33876854, 0.22758606, 0.16288227
630, 1001573546, 0.8980505, 0.34133017, 0.22499235, 0.16241187
631, 1001590213, 0.8976256, 0.34359258, 0.22270542, 0.16314012
632, 1001606880, 0.89724, 0.3454148, 0.2203695, 0.16457982
633, 1001623547, 0.8972541, 0.34674335, 0.21746749, 0.1655665
634, 1001640214, 0.8976525, 0.34740064, 0.21433519, 0.16611214
635, 1001656881, 0.8983397, 0.3470891, 0.21129124, 0.16694699
636, 1001673548, 0.89902997, 0.34589136, 0.20861286, 0.16907154
637, 1001690215, 0.89941424, 0.3447768, 0.20619127, 0.1722443
638, 1001706882, 0.8995886, 0.34439683, 0.20371383, 0.17501932
639, 1001723549, 0.89981955, 0.34446114, 0.20121548, 0.17658857
640, 1001740216, 0.89998484, 0.34493244, 0.19885336, 0.17750068
641, 1001756883, 0.900119, 0.3448236, 0.19670127, 0.17941873
642, 1001773550, 0.9005325, 0.34335998, 0.1943457, 0.1826881
643, 1001790217, 0.9011692, 0.34127584, 0.19152962, 0.18639016
644, 1001806884, 0.9018373, 0.33963093, 0.1884212, 0.18930888
645, 1001823551, 0.90223944, 0.33896843, 0.185482, 0.19147019
646, 1001840218, 0.9025942, 0.33834115, 0.18254113, 0.19372068
647, 1001856885, 0.902972, 0.33687732, 0.1798743, 0.19697832
648, 1001873552, 0.9033486, 0.3350607, 0.17730144, 0.2006493
649, 1001890219, 0.90369904, 0.33368096, 0.17479865, 0.20354514
650, 1001906886, 0.903986, 0.33289146, 0.17261462, 0.20541942
651, 1001923553, 0.9039842, 0.33256724, 0.17087351, 0.20739809
652, 1001940220, 0.9038568, 0.33194816, 0.16929135, 0.21022354
653, 1001956887, 0.9038868, 0.3307658, 0.1677583, 0.21316716
654, 1001973554, 0.9040166, 0.32973656, 0.16649686, 0.21518983
655, 1001990221, 0.9040694, 0.32900602, 0.16562222, 0.21675555
656, 1002006888, 0.90400714, 0.3283635, 0.16481294, 0.21859887
657, 1002023555, 0.9039352, 0.32767168, 0.16405623, 0.2204954
658, 1002040222, 0.9041524, 0.32629797, 0.16342598, 0.22210479
659, 1002056889, 0.90449166, 0.3245389, 0.16304354, 0.22357632
660, 1002073556, 0.9047998, 0.32274312, 0.162533, 0.22529437
661, 1002090223, 0.90516585, 0.32097933, 0.16170916, 0.2269299
662, 1002106890, 0.90549546, 0.31962273, 0.16113997, 0.22793296
663, 1002123557, 0.90575886, 0.31828484, 0.16112848, 0.2287647
664, 1002140224, 0.9059781, 0.31672385, 0.16118777, 0.2300178
665, 1002156891, 0.9062796, 0.31491143, 0.16102457, 0.23142858
666, 1002173558, 0.906664, 0.3131127, 0.16092606, 0.23243
667, 1002190225, 0.90697455, 0.31160986, 0.16114087, 0.23308799
668, 1002206892, 0.9071321, 0.31029662, 0.16173045, 0.23381798
669, 1002223559, 0.907279, 0.3089506, 0.16232525, 0.23461692
670, 1002240226, 0.90743715, 0.30773765, 0.16299593, 0.23513357
671, 1002256893, 0.9076206, 0.30669102, 0.16384365, 0.23520404
672, 1002273560, 0.9077329, 0.30594355, 0.16475905, 0.23510529
673, 1002290227, 0.90783423, 0.3050979, 0.16561958, 0.2352076
674, 1002306894, 0.90812975, 0.30361506, 0.16631614, 0.23549397
675, 1002323561, 0.9085665, 0.30189142, 0.16693541, 0.2355874
676, 1002340228, 0.90891737, 0.3004437, 0.1676206, 0.23559785
677, 1002356895, 0.9091292, 0.29924887, 0.16830547, 0.23581247
678, 1002373562, 0.90934396, 0.29797024, 0.16888145, 0.23619176
679, 1002390229, 0.9096899, 0.29631653, 0.1692739, 0.23665878
680, 1002406896, 0.9102234, 0.29410878, 0.16953252, 0.2371751
681, 1002423563, 0.9109831, 0.29123092, 0.16959636, 0.23776354
682, 1002440230, 0.9117908, 0.28814867, 0.16963528, 0.2383945
683, 1002456897, 0.91241807, 0.2853961, 0.1698589, 0.23914517
684, 1002473564, 0.91271996, 0.2836096, 0.17039247, 0.23973835
685, 1002490231, 0.9127607, 0.28273207, 0.17119586, 0.24004759
686, 1002506898, 0.9127043, 0.28211275, 0.17222354, 0.2402553
687, 1002523565, 0.9125626, 0.28185293, 0.17325072, 0.2403592
688, 1002540232, 0.9122896, 0.28221014, 0.17427106, 0.24023876
689, 1002556899, 0.91197443, 0.28273866, 0.1752458, 0.24010538
690, 1002573566, 0.91172135, 0.2829858, 0.17607701, 0.24016663
691, 1002590233, 0.911633, 0.28279087, 0.176718, 0.24026072
692, 1002606900, 0.91173506, 0.28218123, 0.17724633, 0.24020198
693, 1002623567, 0.911911, 0.28139764, 0.17762989, 0.24017005
694, 1002640234, 0.9120347, 0.28057444, 0.17803459, 0.24036323
695, 1002656901, 0.91220766, 0.27955964, 0.17848186, 0.24055761
696, 1002673568, 0.912388, 0.278691, 0.17901525, 0.24048515
697, 1002690235, 0.9125213, 0.27802458, 0.17959428, 0.24031933
698, 1002706902, 0.912574, 0.27769098, 0.18017687, 0.2400685
699, 1002723569, 0.9125438, 0.27773136, 0.18089968, 0.23959242
700, 1002740236, 0.9125099, 0.27781495, 0.18172242, 0.23900092
701, 1002756903, 0.91262215, 0.27739063, 0.18240117, 0.23854774
702, 1002773570, 0.91283625, 0.2766584, 0.18278469, 0.23828545
703, 1002790237, 0.9130594, 0.27598774, 0.18305822, 0.23799807
704, 1002806904, 0.9132488, 0.27545586, 0.1834097, 0.23761687
705, 1002823571, 0.91337764, 0.2750932, 0.18382367, 0.23722118
706, 1002840238, 0.91347635, 0.27479717, 0.18422073, 0.2368762
707, 1002856905, 0.91360295, 0.27445173, 0.18449451, 0.23657532
708, 1002873572, 0.91375476, 0.27407745, 0.18465887, 0.23629454
709, 1002890239, 0.9138944, 0.2736466, 0.18478307, 0.23615675
710, 1002906906, 0.91397965, 0.27333415, 0.18496473, 0.23604637
711, 1002923573, 0.91399634, 0.273407, 0.18516846, 0.23573674
712, 1002940240, 0.9140121, 0.27351332, 0.18537542, 0.23539035
713, 1002956907, 0.91403, 0.27346614, 0.18556172, 0.23522839
714, 1002973574, 0.9139989, 0.27343816, 0.1857486, 0.2352343
715, 1002990241, 0.91391397, 0.27366945, 0.18593882, 0.23514539
716, 1003006908, 0.91387993, 0.27380472, 0.18615028, 0.23495215
717, 1003023575, 0.91382736, 0.2737999, 0.18642096, 0.23494737
718, 1003040242, 0.9137836, 0.2736874, 0.18666573, 0.23505452
719, 1003056909, 0.9137868, 0.27357036, 0.18684292, 0.23503746
720, 1003073576, 0.91385263, 0.27349156, 0.1869803, 0.23476371
721, 1003090243, 0.9139999, 0.27309513, 0.18710053, 0.23455636
722, 1003106910, 0.91414696, 0.27261803, 0.18726403, 0.23440784
723, 1003123577, 0.91436404, 0.2720919, 0.18744393, 0.23402813
724, 1003140244, 0.9145715, 0.27171534, 0.18758751, 0.2335398
725, 1003156911, 0.9146005, 0.27182674, 0.18776733, 0.23315187
726, 1003173578, 0.91452384, 0.2722228, 0.18796816, 0.23282836
727, 1003190245, 0.9145547, 0.27222717, 0.18816745, 0.2325406
728, 1003206912, 0.9146746, 0.27186784, 0.18828507, 0.23239402
729, 1003223579, 0.9147896, 0.27148935, 0.18843164, 0.23226547
730, 1003240246, 0.91484624, 0.27139232, 0.1886454, 0.23198189
731, 1003256913, 0.9148751, 0.27138215, 0.18892859, 0.23164979
732, 1003273580, 0.914926, 0.27127242, 0.18919851, 0.23135662
733, 1003290247, 0.91502494, 0.2710439, 0.1893874, 0.23107868
734, 1003306914, 0.9151169, 0.27088106, 0.18957908, 0.23074761
735, 1003323581, 0.9152079, 0.27076894, 0.18978886, 0.23034588
736, 1003340248, 0.9153294, 0.27052295, 0.19000478, 0.22997403
737, 1003356915, 0.915456, 0.2702522, 0.19021341, 0.22961532
738, 1003373582, 0.91555136, 0.27018127, 0.190407, 0.22915713
739, 1003390249, 0.9155913, 0.27035365, 0.19066328, 0.22858085
740, 1003406916, 0.91555834, 0.27068546, 0.19099946, 0.22803834
741, 1003423583, 0.9155144, 0.27102977, 0.19132675, 0.22753108
742, 1003440250, 0.91545504, 0.27142024, 0.19168651, 0.22700109
743, 1003456917, 0.9154447, 0.271668, 0.19202833, 0.2264574
744, 1003473584, 0.91549844, 0.27175754, 0.19236417, 0.22584629
745, 1003490251, 0.91553926, 0.2718394, 0.19266511, 0.22532508
746, 1003506918, 0.91553324, 0.27198693, 0.19293207, 0.22494331
747, 1003523585, 0.91555667, 0.2720486, 0.19314046, 0.22459452
748, 1003540252, 0.91565347, 0.27187386, 0.19330922, 0.2242649
749, 1003556919, 0.91578186, 0.27158028, 0.19342937, 0.22399332
750, 1003573586, 0.9158775, 0.27143094, 0.19355164, 0.22367692
751, 1003590253, 0.9158588, 0.27161884, 0.1937571, 0.22334792
752, 1003606920, 0.91586673, 0.27167606, 0.19395053, 0.22307722
753, 1003623587, 0.9160031, 0.27127534, 0.19401486, 0.22294967
754, 1003640254, 0.9161794, 0.27081817, 0.19393651, 0.22284827
755, 1003656921, 0.9163041, 0.27057514, 0.19388625, 0.2226748
756, 1003673588, 0.91638684, 0.2704359, 0.19391015, 0.22248289
757, 1003690255, 0.9165233, 0.27013427, 0.19392782, 0.22227137
758, 1003706922, 0.91671747, 0.26972172, 0.1938884, 0.22200584
759, 1003723589, 0.91684806, 0.26955602, 0.1939459, 0.22161748
760, 1003740256, 0.9168946, 0.26963514, 0.19412668, 0.22117023
761, 1003756923, 0.9168773, 0.2698725, 0.19435036, 0.22075519
762, 1003773590, 0.91685843, 0.27008325, 0.1945705, 0.22038195
763, 1003790257, 0.91689914, 0.27008894, 0.19473547, 0.22005947
764, 1003806924, 0.917009, 0.26990527, 0.19478586, 0.21978243
765, 1003823591, 0.91713136, 0.2696775, 0.19479008, 0.21954739
766, 1003840258, 0.9172326, 0.26944453, 0.19486079, 0.2193479
767, 1003856925, 0.91734296, 0.269163, 0.1949467, 0.21915498
768, 1003873592, 0.91744375, 0.26892698, 0.19503503, 0.21894424
769, 1003890259, 0.91751933, 0.26882306, 0.19509472, 0.21870214
770, 1003906926, 0.9175863, 0.26877898, 0.19517246, 0.21840563
771, 1003923593, 0.91772467, 0.2684461, 0.1952377, 0.21817544
772, 1003940260, 0.91789305, 0.26794577, 0.19525738, 0.21806455
773, 1003956927, 0.9180634, 0.26739627, 0.19522654, 0.21804944
774, 1003973594, 0.9181929, 0.26697016, 0.19518334, 0.21806513
775, 1003990261, 0.9182061, 0.2669612, 0.19519088, 0.21801312
776, 1004006928, 0.9181889, 0.26702607, 0.1952796, 0.21792719
777, 1004023595, 0.9181878, 0.26697767, 0.19536993, 0.21791011
778, 1004040262, 0.91823846, 0.2667713, 0.19542322, 0.21790169
779, 1004056929, 0.9182957, 0.26660976, 0.19542131, 0.21786018
780, 1004073596, 0.91835654, 0.26639852, 0.19544308, 0.21784197
781, 1004090263, 0.91845393, 0.26606303, 0.19540824, 0.21787247
782, 1004106930, 0.91852236, 0.26576164, 0.19539359, 0.21796508
783, 1004123597, 0.91856235, 0.26560998, 0.19540283, 0.21797304
784, 1004140264, 0.9185693, 0.2656196, 0.19546655, 0.21787468
785, 1004156931, 0.91857123, 0.26567703, 0.19548813, 0.21777755
786, 1004173598, 0.91865134, 0.26549, 0.19549109, 0.2176653
787, 1004190265, 0.91874784, 0.26521206, 0.19552152, 0.21756929
788, 1004206932, 0.9188311, 0.2649744, 0.19556285, 0.21747032
789, 1004223599, 0.91886634, 0.26486444, 0.19564849, 0.21737802
790, 1004240266, 0.9188885, 0.26484314, 0.19571936, 0.21724622
791, 1004256933, 0.91887057, 0.26492155, 0.19581404, 0.21714154
792, 1004273600, 0.91883636, 0.26500311, 0.19593573, 0.21707718
793, 1004290267, 0.91878843, 0.26509988, 0.196119, 0.21699597
794, 1004306934, 0.91871333, 0.26528043, 0.1963781, 0.21685907
795, 1004323601, 0.9186548, 0.26542243, 0.19665264, 0.21668398
796, 1004340268, 0.9186429, 0.265351, 0.19687468, 0.21662071
797, 1004356935, 0.9186548, 0.26510248, 0.19704524, 0.21671894
798, 1004373602, 0.9187083, 0.26473352, 0.19717012, 0.21682973
799, 1004390269, 0.9187409, 0.26444232, 0.19732721, 0.21690397
800, 1004406936, 0.9187831, 0.2641764, 0.19742286, 0.2169628
801, 1004423603, 0.91880685, 0.26398426, 0.19749403, 0.21703136
802, 1004440270, 0.9187937, 0.26390532, 0.19754845, 0.21713307
803, 1004456937, 0.9187463, 0.26395434, 0.19762343, 0.21720557
804, 1004473604, 0.91872615, 0.26398146, 0.19769217, 0.21719521
805, 1004490271, 0.9186965, 0.26392868, 0.19777694, 0.21730813
806, 1004506938, 0.91867596, 0.26390815, 0.19778365, 0.21741423
807, 1004523605, 0.9186785, 0.26378208, 0.19777586, 0.21756302
808, 1004540272, 0.91865534, 0.26375705, 0.19777311, 0.21769375
809, 1004556939, 0.91861343, 0.26377591, 0.19779436, 0.21782841
810, 1004573606, 0.9185793, 0.26376122, 0.1978188, 0.21796815
811, 1004590273, 0.9185147, 0.26388413, 0.19786802, 0.218046
812, 1004606940, 0.9184586, 0.26398164, 0.19795714, 0.21808404
813, 1004623607, 0.9184566, 0.26383415, 0.19803874, 0.21819672
814, 1004640274, 0.9184434, 0.26373392, 0.19808844, 0.21832816
815, 1004656941, 0.9184131, 0.26371685, 0.19814473, 0.21842535
816, 1004673608, 0.91833234, 0.26385358, 0.19824877, 0.21850537
817, 1004690275, 0.9182705, 0.26398352, 0.19837059, 0.21849808
818, 1004706942, 0.9182752, 0.26384205, 0.19847052, 0.21855797
819, 1004723609, 0.91826606, 0.26363924, 0.19859529, 0.21872763
820, 1004740276, 0.91831535, 0.26345733, 0.1986886, 0.21865532
821, 1004756943, 0.9183191, 0.26317796, 0.19885196, 0.21882722
822, 1004773610, 0.9184023, 0.26279232, 0.19900364, 0.21880385
823, 1004790277, 0.918495, 0.26210123, 0.19919468, 0.2190698
824, 1004806944, 0.9185751, 0.2615926, 0.19940215, 0.21915267
825, 1004823611, 0.91859424, 0.2612957, 0.19967788, 0.21917595
826, 1004840278, 0.91854435, 0.26118234, 0.20005326, 0.21917802
827, 1004856945, 0.918505, 0.26115033, 0.2003995, 0.21906446
828, 1004873612, 0.9184793, 0.26096022, 0.20070396, 0.21912019
829, 1004890279, 0.9185577, 0.26080033, 0.20089366, 0.21880749
830, 1004906946, 0.9185375, 0.2606083, 0.20114067, 0.218894
831, 1004923613, 0.91846806, 0.26053017, 0.2014338, 0.21900862
832, 1004940280, 0.9184328, 0.26039708, 0.20169975, 0.21907027
833, 1004956947, 0.9184256, 0.26027387, 0.20191528, 0.21904865
834, 1004973614, 0.91838926, 0.2602027, 0.20207639, 0.21913724
835, 1004990281, 0.91831136, 0.26014805, 0.20225792, 0.21936035
836, 1005006948, 0.9182862, 0.2601892, 0.20237496, 0.21930885
837, 1005023615, 0.91823673, 0.2601098, 0.20248924, 0.21950524
838, 1005040282, 0.91819894, 0.25995305, 0.20253877, 0.21980338
839, 1005056949, 0.9181905, 0.25983235, 0.20256129, 0.21995986
840, 1005073616, 0.9181805, 0.25969198, 0.20256038, 0.22016838
841, 1005090283, 0.9182167, 0.25941637, 0.2025582, 0.2203442
842, 1005106950, 0.91822827, 0.25918937, 0.20254508, 0.22057529
843, 1005123617, 0.9181575, 0.25912023, 0.20257768, 0.22092056
844, 1005140284, 0.91809005, 0.25929606, 0.20257226, 0.22099976
845, 1005156951, 0.9180289, 0.25945285, 0.20257328, 0.22106883
846, 1005173618, 0.91802835, 0.2596044, 0.20250903, 0.22095197
847, 1005190285, 0.91799927, 0.25971642, 0.20244455, 0.22100034
848, 1005206952, 0.91793066, 0.2598623, 0.20240213, 0.22115263
849, 1005223619, 0.91791695, 0.260112, 0.20233226, 0.22097944
850, 1005240286, 0.91782326, 0.26042947, 0.2022705, 0.22105108
851, 1005256953, 0.9177263, 0.26080254, 0.20217559, 0.22110073
852, 1005273620, 0.91764355, 0.26110533, 0.20208149, 0.22117285
853, 1005290287, 0.91760826, 0.261235, 0.20198728, 0.22125213
854, 1005306954, 0.91767967, 0.26111954, 0.20180991, 0.22125459
855, 1005323621, 0.91779447, 0.26097336, 0.20156588, 0.22117281
856, 1005340288, 0.9178976, 0.26079848, 0.20137204, 0.22112736
