DeviceTag:;Xsens DOT 2;;;;;;;;;;;
FirmwareVersion:;1.3.0;;;;;;;;;;;
AppVersion:;2020.1.1;;;;;;;;;;;
Measurement Mode:;Inertial Mode - High Fidelity (with mag);;;;;;;;;;;
StartTime:;2020-07-29 17:11:18.835 +0200;;;;;;;;;;;
© Xsens Technologies B. V. 2005-2020;;;;;;;;;;;;
PacketCounter;SampleTimeFine;dQ_W;dQ_X;dQ_Y;dQ_Z;dV[1];dV[2];dV[3];Mag_X;Mag_Y;Mag_Z;Status
2;2138825387; 0.9999990770270741; 0.0011738897664735348; -6.037064200562215E-4; -3.216618943534255E-4; -0.1644882103736623; -0.005894176783095589; 0.02812936993110422; 0.504150390625; -0.50048828125; -0.247802734375;0
3;2138842054; 0.9999988873336194; 0.00133108088057865; -6.266726745258467E-4; -2.466507076752875E-4; -0.16454088265294842; -0.007047651199106865; 0.028633408001800923; 0.4990234375; -0.501953125; -0.251708984375;0
4;2138858721; 0.9999984143751919; 0.0016753730176210513; -5.88839891899673E-4; -1.3281541882453202E-4; -0.16371859408033662; -0.007236428394887166; 0.02873666344549915; 0.5009765625; -0.502685546875; -0.25341796875;0
5;2138875388; 0.9999980754177287; 0.0018891614113524802; -5.265661180457182E-4; -5.438863776483644E-5; -0.16370166415643858; -0.005332811945332172; 0.029163836031806334; 0.5; -0.50341796875; -0.255126953125;0
6;2138892055; 0.9999983200174855; 0.0017630799504824157; -5.000408536927071E-4; -3.83463113709584E-5; -0.16357524619387193; -0.0024988538151933005; 0.02828798588831431; 0.499755859375; -0.504150390625; -0.2578125;0
7;2138908722; 0.9999989429725781; 0.001360810090846043; -5.091675853226286E-4; -5.475393356420972E-5; -0.1636158074976355; -1.5177487192064888E-4; 0.02807064675485351; 0.499755859375; -0.50830078125; -0.257080078125;0
8;2138925389; 0.9999995240438394; 8.100100953810641E-4; -5.395409419536868E-4; -6.849315286803354E-5; -0.1634762335040138; 0.0015701104053083247; 0.02801092643615718; 0.500732421875; -0.510498046875; -0.25537109375;0
9;2138942056; 0.9999998165328764; 2.619855457567377E-4; -5.378992707165686E-4; -9.466869532363116E-5; -0.1627666489481205; 0.002054215085497012; 0.028061397616913116; 0.498291015625; -0.50830078125; -0.261474609375;0
10;2138958723; 0.9999998275635918; -1.8267900732882314E-4; -5.488617805370634E-4; -1.0125172932909376E-4; -0.16304463355775928; 0.001826214199643069; 0.028082089411243277; 0.498046875; -0.5068359375; -0.260009765625;0
11;2138975390; 0.999999803427911; -3.6157265613540046E-4; -5.081324762322427E-4; -6.489021870186713E-5; -0.16278117131164538; 5.404915384692403E-4; 0.027920742960962506; 0.496826171875; -0.50634765625; -0.255859375;0
12;2138992057; 0.9999998432232805; -3.871727724610863E-4; -4.042680034792579E-4; -1.4766178486239068E-5; -0.16177637009732745; 5.194316765626383E-4; 0.028105286137221783; 0.497802734375; -0.505615234375; -0.260986328125;0
13;2139008724; 0.9999997912071306; -5.63555198228205E-4; -3.156077002501312E-4; -1.957072248311154E-5; -0.16117764071421023; 0.0011841921273751093; 0.028213120729390476; 0.49853515625; -0.50341796875; -0.2626953125;0
14;2139025391; 0.9999996302512262; -8.124806197634671E-4; -2.7789430468139203E-4; -4.634014281771487E-5; -0.16129080083789582; 3.1907398266129046E-4; 0.028523275513992273; 0.49755859375; -0.5048828125; -0.25927734375;0
15;2139042058; 0.9999994857415215; -9.60622257624999E-4; -3.065007676288645E-4; -1.0853041165429651E-4; -0.1624498898807945; -0.001233044473305779; 0.028725540422296608; 0.497802734375; -0.501953125; -0.2607421875;0
16;2139058725; 0.9999995023482493; -9.490491998275785E-4; -2.810213706733456E-4; -1.250434302989059E-4; -0.16249257324649555; -0.0020515777548528354; 0.02848765633684917; 0.49951171875; -0.50048828125; -0.262939453125;0
17;2139075392; 0.9999994662584195; -9.857440459577482E-4; -2.477174579620378E-4; -1.85546794745424E-4; -0.16338300608455292; -0.0015615869888575395; 0.02864159987824929; 0.498779296875; -0.497314453125; -0.257080078125;0
18;2139092059; 0.9999993922076759; -0.001059533630596965; -2.308408313320687E-4; -1.9921163373411155E-4; -0.16389942599204457; -0.0021003376348829265; 0.028358067743178807; 0.498291015625; -0.496826171875; -0.262939453125;0
19;2139108726; 0.9999994764983066; -9.776318866616118E-4; -2.321959477528668E-4; -1.9319432962463387E-4; -0.16398691448216907; -0.0024147894487681343; 0.028630653667990346; 0.49755859375; -0.49169921875; -0.261474609375;0
20;2139125393; 0.9999993471103297; -0.0011089025516258788; -2.2671899350856786E-4; -1.5720223695455532E-4; -0.1641910753052138; -0.002335525302763774; 0.027508308335448536; 0.498779296875; -0.49462890625; -0.261474609375;0
21;2139142060; 0.9999994071689727; -0.0010666855155845312; -2.0453100555919979E-4; -7.752923048303524E-5; -0.16404033383337138; -0.003404394538135822; 0.028057345465535632; 0.500732421875; -0.489990234375; -0.2626953125;0
22;2139158727; 0.9999993665734844; -0.0011130547758201326; -1.665945706933736E-4; -1.4420290254599233E-5; -0.16355483703835824; -0.0022938185457315984; 0.027714166265074936; 0.497802734375; -0.488037109375; -0.261474609375;0
23;2139175394; 0.9999989496097578; -0.001439571677659679; -1.685584358362691E-4; -9.054016308213121E-7; -0.16377214980561344; -0.0013388670411122582; 0.028036651238727055; 0.498779296875; -0.4873046875; -0.26318359375;0
24;2139192061; 0.9999982608457847; -0.001855470888307953; -1.874607383350602E-4; -1.9790404754811697E-5; -0.16400406781171314; -0.001851403671742479; 0.02809582382656317; 0.4990234375; -0.48291015625; -0.260498046875;0
25;2139208728; 0.9999978600826465; -0.0020576084499340785; -2.116276530859662E-4; -3.5935093680029846E-5; -0.1644862316066127; -0.00377922052684033; 0.027931853604412592; 0.499755859375; -0.478515625; -0.262451171875;0
26;2139225395; 0.9999979286594657; -0.0020229333252749226; -2.1878021004020923E-4; -5.0524839644496E-5; -0.16493564074487269; -0.005216052998211205; 0.02782923449916141; 0.499267578125; -0.480224609375; -0.262939453125;0
27;2139242062; 0.9999981954269183; -0.0018889286008764161; -1.946841207410566E-4; -5.6477791231634995E-5; -0.16500416380723137; -0.006100492495524771; 0.027972740824360878; 0.501953125; -0.4755859375; -0.259765625;0
28;2139258729; 0.9999982965704319; -0.001833990729106283; -1.9729286672062754E-4; -6.640605955596235E-5; -0.16483908388333113; -0.006069904837818902; 0.02761561003409571; 0.500244140625; -0.471435546875; -0.26220703125;0
29;2139275396; 0.9999983768421511; -0.0017892212248085126; -1.848872468016849E-4; -1.0400566269068436E-4; -0.16385045017760813; -0.006440207096576918; 0.027532393160860518; 0.501953125; -0.47021484375; -0.258544921875;0
30;2139292063; 0.9999985692001166; -0.0016752797281486265; -2.1675381513408534E-4; -8.974037930471745E-5; -0.16292625142264106; -0.007850684331697302; 0.027757673076723634; 0.5029296875; -0.46484375; -0.259765625;0
31;2139308730; 0.9999989870120586; -0.00141189467343239; -1.7981458110341578E-4; -1.396439158853069E-5; -0.16148612432395246; -0.009719681983886345; 0.028053762787245; 0.50048828125; -0.4619140625; -0.260986328125;0
32;2139325397; 0.999999560480223; -9.317426668100648E-4; -9.188945974447639E-5; 4.95105115788097E-5; -0.16006625884545458; -0.00941089752626665; 0.028458779473049974; 0.503173828125; -0.4619140625; -0.259765625;0
33;2139342064; 0.9999998112653089; -6.063283742704373E-4; -5.011058778292554E-5; 8.558141217873684E-5; -0.1591990582088117; -0.008134007763994342; 0.027675211975520902; 0.503173828125; -0.46533203125; -0.26220703125;0
34;2139358731; 0.9999999305319136; -3.610479587677351E-4; -2.439382307378724E-5; 8.936151799755765E-5; -0.15993984945470033; -0.0062668820909438615; 0.02793149253855444; 0.5009765625; -0.461669921875; -0.259765625;0
35;2139375398; 0.9999998634547053; -5.069798760953259E-4; -1.0036723250550496E-4; 7.738471827219152E-5; -0.16040752098394115; -0.004707535663374143; 0.027194514472707428; 0.502197265625; -0.4599609375; -0.259033203125;0
36;2139392065; 0.999999847407376; -5.365742953861719E-4; -1.2995091204062728E-4; 1.964715512882409E-5; -0.16097122350734447; -0.005741428065038703; 0.027350221347462008; 0.500732421875; -0.462158203125; -0.262451171875;0
37;2139408732; 0.9999997998171655; -5.991488287627744E-4; -1.9883428929526326E-4; -4.302598371563882E-5; -0.16099686263273072; -0.006397964179187664; 0.027003244239890097; 0.50146484375; -0.45751953125; -0.259521484375;0
38;2139425399; 0.9999999490100162; -3.024549286863576E-4; -8.834589203815525E-5; -5.192287089794689E-5; -0.15936112232854896; -0.006583202138928702; 0.026090491577478534; 0.500732421875; -0.45849609375; -0.25732421875;0
39;2139442066; 0.9999999220096897; -3.658049202692193E-4; -9.716346264943E-5; -1.1281239463199756E-4; -0.16160466973399754; -0.006982409308223227; 0.026445451616950815; 0.50146484375; -0.45458984375; -0.258056640625;0
40;2139458733; 0.9999999693708467; -1.385390491262517E-4; -1.115534861675649E-4; -1.721076913471925E-4; -0.1615199489911939; -0.009159832255500855; 0.026740100316013846; 0.501708984375; -0.4580078125; -0.261962890625;0
41;2139475400; 0.999999919336379; 3.380679751861515E-4; -4.0500362516959765E-5; -2.1306571839828373E-4; -0.1614711870949274; -0.010130499210296412; 0.027387152077693412; 0.503662109375; -0.457275390625; -0.259033203125;0
42;2139492067; 0.9999996181301515; 8.592455821276879E-4; 5.822966762322746E-5; -1.4847857294759959E-4; -0.1636188655658828; -0.009964671583968219; 0.027540829952201473; 0.501953125; -0.45654296875; -0.2587890625;0
43;2139508734; 0.9999991805271489; 0.001276566584440475; 5.758076507009214E-5; -7.750639768679125E-5; -0.164260313404764; -0.00756891970928323; 0.028010373415959085; 0.500732421875; -0.458740234375; -0.259765625;0
44;2139525401; 0.9999990932074374; 0.0013466014739793586; 1.4588826298067572E-5; 5.9949252172869505E-6; -0.16352167941975856; -0.005124840734308968; 0.028744309597636186; 0.499267578125; -0.46142578125; -0.25732421875;0
45;2139542068; 0.9999992247925082; 0.0012427775865038182; -2.4085843945725882E-5; 7.306247391331012E-5; -0.163234031193388; -0.0042193798482651305; 0.02978458832637148; 0.501953125; -0.461181640625; -0.25830078125;0
46;2139558735; 0.9999994804501466; 0.0010132723443396774; -5.244249749111752E-5; 9.812429665440048E-5; -0.16241873196245696; -0.0025680091617803717; 0.03016488060281321; 0.501708984375; -0.464111328125; -0.256103515625;0
47;2139575402; 0.999999751760738; 6.907150023505171E-4; -6.408695112747333E-5; 1.2362892314538024E-4; -0.16167947461374085; -0.0012265419552576241; 0.030513068756596536; 0.502197265625; -0.4677734375; -0.260986328125;0
48;2139592069; 0.9999999458488333; 2.9980663890000203E-4; -8.409512385090802E-5; 1.0651910492052996E-4; -0.16144203484210912; -8.424897480777058E-4; 0.030571869714968353; 0.501220703125; -0.4677734375; -0.26220703125;0
49;2139608736; 0.9999999953863659; 5.2560152364378165E-5; -4.964444713401184E-5; 6.324656177226358E-5; -0.16097924861955148; -7.506305999514067E-4; 0.030762587718895045; 0.501220703125; -0.468994140625; -0.259765625;0
50;2139625403; 0.9999999894902185; -1.4302938283083932E-4; 2.811078993053551E-6; 2.3542650259222864E-5; -0.16045119798511234; -2.3570251576588742E-4; 0.030388737334084266; 0.499267578125; -0.465576171875; -0.26025390625;0
51;2139642070; 0.9999998832629643; -4.768637101141282E-4; 6.780698517194762E-5; -3.843530351331504E-5; -0.16175829394868949; 5.486323091360521E-4; 0.030021163706244993; 0.500732421875; -0.46728515625; -0.261962890625;0
52;2139658737; 0.9999997221672956; -7.405233976623959E-4; 5.724268611784212E-5; -6.335380063006435E-5; -0.16158382406948218; -2.900636757719611E-4; 0.029417602663828105; 0.49951171875; -0.466552734375; -0.258544921875;0
53;2139675404; 0.9999996605454583; -8.155441721170442E-4; 1.0484816937936237E-4; -5.2948399353852656E-5; -0.1616220223479282; -0.0015348771821149052; 0.02872958307799229; 0.501953125; -0.46435546875; -0.2607421875;0
54;2139692071; 0.9999996636696682; -8.1188892392553E-4; 1.0898944228585063E-4; -4.022719775199912E-5; -0.16257232445364828; -0.0022177742232799384; 0.02828868527361081; 0.501953125; -0.464111328125; -0.25830078125;0
55;2139708738; 0.9999997253821674; -7.363763023605641E-4; 8.314910064499693E-5; 8.471017934649773E-6; -0.16290743370217436; -0.003483124880533421; 0.02760093284275765; 0.50341796875; -0.465087890625; -0.25439453125;0
56;2139725405; 0.9999998347185982; -5.597673146911508E-4; 6.815830692993853E-5; 1.121506799122568E-4; -0.16264749400514256; -0.004312401826400462; 0.02692740554707904; 0.50048828125; -0.46337890625; -0.25634765625;0
57;2139742072; 0.9999998615553163; -4.887020992648261E-4; 5.80667519035627E-5; 1.8624676891200456E-4; -0.1627675383947248; -0.004317171349510098; 0.026615652738633838; 0.502685546875; -0.460693359375; -0.256103515625;0
58;2139758739; 0.9999998405373642; -5.371784727454809E-4; 2.0236382759775132E-5; 1.730751959917315E-4; -0.1630800693260647; -0.004596064273547806; 0.026505142508058147; 0.501953125; -0.463134765625; -0.257080078125;0
59;2139775406; 0.9999997832498705; -6.425626359547465E-4; 9.47360406655662E-6; 1.432610271678986E-4; -0.16326029281386473; -0.004881100446928917; 0.026902419146326715; 0.503173828125; -0.458740234375; -0.257080078125;0
60;2139792073; 0.9999997596009589; -6.834485244984756E-4; 3.042292661775692E-5; 1.1300701035840688E-4; -0.1631024737414374; -0.005598969527511648; 0.026833697233922014; 0.50244140625; -0.462646484375; -0.256591796875;0
61;2139808740; 0.9999997794853788; -6.452737810231368E-4; 9.494792256817264E-5; 1.2504332596000037E-4; -0.16319921527388007; -0.005889049666001716; 0.02668820212640998; 0.501708984375; -0.460205078125; -0.257080078125;0
62;2139825407; 0.999999835706482; -5.482622540772253E-4; 1.406812502831312E-4; 9.057756737891609E-5; -0.16333781137499287; -0.006133023711643398; 0.02741573098649302; 0.501953125; -0.457275390625; -0.2568359375;0
63;2139842074; 0.9999997844685322; -6.409208083406059E-4; 1.3488238189360294E-4; 4.5718155818025303E-5; -0.1628903466484694; -0.004822462207538134; 0.02759188676445642; 0.5029296875; -0.460693359375; -0.25439453125;0
64;2139858741; 0.9999997500522252; -6.944427937735087E-4; 1.3283310841258336E-4; -2.420531153013439E-7; -0.16281521578614722; -0.005035547374897581; 0.0280401797132809; 0.50341796875; -0.458740234375; -0.255615234375;0
65;2139875408; 0.9999997444022409; -6.993853485442458E-4; 1.3593510868400993E-4; -5.9809976966945795E-5; -0.16305793280200237; -0.004527301221025563; 0.028353580034942514; 0.50244140625; -0.46044921875; -0.255126953125;0
66;2139892075; 0.9999997207638567; -7.335050875700855E-4; 1.0364124056536085E-4; -9.84935963323913E-5; -0.16248226810369107; -0.004075280696022109; 0.028288273815692922; 0.50390625; -0.45703125; -0.253662109375;0
67;2139908742; 0.9999998055088648; -6.148015136049345E-4; 9.212185301543664E-5; -5.014873520255148E-5; -0.16213805411337956; -0.005073615204643143; 0.027963367489639148; 0.50146484375; -0.455810546875; -0.25244140625;0
68;2139925409; 0.9999998908583513; -4.580244791694277E-4; 9.217481371420756E-5; 8.159049798700524E-7; -0.162449224514094; -0.005865420954237909; 0.02739034241887099; 0.50390625; -0.453857421875; -0.255615234375;0
69;2139942076; 0.9999999602100538; -2.712707598666042E-4; 4.572015908746452E-5; 6.246385116669141E-5; -0.16270603314755738; -0.006152664308464131; 0.027122101637372796; 0.50244140625; -0.45361328125; -0.2509765625;0
70;2139958743; 0.9999999820970219; -1.621955783273621E-4; 5.943240817429808E-6; 9.72791237303372E-5; -0.16239560027934968; -0.004966736384239431; 0.026431819525856062; 0.503173828125; -0.453125; -0.25048828125;0
71;2139975410; 0.9999999793893595; -1.5891190336564387E-4; -5.538498553814276E-5; 1.1358164896303759E-4; -0.16301125357549437; -0.0037489508720017686; 0.02608101744668082; 0.5048828125; -0.45703125; -0.253662109375;0
72;2139992077; 0.9999999655887953; -1.9629958328193364E-4; -1.0330527155483217E-4; 1.4006035381758375E-4; -0.16292564039738866; -0.0038223827105238212; 0.025801941693643908; 0.505615234375; -0.4541015625; -0.251953125;0
73;2140008744; 0.9999999714863238; -1.2411763163966416E-4; -1.4938391794702688E-4; 1.389482288533528E-4; -0.16403470907420659; -0.004229654264760213; 0.026234425833722225; 0.505859375; -0.45166015625; -0.251220703125;0
74;2140025411; 0.9999999661430319; -4.560926000957144E-5; -1.605249254327257E-4; 1.99663413493964E-4; -0.16396635933352438; -0.005090036964506278; 0.026093028782036853; 0.50439453125; -0.455810546875; -0.249755859375;0
75;2140042078; 0.999999948627883; 1.2971218616830704E-4; -1.5840757001356345E-4; 2.4662932069971505E-4; -0.16362699238946918; -0.005615382410965607; 0.026403058727688385; 0.503662109375; -0.456298828125; -0.251708984375;0
76;2140058745; 0.9999999222919608; 2.2537427106789076E-4; -1.7567614006841484E-4; 2.7158866707696627E-4; -0.1634613268435352; -0.005344177547691096; 0.026487436053786697; 0.505615234375; -0.455078125; -0.25634765625;0
77;2140075412; 0.9999998952440677; 2.4304855212359255E-4; -2.2601803306890322E-4; 3.1520644594487673E-4; -0.1624544766876516; -0.005039200308981568; 0.026425790504018314; 0.502685546875; -0.4580078125; -0.25390625;0
78;2140092079; 0.9999998836417427; 2.557673194149013E-4; -2.514659434743883E-4; 3.2259023319194946E-4; -0.1621902130386907; -0.00618913067630646; 0.026540877619394405; 0.501953125; -0.457275390625; -0.25390625;0
79;2140108746; 0.9999998472825266; 3.939901178706129E-4; -2.717422125131375E-4; 2.763383439440687E-4; -0.16353295594780146; -0.007040559208530034; 0.026719683976244416; 0.503173828125; -0.45654296875; -0.255859375;0
80;2140125413; 0.9999997438884362; 6.146271773108669E-4; -2.821414990261673E-4; 2.342064675237565E-4; -0.16368937897054883; -0.007053298165203937; 0.026408110588771686; 0.502197265625; -0.45947265625; -0.255615234375;0
81;2140142080; 0.9999996438451202; 7.644011216007551E-4; -2.913234272707843E-4; 2.076805688748032E-4; -0.1639155831476978; -0.006419700136074553; 0.026488021195674068; 0.50390625; -0.461669921875; -0.257568359375;0
82;2140158747; 0.9999995842007908; 8.498172287396133E-4; -2.732531595268373E-4; 1.8639107790228981E-4; -0.16363099060287026; -0.005948823827269162; 0.02635234847275187; 0.50146484375; -0.4619140625; -0.256591796875;0
83;2140175414; 0.9999995729578961; 8.664442317853904E-4; -2.7432936063581664E-4; 1.6763597645384073E-4; -0.16314761969047686; -0.0055901605068343595; 0.025995768690245107; 0.50244140625; -0.461669921875; -0.259033203125;0
84;2140192081; 0.9999994834774624; 9.719353215613125E-4; -2.4699217937942946E-4; 1.6547326811044288E-4; -0.16220070828660246; -0.0058296641184509765; 0.026395774998590284; 0.4990234375; -0.462646484375; -0.259033203125;0
85;2140208748; 0.9999993127764619; 0.001131286647834795; -2.3776795921903737E-4; 1.9520123431623212E-4; -0.16114383140119812; -0.006000077994888952; 0.026469782297065633; 0.502197265625; -0.46533203125; -0.263427734375;0
86;2140225415; 0.9999990286887056; 0.0013531196601141993; -2.1386570383225004E-4; 2.5680788828104373E-4; -0.16036429441117447; -0.005150295279499353; 0.02722412353337352; 0.501953125; -0.46875; -0.263671875;0
87;2140242082; 0.9999988593771288; 0.0014659993471765054; -2.028966806133237E-4; 3.0153489413398826E-4; -0.16071232698655427; -0.00364107266857526; 0.02705336403229676; 0.499755859375; -0.4697265625; -0.262451171875;0
88;2140258749; 0.9999988797438807; 0.001446883757932338; -2.318310358692122E-4; 3.054386117646857E-4; -0.16162742020266774; -0.0024484352962942917; 0.027382716867764438; 0.49853515625; -0.4736328125; -0.261962890625;0
89;2140275416; 0.9999988370900856; 0.0014686634985398572; -2.7478249198870097E-4; 3.055169168126246E-4; -0.1625247228907806; -0.002258292786703694; 0.02739653247500876; 0.4990234375; -0.4716796875; -0.26611328125;0
90;2140292083; 0.9999987500762305; 0.0015243038243378249; -2.9616411431371287E-4; 2.9770899417032315E-4; -0.16308190382946236; -0.0027398269226843984; 0.027915861244833265; 0.5; -0.477783203125; -0.265625;0
91;2140308750; 0.999998450772209; 0.0017123778912292442; -2.3976944570361372E-4; 3.2973588331961656E-4; -0.1631096982097573; -0.0023072287202336676; 0.02819663137015965; 0.498046875; -0.48193359375; -0.267333984375;0
92;2140325417; 0.9999985719042458; 0.0016496131061872754; -1.892798860227696E-4; 3.1486377017473505E-4; -0.16361933905760467; -5.038734738880314E-4; 0.029202673930021145; 0.49755859375; -0.48486328125; -0.266845703125;0
93;2140342084; 0.9999989435382082; 0.001410099719748037; -2.0328030512686834E-4; 2.8847593572681884E-4; -0.16364509025332086; -6.815828512511408E-4; 0.03025590945632665; 0.498779296875; -0.486083984375; -0.267822265625;0
94;2140358751; 0.9999991698129954; 0.0012451640851071089; -2.1195450885055925E-4; 2.549804057336638E-4; -0.16326275689957104; -0.0016151301334491885; 0.030880109129680273; 0.49853515625; -0.4912109375; -0.267578125;0
95;2140375418; 0.999999355748523; 0.0010903536218923038; -2.2377635928327869E-4; 2.226110046310362E-4; -0.1627175761417824; -9.690590352201441E-4; 0.0309734905287063; 0.496337890625; -0.494140625; -0.27001953125;0
96;2140392085; 0.999999609362796; 8.196422519695101E-4; -2.3078507468904388E-4; 2.3706345911886362E-4; -0.16276461452198138; -0.0016099819228968804; 0.031580051469975064; 0.497802734375; -0.49267578125; -0.270263671875;0
97;2140408752; 0.9999996904783638; 7.214441350232859E-4; -2.376507798750871E-4; 2.0514298322674848E-4; -0.16283805917690158; -0.0011040225789047883; 0.031167772429702548; 0.49609375; -0.49462890625; -0.26904296875;0
98;2140425419; 0.9999999088153467; 3.037211841381837E-4; -2.7000429368359563E-4; 1.3122660545171472E-4; -0.16297277939964927; 1.5043539522427082E-4; 0.03066683588641709; 0.496826171875; -0.493896484375; -0.26904296875;0
99;2140442086; 0.9999999469343773; -1.000887754341595E-4; -3.0683496777797475E-4; 4.4337143494915805E-5; -0.16330610031556325; -8.863278635399107E-4; 0.029682240530297065; 0.4951171875; -0.4931640625; -0.271728515625;0
100;2140458753; 0.9999999383915182; -1.6428868565743215E-4; -3.0879180812148915E-4; 2.9560222979223283E-5; -0.16237925615230134; -0.002941425565199966; 0.028363262150721037; 0.494873046875; -0.493408203125; -0.269775390625;0
101;2140475420; 0.9999999704755822; 4.197879037493024E-5; -2.3738090153965774E-4; 3.06092069198502E-5; -0.16265271872911896; -0.003391633030461111; 0.027783059138565817; 0.493896484375; -0.49169921875; -0.273193359375;0
102;2140492087; 0.9999999696106302; 1.3723462916731544E-4; -2.0452270575563317E-4; 1.0763735464630608E-5; -0.1631024633532957; -0.0025509314161515553; 0.02735017108987287; 0.4951171875; -0.4912109375; -0.27294921875;0
103;2140508754; 0.9999999744153854; 2.257888023082799E-5; -2.225006740765312E-4; -3.395398071914802E-5; -0.16242933005304439; -0.00268766662470892; 0.027237003152623847; 0.492431640625; -0.4931640625; -0.27294921875;0
104;2140525421; 0.9999999698507556; -1.75230204240151E-5; -2.1000006090013404E-4; -1.260611204150358E-4; -0.16223861820212993; -0.004100764945264302; 0.026958634159428615; 0.492919921875; -0.494384765625; -0.270263671875;0
105;2140542088; 0.9999999713906447; 6.639438915606588E-5; -1.1643588243528957E-4; -1.981241535691514E-4; -0.16135535761835118; -0.004900887311243166; 0.027116909819287348; 0.491943359375; -0.49462890625; -0.27099609375;0
106;2140558755; 0.9999999623052489; 1.2053162862163402E-4; -2.2898366737300616E-5; -2.4563650388959024E-4; -0.16025093686846664; -0.004807832538799123; 0.02755982104692868; 0.494140625; -0.49267578125; -0.272705078125;0
107;2140575422; 0.9999999501034006; 1.920446673898124E-4; 7.808173769269235E-5; -2.3835956962059426E-4; -0.1594689532171327; -0.005125767688503025; 0.02798465382382773; 0.493896484375; -0.4931640625; -0.271484375;0
108;2140592089; 0.9999999069931154; 3.12007737173714E-4; 1.436793349512411E-4; -2.60808706438187E-4; -0.1587269511146926; -0.005622576391338698; 0.028418564806365888; 0.494873046875; -0.49169921875; -0.268798828125;0
109;2140608756; 0.9999997861890993; 5.663883491957566E-4; 1.8455525650465376E-4; -2.6975053435988194E-4; -0.15869118326940176; -0.005913782425168148; 0.02888489102566521; 0.49609375; -0.4912109375; -0.271728515625;0
110;2140625423; 0.9999996354925511; 7.356096775284482E-4; 3.084222800997794E-4; -3.045798164248159E-4; -0.16018301678481137; -0.0029543798614564964; 0.02903340195648216; 0.4951171875; -0.4931640625; -0.268798828125;0
111;2140642090; 0.9999996342150808; 6.958576097893521E-4; 3.586100838967599E-4; -3.4460223362899755E-4; -0.16091886746863676; -6.76216381357066E-4; 0.02931730877164447; 0.498046875; -0.493408203125; -0.268798828125;0
112;2140658757; 0.9999996762570266; 6.225236137564205E-4; 3.3660509732205696E-4; -3.8294542826657063E-4; -0.1614592874661085; -6.528833986447855E-4; 0.030039110455516695; 0.495361328125; -0.49658203125; -0.26904296875;0
113;2140675424; 0.9999995605720233; 8.209250751466945E-4; 3.58385581862547E-4; -2.765819154714744E-4; -0.16046045919737598; -0.0014158261000772974; 0.030309243542859698; 0.498779296875; -0.496826171875; -0.265869140625;0
114;2140692091; 0.9999993093551934; 0.0010836139220564145; 4.370035819997176E-4; -1.268773952032634E-4; -0.16003348805363452; -4.062951510066769E-4; 0.029732328141229877; 0.49951171875; -0.49853515625; -0.26416015625;0
115;2140708758; 0.9999992668966872; 0.0011174914597469332; 4.638773029678745E-4; -4.729453893826536E-5; -0.16180233783969147; -6.126514233649981E-5; 0.029685831853532293; 0.497314453125; -0.501953125; -0.263916015625;0
116;2140725425; 0.9999992102567672; 0.0011928090272620984; 3.9584396072886446E-4; -1.5807931821182342E-7; -0.1634911331207057; -0.0014160168632259204; 0.02957295998189058; 0.496337890625; -0.504638671875; -0.26123046875;0
117;2140742092; 0.9999990039466291; 0.001328790592598439; 4.7310178461748564E-4; 5.095107658322635E-5; -0.16432901228624375; 0.0010454779605463104; 0.02892271712714919; 0.4990234375; -0.504638671875; -0.260009765625;0
118;2140758759; 0.9999992167642826; 0.001159191461212239; 4.654076288368448E-4; 7.836910543482928E-5; -0.16566154946771935; 0.0013995158840182723; 0.029809489904048785; 0.497802734375; -0.50830078125; -0.262451171875;0
119;2140775426; 0.9999993693766942; 0.0010315170931514128; 4.4210066978991885E-4; 4.2020210785496954E-5; -0.1658398447310081; 0.0015698948616380028; 0.03109915972725662; 0.498779296875; -0.510498046875; -0.26318359375;0
120;2140792093; 0.9999995919470739; 7.797499624013216E-4; 4.561588979489773E-4; 3.839471742810019E-6; -0.16453624209787054; 0.0026926035992622128; 0.03208995858625109; 0.498046875; -0.5126953125; -0.2578125;0
121;2140808760; 0.9999998256376392; 3.366889848268051E-4; 4.782398758314266E-4; -8.155881146725692E-5; -0.16369492039819722; 0.0036679264103027416; 0.03319741085160639; 0.49853515625; -0.515625; -0.25927734375;0
122;2140825427; 0.9999998319012301; -2.7326190605764245E-4; 4.958730384653222E-4; -1.2504148091822126E-4; -0.16399239421019235; 0.004387778692658325; 0.03355626185924433; 0.501220703125; -0.513671875; -0.256103515625;0
123;2140842094; 0.9999994984636315; -9.012985683342634E-4; 4.0019700585228196E-4; -1.748591799042715E-4; -0.16305970513991908; 0.004434664503241214; 0.03387380030696163; 0.49853515625; -0.51220703125; -0.255859375;0
124;2140858761; 0.9999989909815056; -0.0013854036548571758; 2.860220016605853E-4; -1.2993882532098822E-4; -0.16275825050859127; 0.002826719697664298; 0.03253205119703105; 0.49951171875; -0.511962890625; -0.255126953125;0
125;2140875428; 0.9999989703215998; -0.001424193149537567; 1.7044383555608889E-4; -4.448046711966192E-5; -0.16376566938412462; 5.8463935636624E-4; 0.03130215456748943; 0.49658203125; -0.506591796875; -0.25537109375;0
126;2140892095; 0.9999991499946468; -0.0012993478820744753; 9.991155366650963E-5; 4.150598350625978E-5; -0.16382507376077593; 4.6457517279325025E-5; 0.028999211700397806; 0.50244140625; -0.507080078125; -0.255126953125;0
127;2140908762; 0.9999991683639604; -0.0012865046751388554; 6.942291834935445E-5; 5.794451501359849E-5; -0.1638921955452383; 5.374033208594923E-4; 0.026713014008626506; 0.501220703125; -0.50341796875; -0.255126953125;0
128;2140925429; 0.9999990435448991; -0.001378561853461635; 1.0597967844644397E-4; 3.528187980925135E-5; -0.16323673155462484; 0.001296977986706584; 0.025621917458700627; 0.5009765625; -0.505126953125; -0.253173828125;0
129;2140942096; 0.9999987084485634; -0.0016030022094163932; 1.159477928345809E-4; -6.421135007227131E-6; -0.16267486526255043; 0.0012270608601601587; 0.025436920728434655; 0.502197265625; -0.501953125; -0.250732421875;0
130;2140958763; 0.9999985088410315; -0.001720778281483315; 1.399585981192442E-4; -4.061293132286842E-5; -0.1619168101624595; 2.2869115772180225E-4; 0.025499643371218676; 0.503662109375; -0.50048828125; -0.247802734375;0
131;2140975430; 0.9999985273730918; -0.0017070541042541465; 1.7268189566729822E-4; -3.7401814973102305E-5; -0.16113224792333683; -9.312649095119512E-4; 0.025978215475438573; 0.5048828125; -0.494140625; -0.250732421875;0
132;2140992097; 0.999998720603198; -0.0015891030303344378; 1.8178119536085838E-4; 2.2341060048738925E-5; -0.16050157097505582; -0.0022706148933481947; 0.026215493517375392; 0.505615234375; -0.49169921875; -0.246826171875;0
133;2141008764; 0.9999991254735753; -0.001303091036155779; 1.8796933341305722E-4; 1.251933141835013E-4; -0.16046779669073763; -0.0035085773631839765; 0.02612144661698157; 0.503662109375; -0.494140625; -0.25048828125;0
134;2141025431; 0.999999374775086; -0.0010825323594680913; 1.4169716557307924E-4; 2.4185748043676486E-4; -0.16083447413340934; -0.003441402836206569; 0.02634224123119291; 0.50244140625; -0.49169921875; -0.247802734375;0
135;2141042098; 0.9999995876781583; -8.132259010283915E-4; 7.700665803439534E-5; 3.967078544303074E-4; -0.1607983351313659; -0.0037525267107124914; 0.025805756932788953; 0.50390625; -0.49169921875; -0.246826171875;0
136;2141058765; 0.9999996654896273; -6.190213383892584E-4; 1.781561288446976E-5; 5.343368039491536E-4; -0.16121303491532957; -0.0038247667017532686; 0.02550684251779372; 0.504638671875; -0.4931640625; -0.248046875;0
137;2141075432; 0.9999997000011074; -4.405655084282478E-4; -5.0198126091915984E-5; 6.351219380141758E-4; -0.1618962254507719; -0.0038631462430370016; 0.025721402951139227; 0.501953125; -0.49169921875; -0.249267578125;0
138;2141092099; 0.999999688514458; -2.8441117795308113E-4; -1.1783454264538419E-4; 7.267711396536786E-4; -0.16314777703245628; -0.003345920937789919; 0.02594921962699725; 0.505126953125; -0.489990234375; -0.249267578125;0
139;2141108766; 0.999999619073567; -1.80199205714493E-4; -1.9227559675036313E-4; 8.321124094941222E-4; -0.16473053891758319; -0.0025562847627366384; 0.02599193259435824; 0.502197265625; -0.491943359375; -0.250244140625;0
140;2141125433; 0.9999995545127002; -9.30660369712899E-5; -2.7507677391888646E-4; 8.981346682329361E-4; -0.16686474601818654; -0.00300612644686136; 0.02602324264084056; 0.50390625; -0.4921875; -0.253173828125;0
141;2141142100; 0.9999994424127738; 8.848773237324359E-5; -3.4914754418780003E-4; 9.92693333784503E-4; -0.16789911062171547; -0.003269239626633431; 0.02584917858375386; 0.50146484375; -0.496826171875; -0.25244140625;0
142;2141158767; 0.9999993293605844; 2.348506376369519E-4; -4.4114195708394593E-4; 0.0010447570689742919; -0.16851003169215906; -0.0024605450262758927; 0.025836714522704012; 0.50048828125; -0.49853515625; -0.254638671875;0
143;2141175434; 0.9999992926173453; 1.422216773591667E-4; -5.767180398529305E-4; 0.0010305018709736785; -0.16720286160476594; -0.0012358760066847642; 0.025996612584789785; 0.502197265625; -0.50048828125; -0.25537109375;0
144;2141192101; 0.9999993210308336; -1.0793674359149685E-4; -6.705393977273489E-4; 9.469236755664107E-4; -0.16575818670842002; -2.3032129751811292E-4; 0.026507836209800652; 0.499267578125; -0.497314453125; -0.261962890625;0
145;2141208768; 0.9999992934767623; -4.091818853727003E-4; -7.090361283730029E-4; 8.619071466631213E-4; -0.16387301573218407; 1.0092757885224804E-5; 0.026095821364322182; 0.497802734375; -0.501220703125; -0.260986328125;0
146;2141225435; 0.9999993177221428; -6.864241333204291E-4; -5.971482805145202E-4; 7.326602821199971E-4; -0.16198745312746649; 2.2526650197031602E-4; 0.026278047100785747; 0.497314453125; -0.498291015625; -0.2626953125;0
147;2141242102; 0.9999992180060128; -0.001001696809069863; -4.454944152046392E-4; 6.017687193740976E-4; -0.16031044321091417; 0.0010158263962334897; 0.0264286076647214; 0.49755859375; -0.497314453125; -0.262939453125;0
148;2141258769; 0.9999987480234692; -0.0014997010476568984; -2.974946003249102E-4; 4.0785441564143016E-4; -0.1587341247551995; 0.0017395660948030679; 0.027011972454723483; 0.495849609375; -0.49560546875; -0.26806640625;0
149;2141275436; 0.9999982480531675; -0.0018553000611486459; -1.5238990585322854E-4; 1.9628957009237838E-4; -0.158824959622889; 9.128538085302756E-4; 0.02740125598420855; 0.496826171875; -0.492919921875; -0.2646484375;0
150;2141292103; 0.999997985930877; -0.002007001809615605; -8.798338748366998E-6; 7.175885858856645E-7; -0.16036270192134958; 2.1759173262243976E-4; 0.027700028058323455; 0.497314453125; -0.491455078125; -0.2666015625;0
151;2141308770; 0.9999980325079872; -0.0019767065092393676; 8.40660345334532E-5; -1.433332921050093E-4; -0.16146752958137167; -5.049639608825148E-4; 0.02820663380789772; 0.498046875; -0.48828125; -0.265625;0
152;2141325437; 0.9999983754083412; -0.0017860707693513334; 1.569238490865821E-4; -1.8576003497192128E-4; -0.16302417134537545; -3.4936499896095173E-4; 0.028573342277608032; 0.50048828125; -0.487548828125; -0.26318359375;0
153;2141342104; 0.9999987126745538; -0.0015875240513983924; 1.7366784202255126E-4; -1.5574370697773318E-4; -0.1642876583543411; 2.0673412014677976E-4; 0.0283462806128823; 0.496337890625; -0.483154296875; -0.2626953125;0
154;2141358771; 0.9999988368324613; -0.0015150400226929817; 1.4277923329103495E-4; -1.0296380247529907E-4; -0.16510271145447025; 0.0010663247811856028; 0.027993863151446547; 0.49853515625; -0.48095703125; -0.262939453125;0
155;2141375438; 0.9999986383134035; -0.0016465470174009678; 9.348370674577834E-5; -5.928789815778241E-5; -0.16601654865918455; 0.001550680175552141; 0.02752965114789215; 0.501953125; -0.477783203125; -0.26416015625;0
156;2141392105; 0.9999981272198437; -0.0019351187998420394; 1.4150782542271536E-5; -2.5918935456364922E-5; -0.16616804484982825; 0.0017034653065363583; 0.027442582139217; 0.5; -0.478271484375; -0.259765625;0
157;2141408772; 0.9999974836875926; -0.0022422140867331963; -7.133386065674707E-5; 2.4398058796684667E-6; -0.1648336514102664; 2.7604303997592894E-4; 0.026753607908569923; 0.5009765625; -0.475830078125; -0.260498046875;0
158;2141425439; 0.9999972294695294; -0.002351003164470511; -1.0946172139336686E-4; 4.3075718401529295E-5; -0.1639492014908662; -0.0026750545833252523; 0.0263309514849043; 0.500244140625; -0.47021484375; -0.26171875;0
159;2141442106; 0.9999976001870096; -0.0021870024651676756; -9.042683858220825E-5; 9.199688028649346E-5; -0.16276550994082462; -0.004735003092660207; 0.025872400376886717; 0.499755859375; -0.466552734375; -0.2568359375;0
160;2141458773; 0.9999982277158863; -0.0018745922909142454; -8.344597737855454E-5; 1.533153552335173E-4; -0.16168448111628908; -0.005832529766462001; 0.025852613790655635; 0.502197265625; -0.463134765625; -0.258544921875;0
161;2141475440; 0.9999988129149225; -0.001526747209030288; -7.711373047439296E-5; 1.9304190723019174E-4; -0.1611241629143973; -0.005685650265321713; 0.025948713613274808; 0.500732421875; -0.465087890625; -0.258544921875;0
162;2141492107; 0.9999991265686452; -0.0013011521948568805; -9.847294119366691E-5; 2.101618241604139E-4; -0.16144636711964966; -0.004867126547172817; 0.025249558247159406; 0.501953125; -0.462890625; -0.257568359375;0
163;2141508774; 0.9999993403512535; -0.0011157228060529878; -1.602815382875378E-4; 2.2083819079245923E-4; -0.1617124693181211; -0.004512713766512778; 0.02465432614738972; 0.501953125; -0.458740234375; -0.260009765625;0
164;2141525441; 0.9999995796332017; -8.655731256409505E-4; -1.9621128010646752E-4; 2.3025576598682124E-4; -0.16234659963450765; -0.004982171791135052; 0.024379405433778836; 0.50048828125; -0.45703125; -0.263671875;0
165;2141542108; 0.9999998066315537; -4.999401861640607E-4; -2.3897587561549916E-4; 2.8228920691571185E-4; -0.1629816584766191; -0.004748048094735597; 0.02464498481438674; 0.4990234375; -0.456298828125; -0.258544921875;0
166;2141558775; 0.9999998892629175; -2.2417418173875658E-4; -2.3952337788868408E-4; 3.374146418925056E-4; -0.1630268220622872; -0.003673911382712317; 0.024856964559608046; 0.499755859375; -0.45751953125; -0.259521484375;0
167;2141575442; 0.9999998968730357; -1.1314058229239254E-4; -2.544476410629993E-4; 3.5876109670254097E-4; -0.163237545059134; -0.002732618788131469; 0.025527854785258437; 0.5; -0.4580078125; -0.261474609375;0
168;2141592109; 0.9999998977073352; -1.0753558155696119E-4; -2.6727617613664384E-4; 3.486902112960419E-4; -0.16335808855416228; -0.002057326368248468; 0.02564297637061385; 0.5; -0.46044921875; -0.2626953125;0
169;2141608776; 0.9999999090700298; -4.600104573887487E-5; -2.577351720090826E-4; 3.366250390262824E-4; -0.16253979353179557; -0.002344658477489065; 0.02577169456176266; 0.49853515625; -0.458984375; -0.263916015625;0
170;2141625443; 0.9999999264339017; 2.9562426641482897E-5; -2.2628775421934535E-4; 3.083052164967043E-4; -0.16304707171343533; -0.002609036315426092; 0.026401049238798855; 0.5; -0.460693359375; -0.263427734375;0
171;2141642110; 0.9999999263405756; 7.593435662978099E-5; -2.5204833624226103E-4; 2.793285756580236E-4; -0.16300121126733721; -0.0023159806268148; 0.026722904820943156; 0.5009765625; -0.457763671875; -0.266845703125;0
172;2141658777; 0.9999999267941561; 7.763274354344318E-5; -2.8770735926170193E-4; 2.40019405584678E-4; -0.16316432113224377; -0.002201405994996044; 0.027009185741466882; 0.498046875; -0.45947265625; -0.264404296875;0
173;2141675444; 0.9999999317239604; 6.501079289294998E-5; -3.14436020004083E-4; 1.8290888610726644E-4; -0.1633399416300857; -0.002062314482405486; 0.026763246305183445; 0.497314453125; -0.4609375; -0.26416015625;0
174;2141692111; 0.9999999312712006; 1.5758272504601267E-4; -3.148833382407013E-4; 1.1607653630266168E-4; -0.1636566692314074; -0.002808333249639307; 0.026848016191116; 0.49658203125; -0.45947265625; -0.265380859375;0
175;2141708778; 0.9999999103430562; 3.160385368567997E-4; -2.795486357864419E-4; 3.5861996604186215E-5; -0.16347013212835476; -0.0026255609284315876; 0.026712762682343804; 0.500732421875; -0.459228515625; -0.263916015625;0
176;2141725445; 0.99999991257287; 3.50537957224506E-4; -2.2741132897355357E-4; -1.617034851782856E-5; -0.16349131190334049; -0.0015832942191615958; 0.026938489985339074; 0.500244140625; -0.458984375; -0.263916015625;0
177;2141742112; 0.9999999239945351; 3.147354961091642E-4; -2.2261937938922172E-4; -5.825035190920592E-5; -0.163174836217332; -0.0013099374677979503; 0.0264461015179512; 0.49755859375; -0.45947265625; -0.265625;0
178;2141758779; 0.9999999451212455; 2.458209489930585E-4; -1.9397928462969174E-4; -1.0817395332438778E-4; -0.16218902633164606; -0.001248305031680514; 0.026085299830803522; 0.498779296875; -0.464111328125; -0.268310546875;0
179;2141775446; 0.9999999745545308; 1.2200257258559999E-4; -4.731355216686107E-5; -1.8376000021810837E-4; -0.1613198274026838; 4.474550646660722E-4; 0.025126554577708828; 0.49853515625; -0.4580078125; -0.26904296875;0
180;2141792113; 0.9999999574363074; -3.689590198163728E-5; -5.7890995084353145E-6; -2.893657930753829E-4; -0.16314258667322573; 5.278214705442142E-4; 0.02624021959573461; 0.49853515625; -0.459716796875; -0.266845703125;0
181;2141808780; 0.999999862460696; -3.0043595218626207E-4; -1.6872880002388735E-4; -3.954079155398458E-4; -0.16427865702644012; -0.001572956993712132; 0.027307467738688664; 0.499267578125; -0.461181640625; -0.265625;0
182;2141825447; 0.9999999036303362; -7.946990176177504E-5; -1.60860602014451E-4; -4.0068406472885953E-4; -0.16350626135737503; -0.002741990016776911; 0.02767863915501616; 0.49951171875; -0.4580078125; -0.267822265625;0
183;2141842114; 0.9999999069321032; 1.9675449879896778E-4; -9.74441112176483E-5; -3.7138672207504003E-4; -0.16437888529198103; -0.0038427956744591374; 0.029909093165960316; 0.4970703125; -0.459228515625; -0.26806640625;0
184;2141858781; 0.999999830900543; 5.062761940309857E-4; -6.494765529918568E-5; -2.7868459381803073E-4; -0.1639156506719797; -0.003869263096432235; 0.029967089714928515; 0.498046875; -0.458984375; -0.270263671875;0
185;2141875448; 0.9999994903455857; 9.793187284869997E-4; -2.756847969825893E-5; -2.4389213949818636E-4; -0.16384633212006797; -0.003834899123574176; 0.029916411460979075; 0.497802734375; -0.457275390625; -0.267333984375;0
186;2141892115; 0.9999995729435883; 8.176854142092349E-4; -2.677299454062754E-4; -3.3737794908481056E-4; -0.164747057012161; -0.0015507484315012976; 0.03201230655422164; 0.498291015625; -0.462158203125; -0.26513671875;0
187;2141908782; 0.9999996123125593; -5.342513922945713E-5; -6.862194984375015E-4; -5.492024085847481E-4; -0.1646920694692598; -1.0826040629991103E-4; 0.03241611060525273; 0.498779296875; -0.46142578125; -0.266845703125;0
188;2141925449; 0.9999993140912924; -3.298966936864933E-4; -7.83276387707227E-4; -8.058928072722446E-4; -0.1608640821471653; -0.005001365509262622; 0.03233893676693544; 0.50048828125; -0.45947265625; -0.26806640625;0
189;2141942116; 0.9999992321990151; -4.3388474953454104E-4; -7.8213802454008E-4; -8.576744807641952E-4; -0.1619232127512168; -0.008634916914319486; 0.03208322253911541; 0.496337890625; -0.4521484375; -0.26904296875;0
190;2141958783; 0.9999985481841952; -5.253072098961864E-4; -8.51777460679798E-4; -0.0013791870773892517; -0.16103795158996262; -0.010586364129143329; 0.0340589999244863; 0.4990234375; -0.452392578125; -0.265625;0
191;2141975450; 0.9999974483089976; -8.436495442265546E-5; -9.97979278889727E-4; -0.0020249186173753185; -0.16346216829382673; -0.011049517826726814; 0.03748895605157216; 0.495849609375; -0.44775390625; -0.269287109375;0
192;2141992117; 0.9999976671878367; 7.629278957227426E-4; -7.579566869376776E-4; -0.0018732489347286774; -0.16459128353002106; -0.006339426619120236; 0.03380911145129071; 0.498779296875; -0.444580078125; -0.26708984375;0
193;2142008784; 0.9999984316580389; 0.0010448454166906984; -4.317262884209194E-4; -0.0013633018483049308; -0.16153993384559776; 0.0016332219782666801; 0.029806976203493853; 0.497802734375; -0.4423828125; -0.26708984375;0
194;2142025451; 0.9999990831800059; 4.54855570050372E-4; -3.964372001713235E-4; -0.0012122636282625374; -0.16252594426523692; 0.003537462677685947; 0.027291719241801946; 0.49755859375; -0.43994140625; -0.264404296875;0
195;2142042118; 0.9999988413426477; -5.10942611796017E-4; -3.5314461343818887E-4; -0.0013897985075429153; -0.16501684560704588; 0.0014721673405876275; 0.02758066464963296; 0.497802734375; -0.4384765625; -0.267822265625;0
196;2142058785; 0.9999974423331073; -0.001529134442583735; -7.995782744608938E-4; -0.0014621045391500428; -0.16641856418640488; -0.001042143638276035; 0.030857777299508563; 0.4990234375; -0.435791015625; -0.262939453125;0
197;2142075452; 0.9999973732583577; -0.0014883323652234992; -0.0010966341056386497; -0.0013548936467231017; -0.1643014745938761; -0.01059535635130413; 0.031512411632092445; 0.499267578125; -0.429443359375; -0.265625;0
198;2142092119; 0.9999982541733349; -5.752193383717907E-5; -9.843555183487176E-4; -0.0015872572957763356; -0.16211857332647492; -0.02056612492981706; 0.033675497272957225; 0.496826171875; -0.426025390625; -0.263427734375;0
199;2142108786; 0.9999968711423622; 0.001708657565241245; -7.245324370625806E-4; -0.0016772738470924172; -0.16137138542079998; -0.016968525061228954; 0.03372183186984961; 0.498046875; -0.423583984375; -0.264404296875;0
200;2142125453; 0.9999957065281823; 0.0026017777037189993; -4.189515138099121E-4; -0.0012814669761861755; -0.16189558656415445; -0.005968466095466814; 0.030475045715093012; 0.49951171875; -0.426025390625; -0.26220703125;0
201;2142142120; 0.9999973605261484; 0.0019896824017821557; -3.3508329129391945E-4; -0.0010990104022572946; -0.16194686907440514; -1.985875596648562E-4; 0.02888182106116798; 0.5; -0.42919921875; -0.263427734375;0
202;2142158787; 0.9999986130401886; 0.0012062908024479957; -3.521318200609969E-4; -0.0010930614715096987; -0.16358334689248805; -1.520810426867622E-5; 0.027335922663117577; 0.501708984375; -0.427978515625; -0.2666015625;0
203;2142175454; 0.9999993092393228; 5.384418758090925E-4; -3.373674513194869E-4; -9.888298268274922E-4; -0.16464168620812042; 0.0010096893886002885; 0.026050419987685605; 0.499755859375; -0.42529296875; -0.265380859375;0
204;2142192121; 0.9999995671244374; -3.417152182049188E-4; -4.256326938979483E-4; -7.535372967287859E-4; -0.1639730807704125; 0.005090814380357786; 0.02664587371700843; 0.49951171875; -0.427978515625; -0.26611328125;0
205;2142208788; 0.9999980242475106; -0.001799498063627225; -6.801161286002777E-4; -5.007492842412574E-4; -0.1629740810651411; 0.007678222713824977; 0.02710407418829142; 0.497314453125; -0.42236328125; -0.263427734375;0
206;2142225455; 0.9999951518553177; -0.002991029471530793; -7.336389654403198E-4; -4.601982492579357E-4; -0.15952948126571548; 0.0012199094729858397; 0.02718666935345886; 0.497802734375; -0.413818359375; -0.26318359375;0
207;2142242122; 0.9999951030184957; -0.003066702759578377; -4.915997729197931E-4; -3.8419119697939713E-4; -0.15722106399881103; -0.005869378833722313; 0.02729599059638795; 0.49658203125; -0.41015625; -0.263427734375;0
208;2142258789; 0.999996721649016; -0.002543793200010691; -2.064838677892922E-4; -2.077782194881833E-4; -0.15775424845080632; -0.007899862692831858; 0.027730958267039623; 0.498046875; -0.403564453125; -0.263671875;0
209;2142275456; 0.9999976981568558; -0.0021453490439513057; 1.795057395254096E-6; -3.398893056681674E-5; -0.15831874770413956; -0.0069606962796002255; 0.027745484050731444; 0.496826171875; -0.4033203125; -0.2626953125;0
210;2142292123; 0.9999982391605924; -0.0018716474038359965; 1.298938824829399E-4; 4.1704794020686053E-5; -0.1585524009474613; -0.005384849987146809; 0.026887477668662053; 0.496826171875; -0.400390625; -0.26416015625;0
211;2142308790; 0.9999972886550867; -0.0023210767488206496; 1.6272541976497526E-4; 9.383836688639514E-5; -0.16035904298198977; -0.0018462334407744387; 0.027902997469431562; 0.498046875; -0.39599609375; -0.261962890625;0
212;2142325457; 0.9999945365431856; -0.0033050458067628297; 1.9672759407590726E-5; 5.629367074702629E-5; -0.16068818782991365; -0.0028770553008386855; 0.02816570187434904; 0.50146484375; -0.39697265625; -0.255615234375;0
213;2142342124; 0.9999933814582613; -0.003637439601585468; 4.757804371785523E-6; 7.778290514616483E-5; -0.16096628596551088; -0.010231311834171081; 0.029182714676066628; 0.50146484375; -0.386474609375; -0.254638671875;0
214;2142358791; 0.9999953453008691; -0.003029669701475335; 1.467353966701224E-4; 3.3007093017291267E-4; -0.16224755848318495; -0.013531535388023567; 0.03023024608365568; 0.50341796875; -0.384521484375; -0.2548828125;0
215;2142375458; 0.9999966002204628; -0.002567678198993173; 1.4189272578180036E-5; 4.5428498411734247E-4; -0.16290919619470057; -0.012468888055921877; 0.030452155052623792; 0.501953125; -0.381591796875; -0.254638671875;0
216;2142392125; 0.9999971261343195; -0.002343633211434104; 5.5682038020477005E-5; 5.020019749147897E-4; -0.16229154836963178; -0.013447756703075516; 0.030518544198031693; 0.50146484375; -0.379150390625; -0.256591796875;0
217;2142408792; 0.9999974597413209; -0.0021745090952950408; 1.0405509766414633E-5; 5.932224077496441E-4; -0.16309993309451123; -0.012593691957512532; 0.03129891324703661; 0.503662109375; -0.3759765625; -0.253173828125;0
218;2142425459; 0.999997212495777; -0.0022625089372201312; -1.1641723706923292E-4; 6.65207495251452E-4; -0.16279851917568383; -0.011720778133399078; 0.03243632268241993; 0.50341796875; -0.37548828125; -0.252197265625;0
219;2142442126; 0.9999972608200735; -0.0022388249221562684; -2.3452613680347015E-4; 6.411028069124443E-4; -0.16176657846121817; -0.012994853773873773; 0.03220406248720876; 0.504150390625; -0.3720703125; -0.25390625;0
220;2142458793; 0.9999976716574906; -0.0020703340852387675; -2.902251280458013E-4; 5.349446215272696E-4; -0.1610944235292721; -0.014278655704631287; 0.03188543923284698; 0.50048828125; -0.3701171875; -0.25390625;0
221;2142475460; 0.9999982506261277; -0.0018139244125814913; -2.595858960263986E-4; 3.7555035924402574E-4; -0.161123599547921; -0.015213737265987518; 0.03212392523948056; 0.499755859375; -0.366943359375; -0.254638671875;0
222;2142492127; 0.9999991112625701; -0.0012837341995158846; -2.246880014118158E-4; 2.8109762889506895E-4; -0.16100729132046102; -0.016558613605040767; 0.031807949950003744; 0.50048828125; -0.36328125; -0.250244140625;0
223;2142508794; 0.9999997497719576; -6.281411240395274E-4; -1.8315772038712821E-4; 2.6897583550197784E-4; -0.1600209546272753; -0.013928052603093368; 0.03138206197222032; 0.500732421875; -0.364013671875; -0.255126953125;0
224;2142525461; 0.9999998471498998; -4.745982013046879E-4; -1.3150328087851995E-4; 2.513237189498557E-4; -0.16057505630944738; -0.010359020441851899; 0.0308347795412911; 0.499755859375; -0.363525390625; -0.25439453125;0
225;2142542128; 0.9999997274803398; -6.862308475417689E-4; -1.9166984751448068E-4; 1.9336271501763094E-4; -0.16169719673784325; -0.009480489622210144; 0.030207639118090563; 0.500244140625; -0.363525390625; -0.25439453125;0
226;2142558795; 0.9999996728106204; -7.807710944296997E-4; -1.6567099879252758E-4; 1.3163688830647446E-4; -0.16113525107060098; -0.010071503379931051; 0.029968001126204014; 0.504150390625; -0.361083984375; -0.252685546875;0
227;2142575462; 0.9999997104632224; -7.457413942099089E-4; -1.0464163478454692E-4; 1.0951425698724206E-4; -0.16143424684020657; -0.01057551546255184; 0.029850768888268746; 0.499755859375; -0.36279296875; -0.254150390625;0
228;2142592129; 0.9999998429190506; -5.317027501297034E-4; -2.5228658689646636E-5; 1.7554935020096252E-4; -0.16154114540519154; -0.010887307887454695; 0.030377358122426246; 0.502197265625; -0.359130859375; -0.253173828125;0
229;2142608796; 0.9999999001623736; -4.0710251916664664E-4; -7.806467128534944E-5; 1.668792643933076E-4; -0.1618112534417384; -0.010257460585758124; 0.030848347409560283; 0.501708984375; -0.36181640625; -0.255126953125;0
230;2142625463; 0.9999999141038345; -3.6954575395525824E-4; -9.896009360221837E-5; 1.5948404090060375E-4; -0.16150041534732362; -0.01011156514424641; 0.030812548775638247; 0.5009765625; -0.358642578125; -0.255859375;0
231;2142642130; 0.9999999322068007; -3.3560277828065255E-4; -6.345165656643227E-5; 1.375901748612435E-4; -0.16118195761278872; -0.011067912937291521; 0.030574741159747284; 0.5; -0.360107421875; -0.254150390625;0
232;2142658797; 0.9999999548969252; -2.731529393086851E-4; 3.096325831872249E-5; 1.2097477412412183E-4; -0.16147677291033988; -0.010982679481017402; 0.030821377361153417; 0.50146484375; -0.361572265625; -0.2509765625;0
233;2142675464; 0.999999975035266; -1.7653752334589878E-4; 6.334214460951282E-5; 1.2145675209997155E-4; -0.16205163966466718; -0.010857067752931196; 0.03129131756304619; 0.499755859375; -0.359619140625; -0.253173828125;0
234;2142692131; 0.9999999763424973; -1.580657756095616E-4; 8.164259081946958E-5; 1.2515871032395265E-4; -0.16212938870406285; -0.010521486216250322; 0.031154030558238455; 0.50048828125; -0.35791015625; -0.252685546875;0
235;2142708798; 0.9999999868029624; -6.317312369791273E-5; 4.465616279655805E-5; 1.428602765524423E-4; -0.16264070848389622; -0.010967789339353867; 0.03062294093494053; 0.500244140625; -0.361083984375; -0.253662109375;0
236;2142725465; 0.9999999882698913; -1.2704949696740186E-6; -7.227628966599565E-6; 1.529913870284283E-4; -0.16244220325003544; -0.010510534090914144; 0.030520508361452554; 0.50244140625; -0.36083984375; -0.252685546875;0
237;2142742132; 0.9999999822731409; 1.0459908142806951E-4; 1.961392914417992E-6; 1.5655319556076577E-4; -0.16136661691105014; -0.010671743595958601; 0.030352441917632512; 0.500244140625; -0.360107421875; -0.25244140625;0
238;2142758799; 0.9999999875094933; 1.1418810558000425E-4; -3.78596376140461E-5; 1.0251213456209662E-4; -0.16121751636224407; -0.010128351216849161; 0.030537416026785346; 0.501708984375; -0.359619140625; -0.2568359375;0
239;2142775466; 0.9999999863766018; 1.5426269090540456E-4; -2.5758064985031973E-5; 5.2785797982388145E-5; -0.16102343128598043; -0.01045209534606331; 0.030605350544423527; 0.50244140625; -0.363037109375; -0.25439453125;0
240;2142792133; 0.9999999646240866; 2.6285383088631153E-4; -4.968887887368823E-6; 4.043512385312753E-5; -0.16125081561666937; -0.009279290026809986; 0.030415706601114922; 0.503662109375; -0.36376953125; -0.251220703125;0
241;2142808800; 0.9999999732646667; 2.229887283595744E-4; 2.3379002704798646E-5; 5.656955917167362E-5; -0.16163941840241725; -0.008644538492667622; 0.030276547019427814; 0.501953125; -0.36181640625; -0.250244140625;0
242;2142825467; 0.9999999919623781; 1.2476501961233843E-4; -6.908557765250568E-6; 2.1475697410539007E-5; -0.16231309756840925; -0.008600536590182256; 0.030750983608888064; 0.5048828125; -0.364013671875; -0.25244140625;0
243;2142842134; 0.9999999969878064; 7.413149217644355E-5; -1.7058109754858334E-5; -1.5424974181943444E-5; -0.16230078710384982; -0.008981095257814523; 0.030631840244553003; 0.500732421875; -0.36279296875; -0.251220703125;0
244;2142858801; 0.9999999964852431; -8.167231184708079E-5; 7.65885718706505E-7; 1.893570041942849E-5; -0.16280383023070844; -0.009049423500210587; 0.03038721784137786; 0.502685546875; -0.36474609375; -0.253662109375;0
245;2142875468; 0.9999999974435562; -1.7517001333344773E-6; 3.578832449424585E-5; 6.187903516408079E-5; -0.16237537392105428; -0.011266103671880282; 0.030101182681232817; 0.5029296875; -0.36279296875; -0.25341796875;0
246;2142892135; 0.9999999770013304; 1.7901332191777586E-4; 1.1779262228808764E-4; 8.744564417101364E-6; -0.16157770027715057; -0.01135884346812449; 0.0310532730928207; 0.49853515625; -0.365966796875; -0.25341796875;0
247;2142908802; 0.9999999730542791; 2.1104667007637579E-4; 9.225407819657418E-5; -2.8981527597490845E-5; -0.16207318545061986; -0.010509643882916678; 0.031246543776345954; 0.502197265625; -0.364013671875; -0.25048828125;0
248;2142925469; 0.9999999906607326; 1.1601810944406044E-4; 4.0621924509237635E-5; 5.9734347142473276E-5; -0.16152337258043006; -0.009033911003861148; 0.030603584344454468; 0.501708984375; -0.3603515625; -0.251953125;0
249;2142942136; 0.9999999651940827; 2.382012724029825E-4; 7.257421366194117E-5; 8.72064825446356E-5; -0.1599793346702185; -0.010584944643239898; 0.030565529124851585; 0.503173828125; -0.365966796875; -0.2509765625;0
250;2142958803; 0.9999998729830026; 4.5684840011483985E-4; 2.1062153161571787E-4; -3.101754799944567E-5; -0.16166975219502708; -0.010143715081760998; 0.02980999274876276; 0.501708984375; -0.366455078125; -0.249755859375;0
251;2142975470; 0.999999826754334; 4.985669634662848E-4; 2.0430776902416461E-4; -2.3702451505203118E-4; -0.16236948632132436; -0.008195876537186453; 0.028746748046496767; 0.503173828125; -0.365478515625; -0.250732421875;0
252;2142992137; 0.9999998956905809; 2.1596681301705445E-4; 1.8397559396624022E-4; -3.5795271190046385E-4; -0.16193533558710235; -0.007010462588941115; 0.028334866124564085; 0.502197265625; -0.36572265625; -0.254638671875;0
253;2143008804; 0.9999999622702312; -9.716311918056553E-5; 1.0782535595599274E-4; -2.3322211960975783E-4; -0.16268541622909505; -0.008065114609582999; 0.029703867767802865; 0.503173828125; -0.365478515625; -0.24755859375;0
254;2143025471; 0.9999999840664354; 1.310583097453577E-4; 6.350139484642693E-5; 1.0323963065329844E-4; -0.16293452092237284; -0.010067761232414974; 0.02969656943783953; 0.50439453125; -0.365966796875; -0.251220703125;0
255;2143042138; 0.9999998968329523; 3.821926732578418E-4; 1.0638542410307263E-4; 2.212351393952178E-4; -0.16061650545141803; -0.01033670676042596; 0.029596283374005432; 0.502685546875; -0.36962890625; -0.2509765625;0
256;2143058805; 0.9999999413667857; 2.6220327568599044E-4; 1.6198600477454475E-4; 1.4925281103461696E-4; -0.16072764426497613; -0.008912521981888522; 0.029544889873805363; 0.5009765625; -0.367919921875; -0.24951171875;0
257;2143075472; 0.9999999813524978; -1.1002452958269737E-4; 1.1948630206765065E-4; 1.044635374904679E-4; -0.16244494197321838; -0.00889352787809015; 0.029762519830382386; 0.503662109375; -0.370361328125; -0.24951171875;0
258;2143092139; 0.999999946815831; -3.189466376745109E-4; 4.85942152626262E-5; 4.7749132252750126E-5; -0.16200217372396913; -0.010183978787743053; 0.029974513797069415; 0.50537109375; -0.367919921875; -0.248779296875;0
259;2143108806; 0.99999995528057; -2.9284482515568033E-4; 1.7363719365171008E-5; 5.813146948088766E-5; -0.16255523707419955; -0.011640030877359462; 0.030163946822335544; 0.505615234375; -0.37158203125; -0.24853515625;0
260;2143125473; 0.9999999892857998; 8.49964081862109E-5; 7.58214728158735E-5; 9.19517000297354E-5; -0.16219005988210042; -0.01316009419920632; 0.029880829212657715; 0.503662109375; -0.366943359375; -0.24755859375;0
261;2143142140; 0.9999999064596093; 3.9713751367387307E-4; 1.347810674384997E-4; 1.0581413739686742E-4; -0.16233729767950844; -0.010929099549878783; 0.029937266678120526; 0.50244140625; -0.36962890625; -0.24951171875;0
262;2143158807; 0.9999999561490117; 2.6792230815758655E-4; 9.46643884068288E-5; 8.341621575187752E-5; -0.16296857571904647; -0.008922029363849188; 0.029704289307786836; 0.504150390625; -0.3681640625; -0.244873046875;0
263;2143175474; 0.999999996321162; 5.634275349225559E-5; 3.4590168239007075E-5; 5.46506203845526E-5; -0.16158683922528547; -0.008832911691652677; 0.029607600278783282; 0.504150390625; -0.36865234375; -0.248291015625;0
264;2143192141; 0.9999999976428721; -4.809386254478465E-5; 3.9687323347692434E-5; 2.8742870490830463E-5; -0.16131066129552396; -0.00918964776444342; 0.029003027201028084; 0.504150390625; -0.370361328125; -0.249267578125;0
265;2143208808; 0.9999999970297283; -7.482349084858564E-5; -1.8162191812304274E-5; 3.4818831970984125E-6; -0.1623675105340751; -0.010531347480482407; 0.02811465753750016; 0.50244140625; -0.371337890625; -0.246826171875;0
266;2143225475; 0.9999999989694457; 3.198263739279117E-5; 9.920719247574762E-6; -3.0656140007981336E-5; -0.1617451348920561; -0.011368959142345888; 0.027814116405048342; 0.50341796875; -0.37109375; -0.24609375;0
267;2143242142; 0.9999999911152027; 1.2579324989941965E-4; 4.410748339883642E-5; -4.275923488478162E-7; -0.16199941017835606; -0.009711349655956178; 0.02829936236604061; 0.505126953125; -0.369140625; -0.244384765625;0
268;2143258809; 0.9999999988476573; 9.682406326982917E-6; 4.6437172038504844E-5; -7.38412266672317E-6; -0.16175627740018458; -0.009033076921756223; 0.028576798767671743; 0.50439453125; -0.374267578125; -0.244140625;0
269;2143275476; 0.9999999980141048; -2.485523319595284E-5; 5.61970076864704E-5; -1.399657777270691E-5; -0.16152863762704242; -0.009887500173985087; 0.02879408716607288; 0.50634765625; -0.371826171875; -0.24658203125;0
270;2143292143; 0.9999999893028964; 1.2323434735372896E-4; 7.774390081857764E-5; -1.2782361752297633E-5; -0.16232325390177985; -0.010565133717052647; 0.029371227621350835; 0.504150390625; -0.371337890625; -0.244384765625;0
271;2143308810; 0.9999999594538445; 2.763781586924141E-4; 6.725900706586187E-5; 1.355170646009929E-5; -0.1624080492423277; -0.00965926889621097; 0.02921149020871517; 0.503173828125; -0.369873046875; -0.2470703125;0
272;2143325477; 0.9999999662016077; 2.4205730834370165E-4; 6.511084356788933E-5; 6.90334776078938E-5; -0.163291290730938; -0.009288739143936603; 0.02914200367120528; 0.502197265625; -0.37158203125; -0.246337890625;0
273;2143342144; 0.9999999824500854; 1.7833936709349407E-4; -6.425098727225187E-6; 5.704048837609777E-5; -0.16322543961237992; -0.009472933727855362; 0.029191599015407646; 0.50537109375; -0.37158203125; -0.2470703125;0
274;2143358811; 0.9999999814425298; 1.7085042092229719E-4; -4.312237491413407E-5; 7.78815425071383E-5; -0.16321688995644357; -0.009952724828756426; 0.029370814446259334; 0.50390625; -0.37158203125; -0.245361328125;0
275;2143375478; 0.9999999778364085; 1.675499089389132E-4; -7.685316316821679E-5; 1.0172414598651204E-4; -0.16293485639209307; -0.01051841896211946; 0.029648401329997506; 0.502685546875; -0.37548828125; -0.24560546875;0
276;2143392145; 0.9999999532457728; 2.8157297189757013E-4; -9.492961156723491E-5; 7.220444843628049E-5; -0.1622317709984651; -0.010996200153129536; 0.029704422572042158; 0.50390625; -0.376708984375; -0.24658203125;0
277;2143408812; 0.9999999027044985; 4.3118999107799594E-4; -6.89479248310032E-5; 6.254893060841928E-5; -0.16200578060617254; -0.01079724366595779; 0.029560113346232764; 0.50439453125; -0.37744140625; -0.24658203125;0
278;2143425479; 0.999999787624784; 6.481719383266138E-4; -3.6736652077540295E-5; 5.7218384508520015E-5; -0.161591191300247; -0.008888771267218003; 0.02936779303238015; 0.504150390625; -0.37841796875; -0.245849609375;0
279;2143442146; 0.9999998854352995; 4.741569945999058E-4; -5.684711665693288E-5; 3.275572984953735E-5; -0.16230460144155795; -0.007236790137533911; 0.02945767794839203; 0.50390625; -0.376220703125; -0.246337890625;0
280;2143458813; 0.9999999466355131; 3.0429978450585704E-4; -1.1767173155857737E-4; -1.685157640257673E-5; -0.16259747325344664; -0.00832664408499415; 0.028915258791995448; 0.50537109375; -0.376953125; -0.24755859375;0
281;2143475480; 0.9999999582477422; 2.575006230786103E-4; -1.240637536040201E-4; -4.249856309861134E-5; -0.16188321874841358; -0.00864309916422527; 0.029247477863331147; 0.50390625; -0.380859375; -0.248779296875;0
282;2143492147; 0.9999999342095439; 3.4227451403112674E-4; -1.040814813969282E-4; -5.996757513448969E-5; -0.16184369911072846; -0.009504319602609439; 0.029063000652613323; 0.50341796875; -0.377685546875; -0.247314453125;0
283;2143508814; 0.9999998948177151; 4.4868140657572386E-4; -7.936998084598358E-5; -5.244006287857817E-5; -0.16212697076384644; -0.009654732611347076; 0.028829889686186754; 0.502685546875; -0.377685546875; -0.249267578125;0
284;2143525481; 0.9999998728887644; 4.89095100078385E-4; -7.525497932248106E-5; -9.667019306519586E-5; -0.1627857204397437; -0.009945676456410129; 0.028790598380832783; 0.501953125; -0.379638671875; -0.250732421875;0
285;2143542148; 0.999999859206261; 5.054752096529946E-4; -9.531728831280173E-5; -1.3037210275569647E-4; -0.1623803102189773; -0.009566129780360831; 0.029014935275488967; 0.505126953125; -0.3818359375; -0.24951171875;0
286;2143558815; 0.9999998354488329; 5.295424657203451E-4; -1.1814175607624545E-4; -1.863588195136351E-4; -0.1625042481721703; -0.01009833516204695; 0.029206098361333522; 0.50537109375; -0.380859375; -0.247314453125;0
287;2143575482; 0.9999997948871466; 5.819512423670958E-4; -1.7181517528783166E-4; -2.0503161112800375E-4; -0.16261511504037623; -0.011196602169087145; 0.029652099343735378; 0.504638671875; -0.380615234375; -0.2490234375;0
288;2143592149; 0.9999995988012905; 8.511016115672065E-4; -1.8787728503510961E-4; -2.0670130718007662E-4; -0.16199681756738793; -0.013066187314387887; 0.030242698379013985; 0.505126953125; -0.38037109375; -0.246337890625;0
289;2143608816; 0.9999994173429751; 0.0010471167725984443; -2.169461221462332E-4; -1.4762979002062862E-4; -0.16347809418126188; -0.013731395567390921; 0.030967748379336576; 0.505615234375; -0.380126953125; -0.252197265625;0
290;2143625483; 0.9999995007962915; 9.336349690289292E-4; -3.207694105283599E-4; -1.5440174105621485E-4; -0.1668951467641853; -0.015244879985447317; 0.03290963925541976; 0.502197265625; -0.383544921875; -0.247314453125;0
291;2143642150; 0.9999997527420633; 4.5334626562371083E-4; -4.5237820469404283E-4; -2.9042543901666723E-4; -0.16308969381761385; -0.01625322092321912; 0.03860144704429987; 0.50341796875; -0.384521484375; -0.251708984375;0
292;2143658817; 0.9999997677461145; -1.5926020184842127E-4; -5.159170718885276E-4; -4.1590080562384224E-4; -0.15713829570209947; -0.01747507906917853; 0.043631726161882885; 0.503173828125; -0.3828125; -0.250244140625;0
293;2143675484; 0.9999993470873745; -6.65989570723946E-4; -5.361831713263376E-4; -7.581492749765552E-4; -0.16001910423729712; -0.02430872082399738; 0.04788995701350343; 0.50341796875; -0.378662109375; -0.251708984375;0
294;2143692151; 0.999998824203239; -2.223651771932622E-4; -8.339704161189899E-4; -0.0012675327263314828; -0.16315114388243396; -0.031685213233952035; 0.05271755962098683; 0.50146484375; -0.37841796875; -0.2470703125;0
295;2143708818; 0.9999973260840982; 6.607558416244497E-4; -0.0011480896698227996; -0.0018955517618162029; -0.16581040423077506; -0.03499580738433827; 0.05859299782813749; 0.501220703125; -0.375244140625; -0.249267578125;0
296;2143725485; 0.9999938668644056; 8.150250161932382E-4; -0.001892485645265202; -0.002832042704261739; -0.17213156165257404; -0.04031308965121371; 0.06760905210004081; 0.50146484375; -0.370849609375; -0.25439453125;0
297;2143742152; 0.9999861641110879; 3.878561406779335E-4; -0.0032388652042509847; -0.004126851850389941; -0.17623226968077368; -0.04997299240588421; 0.0793175525748771; 0.501220703125; -0.36181640625; -0.255126953125;0
298;2143758819; 0.9999756351610573; 1.1036685115056732E-4; -0.004636683922842528; -0.005217093596802266; -0.1833940928354174; -0.06510749689859774; 0.087052949410209; 0.49609375; -0.349609375; -0.26025390625;0
299;2143775486; 0.9999639187070842; 5.066219968198893E-4; -0.005831952159881416; -0.006155725150536252; -0.18455630738382095; -0.07724254179542825; 0.0973697316477779; 0.495361328125; -0.3408203125; -0.265869140625;0
300;2143792153; 0.9999460215977709; 4.913036365664092E-4; -0.007181732880297943; -0.007492344383633678; -0.19019028807833535; -0.08526458577267382; 0.11003846302514017; 0.492431640625; -0.322265625; -0.271240234375;0
301;2143808820; 0.9999181889361918; 4.0350770680347425E-4; -0.008863244074613696; -0.009213876522427363; -0.19973777656699065; -0.09742215787895916; 0.1209317165426868; 0.4833984375; -0.30322265625; -0.28125;0
302;2143825487; 0.9998822635890215; 0.0015750975345575902; -0.01057132001284006; -0.011010232560544647; -0.21081101936369806; -0.11289338054371328; 0.12894927631089853; 0.474853515625; -0.280517578125; -0.293212890625;0
303;2143842154; 0.999840318198366; 0.0035709729247966893; -0.01195426090383406; -0.012793822869009404; -0.2167371082359898; -0.11436560835199437; 0.13392705707454017; 0.469482421875; -0.255126953125; -0.305908203125;0
304;2143858821; 0.9997966548988764; 0.003886212949250123; -0.013300726462273262; -0.014650490691646034; -0.22081420880308034; -0.1006460917732099; 0.13535632210985524; 0.45654296875; -0.22900390625; -0.32421875;0
305;2143875488; 0.9997445337462574; 0.0020904166081816555; -0.015180088874928888; -0.016615122769090083; -0.22834861688289274; -0.09683454707294234; 0.13498535555907254; 0.44287109375; -0.19873046875; -0.338134765625;0
306;2143892155; 0.9996803262411456; 0.0013647788455019572; -0.017194782379762356; -0.018485728657865935; -0.23675240816950308; -0.11139822178997805; 0.13023667777032175; 0.425537109375; -0.16015625; -0.35498046875;0
307;2143908822; 0.9996229011555363; 0.003360063079368869; -0.018643000208373176; -0.01987973854763066; -0.23917212470217694; -0.12156145398670201; 0.12396253522233523; 0.404296875; -0.12451171875; -0.37744140625;0
308;2143925489; 0.9995726043831386; 0.005965116732522924; -0.019469132610374255; -0.020975672205597554; -0.23675120182897047; -0.1143945971786798; 0.11717686802405239; 0.379150390625; -0.08935546875; -0.406005859375;0
309;2143942156; 0.9995302016164236; 0.007636038690239155; -0.020233342301409774; -0.021718168179353518; -0.23792838561763197; -0.10263900252027042; 0.11227716312540584; 0.3544921875; -0.063232421875; -0.432373046875;0
310;2143958823; 0.9994941573585437; 0.00863118560624171; -0.021202945546481115; -0.02207639330411705; -0.24008572750760002; -0.09471022823824721; 0.10881698267955028; 0.32666015625; -0.03369140625; -0.463623046875;0
311;2143975490; 0.9994618078512056; 0.009647718202400124; -0.022173512360043893; -0.022166450548193526; -0.23604154831682123; -0.09067709325421607; 0.10532688642532757; 0.2939453125; -0.012451171875; -0.496337890625;0
312;2143992157; 0.9994424387838773; 0.010723152628269228; -0.02267002489356174; -0.022043038056761166; -0.22928537253972403; -0.08347349013028353; 0.10279663191431879; 0.259765625; 0.010986328125; -0.533935546875;0
313;2144008824; 0.9994441926335452; 0.010429946111196797; -0.023132885373500778; -0.0216192425744982; -0.224037214875221; -0.06884525358320996; 0.10440010742321662; 0.22119140625; 0.0234375; -0.57177734375;0
314;2144025491; 0.9994508981370491; 0.008434105913232015; -0.0242028164805454; -0.0209998034490608; -0.21450714226262907; -0.06394038723529899; 0.10472952435500478; 0.18408203125; 0.0380859375; -0.603515625;0
315;2144042158; 0.9994491316961018; 0.007749620572354815; -0.024917355994824312; -0.020506143058112995; -0.2014126876928444; -0.07921957536192356; 0.09897618071947917; 0.143798828125; 0.052490234375; -0.63720703125;0
316;2144058825; 0.9994419831865979; 0.009667318730533184; -0.024886005931309744; -0.020073661882906935; -0.18880196618439682; -0.08962709640832342; 0.09196846154160226; 0.099609375; 0.062744140625; -0.670654296875;0
317;2144075492; 0.9994302925544487; 0.012568577875708531; -0.024576518120333846; -0.019419473005003466; -0.1750462250350709; -0.08261294851113568; 0.0871980359717328; 0.0576171875; 0.063232421875; -0.71044921875;0
318;2144092159; 0.9994317223334249; 0.014166079218014813; -0.024239848763986164; -0.01865433797088456; -0.15968403650630836; -0.06717584725609993; 0.08426666192044881; 0.01220703125; 0.054443359375; -0.740966796875;0
319;2144108826; 0.9994505636541738; 0.014318924711892375; -0.024020155158024362; -0.017792452125376893; -0.1454064627845429; -0.052210699239842555; 0.08148532459681479; -0.02734375; 0.041259765625; -0.781005859375;0
320;2144125493; 0.9994798613539944; 0.014050507054593826; -0.023719009840718733; -0.016733157845577745; -0.12958142191215388; -0.046845706024474354; 0.07645065297274582; -0.071044921875; 0.02734375; -0.81494140625;0
321;2144142160; 0.9995133075627443; 0.014086602817461914; -0.022999943560075065; -0.01567540182194616; -0.11202300818855623; -0.04461279346913015; 0.07197551916756822; -0.113037109375; 0.010009765625; -0.842041015625;0
322;2144158827; 0.9995513313763152; 0.01385318993482429; -0.02206955718262305; -0.01477023081161466; -0.09408003454587349; -0.03443170089475373; 0.06846800930180806; -0.15380859375; -0.0107421875; -0.86962890625;0
323;2144175494; 0.9995994675416107; 0.012649783046769988; -0.021335099456681664; -0.0136272158041042; -0.08038058988907654; -0.02933121776617167; 0.06665162741969792; -0.189208984375; -0.031005859375; -0.896240234375;0
324;2144192161; 0.9996393974873418; 0.011845308314344116; -0.020559529433176297; -0.012572565830763799; -0.06315093222173312; -0.034986020704189845; 0.06460887999988912; -0.227783203125; -0.0556640625; -0.91357421875;0
325;2144208828; 0.999670302740625; 0.012586013008231318; -0.019285255944744117; -0.01135592348378356; -0.04442026139701363; -0.03598788123448941; 0.061296945445736266; -0.26123046875; -0.079345703125; -0.9345703125;0
326;2144225495; 0.9997053353548999; 0.01302661606820319; -0.017887390358045707; -0.009979529194177024; -0.030075361703932962; -0.026106007533070665; 0.05999233843703604; -0.2939453125; -0.106689453125; -0.947509765625;0
327;2144242162; 0.9997448180199356; 0.01249388037723972; -0.01660954121336028; -0.008850137630945082; -0.01680450498959424; -0.016253306692313417; 0.0580889931051404; -0.32470703125; -0.13525390625; -0.96240234375;0
328;2144258829; 0.9997803464033305; 0.012032678475068465; -0.015224554824817218; -0.007917482222172756; -0.0041412116596081655; -0.012576448926265117; 0.056689388355949034; -0.3505859375; -0.16064453125; -0.976318359375;0
329;2144275496; 0.9998231746326843; 0.01083912009305413; -0.013577206740841953; -0.007196693695417172; 0.004784019057348803; 0.0034347796370109065; 0.055854398737173634; -0.373291015625; -0.186767578125; -0.984375;0
330;2144292163; 0.9998750774605364; 0.0076485171250636665; -0.01222045921679288; -0.00647997188302335; 0.012826910678351022; 0.014432566286666025; 0.055377528754371116; -0.39599609375; -0.20556640625; -0.9892578125;0
331;2144308830; 0.9999155691786493; 0.004725499001384546; -0.010629006629844675; -0.005792097322075238; 0.02309302690553958; 0.007372181466782964; 0.056409364758019415; -0.413818359375; -0.22216796875; -0.993896484375;0
332;2144325497; 0.9999429227115111; 0.003616912681798267; -0.008754051202403803; -0.004943263027480618; 0.034550440335177506; 0.0022314076862584176; 0.05845716710554785; -0.4287109375; -0.23193359375; -0.994873046875;0
333;2144342164; 0.9999643459248422; 0.002948785830837037; -0.0068006845807278005; -0.004045025396678338; 0.042070574424505666; 0.002438893462598764; 0.059128965936071476; -0.440185546875; -0.239013671875; -0.997314453125;0
334;2144358831; 0.9999785918588867; 0.002565880664090671; -0.00512086439185755; -0.003163673215728996; 0.04728747173789261; 2.569181643012671E-4; 0.06014908727892038; -0.449462890625; -0.24853515625; -0.996826171875;0
335;2144375498; 0.9999882193331193; 0.002632362969167249; -0.0033792688681496545; -0.0022830685694222312; 0.05035549484032858; -0.0014001332780295243; 0.060835368982743665; -0.453369140625; -0.252685546875; -0.99951171875;0
336;2144392165; 0.9999937216563141; 0.002712711237550302; -0.0018509634647081443; -0.0013310822470211647; 0.05150698724316141; 0.00208731596204223; 0.06267155642161396; -0.459228515625; -0.264892578125; -1.0048828125;0
337;2144408832; 0.9999971966261061; 0.0023328972987225263; -3.5717549972880125E-4; -1.9171798302769497E-4; 0.05407032143884607; 0.0052663010840413044; 0.06561529422984816; -0.45849609375; -0.267333984375; -1.00439453125;0
338;2144425499; 0.9999981563958611; 0.0012795494328861554; 0.0012751229768479535; 6.511678138238358E-4; 0.05509678335443183; 0.012089178537496833; 0.06900196815573714; -0.4580078125; -0.270263671875; -1.005859375;0
339;2144442166; 0.9999953255357672; -5.569087152503538E-4; 0.002664635071154054; 0.0013922927979698465; 0.052669689026522144; 0.013771348809187074; 0.07346015292845157; -0.45556640625; -0.2724609375; -1.0048828125;0
340;2144458833; 0.999986866539872; -0.0022818217425020007; 0.004061506487276046; 0.0021363993909050277; 0.050659836907370345; 0.009146848986773225; 0.07811848527436728; -0.451416015625; -0.261962890625; -0.998779296875;0
341;2144475500; 0.9999756258432294; -0.0031659392767039475; 0.005533127660159343; 0.0028476387120549983; 0.04682790503604358; 0.003170919605044521; 0.08181430972104071; -0.441162109375; -0.256591796875; -0.998046875;0
342;2144492167; 0.9999616757039695; -0.004047902508196449; 0.007036518092354172; 0.0032785700738680312; 0.04256452844673979; 0.0019032631583568195; 0.08571158696053441; -0.429931640625; -0.2490234375; -0.999267578125;0
343;2144508834; 0.9999465360037331; -0.004764049757144034; 0.008468720638062479; 0.0035369103467588763; 0.03415665331255151; -0.004129002446151764; 0.0907104121367453; -0.418701171875; -0.23388671875; -0.9970703125;0
344;2144525501; 0.9999350719136193; -0.004777937414948016; 0.009556394307813078; 0.0039621457567122625; 0.02342840464402611; -0.010833787376485344; 0.0958228328372437; -0.40185546875; -0.22412109375; -0.994384765625;0
345;2144542168; 0.9999255450684605; -0.004652437807498563; 0.010339266605394137; 0.004512062505357934; 0.016943844539937962; -0.014953114295441718; 0.09884799406146348; -0.38427734375; -0.212158203125; -0.988037109375;0
346;2144558835; 0.9999172761717154; -0.004409980058213164; 0.010934677249810844; 0.0051405955555765825; 0.009772509425307024; -0.017697143347107053; 0.09835490208117738; -0.369384765625; -0.2041015625; -0.988037109375;0
347;2144575502; 0.9999071936465461; -0.004636568045207788; 0.01127913090371946; 0.006073511069170202; 0.002296942169113504; -0.01897884383618324; 0.097073342084791; -0.347412109375; -0.193603515625; -0.981689453125;0
348;2144592169; 0.9998905291709344; -0.005257493734722556; 0.011781056697749316; 0.007245352785236525; -1.696221106034096E-4; -0.026142910700657492; 0.09571246469377932; -0.330078125; -0.181884765625; -0.974609375;0
349;2144608836; 0.9998701127143826; -0.004748829818582826; 0.012756067112144998; 0.00863070493716381; -0.0036717348669039335; -0.038969015725133546; 0.09880986868768138; -0.309814453125; -0.171630859375; -0.9677734375;0
350;2144625503; 0.9998467570467552; -0.002708589838082269; 0.01407371155166981; 0.010052691546857647; -0.013431802311261336; -0.04472446946800683; 0.10112153940432858; -0.2890625; -0.1650390625; -0.964111328125;0
351;2144642170; 0.999820663754088; -6.823576094567262E-4; 0.015332141592309558; 0.011095050816518017; -0.029829875840646426; -0.038723804851948394; 0.10024334183043589; -0.266357421875; -0.1611328125; -0.956298828125;0
352;2144658837; 0.9997938521429023; 2.6036396057418833E-4; 0.016597426765134097; 0.011692341623486147; -0.03875968132859958; -0.0287165792825415; 0.09921931950266152; -0.24169921875; -0.163330078125; -0.947998046875;0
353;2144675504; 0.9997692616147459; -9.469251465817341E-4; 0.017797909830580938; 0.011990048737805183; -0.045980906814233925; -0.0129301415028886; 0.0977317954941001; -0.21630859375; -0.16796875; -0.942626953125;0
354;2144692171; 0.9997429715662158; -0.0036313993085094103; 0.018682575136358185; 0.01231929905835058; -0.058141715045665114; -0.010641127277244734; 0.09948370109377715; -0.186767578125; -0.1640625; -0.934814453125;0
355;2144708838; 0.9997217865455958; -0.0048866787187091; 0.01944274422820441; 0.012427774300288713; -0.06901584022538752; -0.02800692348027603; 0.10001632625241265; -0.15625; -0.1591796875; -0.9189453125;0
356;2144725505; 0.9997037527101025; -0.0033351032279707324; 0.02082971525467098; 0.01214112293844688; -0.07991939550225569; -0.04172318743877011; 0.09876105928434237; -0.1259765625; -0.1572265625; -0.9072265625;0
357;2144742172; 0.9996767922022944; -8.114883426475145E-4; 0.02248873143355734; 0.011828337892949016; -0.09467067671168043; -0.03912363551134121; 0.10419079377027227; -0.093994140625; -0.162841796875; -0.887939453125;0
358;2144758839; 0.9996456167162124; -8.598104658447655E-4; 0.023985329800701397; 0.01151545311212765; -0.10544783643554666; -0.015465774969326506; 0.10938132334812654; -0.052490234375; -0.1767578125; -0.872802734375;0
359;2144775506; 0.9996209195221066; -0.004427267223455755; 0.024599858393594853; 0.011543982229944294; -0.11639271551818492; 6.883364081415625E-4; 0.11145810563461869; -0.0146484375; -0.184326171875; -0.85546875;0
360;2144792173; 0.9995926377222739; -0.008816743391917292; 0.02448077688414974; 0.011726687961072346; -0.13278821744092725; -0.010138114206350713; 0.11000399020221385; 0.02490234375; -0.18603515625; -0.83203125;0
361;2144808840; 0.9995781423761165; -0.009650355315771842; 0.024658997801494664; 0.011930706333547954; -0.13456461885661378; -0.038675806809774074; 0.10485569975870689; 0.0615234375; -0.180908203125; -0.79931640625;0
362;2144825507; 0.999557315939797; -0.007312362409139685; 0.026312103675428248; 0.011805706560803791; -0.14003952800641623; -0.06388180119453825; 0.11452210021379251; 0.099365234375; -0.181640625; -0.771484375;0
363;2144842174; 0.9995524485193178; -0.004767825469440649; 0.027351786537483106; 0.011137785800486579; -0.1661567892019453; -0.056039296917085764; 0.1332886833587502; 0.14111328125; -0.193603515625; -0.738525390625;0
364;2144858841; 0.9995686647799359; -0.005298585646262899; 0.0267597879798005; 0.010877643470964725; -0.17773278798800285; -0.04304078859437153; 0.1435156993718119; 0.18212890625; -0.208984375; -0.707275390625;0
365;2144875508; 0.9995808347261249; -0.008039007348777966; 0.025691234683611675; 0.010653153030965508; -0.17384403325806608; -0.04425344756443805; 0.14189144196201886; 0.218017578125; -0.219482421875; -0.668701171875;0
366;2144892175; 0.9995963708668248; -0.00996527821405091; 0.024503464888221086; 0.010361891162403516; -0.1749145075886199; -0.05973116597768788; 0.14195265487476802; 0.251220703125; -0.2265625; -0.63525390625;0
367;2144908842; 0.9996253709470084; -0.009886933381282992; 0.023364715460546973; 0.010269195626612439; -0.1786828220259497; -0.07499303783947164; 0.14546247485464234; 0.282958984375; -0.233642578125; -0.598388671875;0
368;2144925509; 0.9996605695140536; -0.009395856139108538; 0.022155960434552483; 0.009978830766875058; -0.18617302952147552; -0.0745992238014143; 0.14421580980963378; 0.313720703125; -0.2431640625; -0.5595703125;0
369;2144942176; 0.999694745757815; -0.009197453141373768; 0.020735191470969472; 0.009791526673202816; -0.195177850261184; -0.07671715466074477; 0.1410933683228113; 0.33935546875; -0.254150390625; -0.525634765625;0
370;2144958843; 0.9997334038583805; -0.008328839745607719; 0.019366832134898097; 0.009416870567603715; -0.1983711239275977; -0.0784056753569653; 0.13560981778462108; 0.363037109375; -0.267333984375; -0.492919921875;0
371;2144975510; 0.9997622933074972; -0.006835466480142105; 0.01856288833142661; 0.009168012616043284; -0.19984976079436265; -0.07263928570320233; 0.12836487567947671; 0.38330078125; -0.276123046875; -0.462646484375;0
372;2144992177; 0.9997835901454919; -0.0063290754415195605; 0.01776006668131042; 0.00879179795730664; -0.20921280073103998; -0.06429320715869448; 0.1198412441763473; 0.402099609375; -0.2919921875; -0.4345703125;0
373;2145008844; 0.9998054825892463; -0.00639294312942118; 0.01657476189372964; 0.008567644413409849; -0.21723441901318474; -0.0638722268834205; 0.11117227114891932; 0.4208984375; -0.307373046875; -0.406982421875;0
374;2145025511; 0.9998255121615864; -0.005646252548025865; 0.015586086383890254; 0.008610399190458945; -0.21625820662765605; -0.07035288452261908; 0.09955928958923739; 0.43798828125; -0.321044921875; -0.37841796875;0
375;2145042178; 0.9998363036402939; -0.004264588023019211; 0.015177041242679159; 0.00887899943834092; -0.21346881531235293; -0.0701508433619631; 0.09184982427136411; 0.4521484375; -0.33935546875; -0.356201171875;0
376;2145058845; 0.9998443136614098; -0.0043920018499499225; 0.014374187101886206; 0.009243457353967616; -0.21160986586284522; -0.058749352448925554; 0.09291010368782861; 0.457763671875; -0.3583984375; -0.333984375;0
377;2145075512; 0.9998597712702798; -0.005661985043304396; 0.012547889215644092; 0.009535732638088589; -0.1979472604380542; -0.055618767595881566; 0.1004256213642042; 0.47265625; -0.375732421875; -0.317626953125;0
378;2145092179; 0.9998762039757443; -0.005770688541452851; 0.011055190454431376; 0.00959471942422728; -0.18234210787003; -0.05791328747813136; 0.09798117630493675; 0.482177734375; -0.388916015625; -0.3017578125;0
379;2145108846; 0.9998968837412417; -0.004670747804103703; 0.010048425952043529; 0.009134283518175386; -0.17594821797188506; -0.053739931861177564; 0.08838835848681689; 0.48876953125; -0.406005859375; -0.287109375;0
380;2145125513; 0.9999152548181512; -0.0036090070690539267; 0.009319691122428532; 0.008342757776040502; -0.1746615000641331; -0.05130428845681507; 0.08288313008709158; 0.492431640625; -0.42333984375; -0.274658203125;0
381;2145142180; 0.9999326826680975; -0.003781697892079827; 0.008329129225518261; 0.007138242051051417; -0.18662893886728732; -0.04454072169298617; 0.08536924611121446; 0.498291015625; -0.43701171875; -0.26318359375;0
382;2145158847; 0.999941323730932; -0.005884612059902483; 0.006619372793769341; 0.006237334362773031; -0.1909495874308216; -0.032476498287254504; 0.0869491811449499; 0.5; -0.448974609375; -0.252685546875;0
383;2145175514; 0.9999340334420915; -0.008764918650061182; 0.004865391401993991; 0.005606507985677648; -0.1833846314303302; -0.0365543225953118; 0.08346702197269619; 0.505615234375; -0.451416015625; -0.24365234375;0
384;2145192181; 0.9999387330795281; -0.009112375812512619; 0.0038908036748131485; 0.004935214394928597; -0.17708213130714667; -0.05347927942021691; 0.07648627194843877; 0.509033203125; -0.449462890625; -0.242431640625;0
385;2145208848; 0.9999666727826495; -0.005686734445181196; 0.0038371352259932157; 0.004426146021669145; -0.17185649598740108; -0.06114352209157378; 0.06526049476222254; 0.509033203125; -0.44921875; -0.233154296875;0
386;2145225515; 0.9999862806093597; -0.0015485408062614336; 0.0035074027593324235; 0.0035691371946458827; -0.1712430442157557; -0.05442555196930765; 0.06408586524601198; 0.510009765625; -0.453857421875; -0.23291015625;0
387;2145242182; 0.9999915195991818; 7.024043233330168E-4; 0.0031850604060977843; 0.0025145075254114917; -0.16983077876151806; -0.0302458540458905; 0.056671571439406994; 0.512451171875; -0.461181640625; -0.2265625;0
388;2145258849; 0.9999948170767184; -7.756413351157065E-4; 0.0026641424291541376; 0.0016329560119455605; -0.18162713706456693; -3.3147814587273193E-4; 0.05577175127755701; 0.51513671875; -0.467041015625; -0.225341796875;0
389;2145275516; 0.9999804344784948; -0.006197140926555711; 7.114048182135235E-4; 4.690498071779487E-4; -0.18056319229179635; 0.006876065534408268; 0.06042656707635536; 0.514404296875; -0.46337890625; -0.218994140625;0
390;2145292183; 0.9999465480815589; -0.010269240981130412; -0.0011497173128180163; -3.4902657035067175E-4; -0.1588130640174587; -0.014188552478557633; 0.04943647818321724; 0.515869140625; -0.45166015625; -0.2197265625;0
391;2145308850; 0.9999525394118648; -0.00954642022742358; -0.001463568900789636; -0.0012816983565397957; -0.1495482566614364; -0.05148101554553791; 0.02473566913599967; 0.511962890625; -0.432861328125; -0.21923828125;0
392;2145325517; 0.9999961466056132; -0.002407985598968543; -4.559730895622727E-4; -0.0013040198701399358; -0.16063811841780334; -0.07022334353656876; 0.01751528619665437; 0.514404296875; -0.4228515625; -0.21337890625;0
393;2145342184; 0.9999878276880236; 0.004823973120983427; 8.218419910171471E-4; -6.311377482831477E-4; -0.1607247329666922; -0.04816983421642142; 0.01631479184467844; 0.5166015625; -0.427490234375; -0.212646484375;0
394;2145358851; 0.9999728674776831; 0.007236974174000377; 0.0013029858844864075; -4.3902283502067485E-4; -0.16546101785073153; -0.01768556307941597; 0.020957493598879367; 0.51611328125; -0.4365234375; -0.213134765625;0
395;2145375518; 0.9999838960828701; 0.005614198564611483; 7.897614848596247E-4; -2.54216832350801E-4; -0.17331189490946775; -0.0011974976678167312; 0.027613053895705477; 0.5185546875; -0.4453125; -0.21044921875;0
396;2145392185; 0.9999950568492532; 0.0031402958703244943; -1.0896016877726124E-4; -1.1378307143290745E-4; -0.17006873041152368; -0.0043534939142108875; 0.03438299027821794; 0.51904296875; -0.449951171875; -0.21435546875;0
397;2145408852; 0.999997220452399; 0.002317627225876695; -4.1021012054803796E-4; 1.393526996586736E-4; -0.16176113590997715; -0.017146717033983967; 0.04022382134380094; 0.517822265625; -0.451904296875; -0.215087890625;0
398;2145425519; 0.9999948772708531; 0.0031654872609923612; -1.533087145185741E-4; 4.490199215410884E-4; -0.16110521500252428; -0.02706347758284222; 0.04487350512735948; 0.515380859375; -0.45751953125; -0.2177734375;0
399;2145442186; 0.9999928158714729; 0.0037650596794954194; 1.0616378492325774E-4; 4.257467593813819E-4; -0.16118525606064418; -0.022656475614187262; 0.050332019610350984; 0.51513671875; -0.464111328125; -0.217529296875;0
400;2145458853; 0.9999942545442009; 0.0033803826558797545; 2.444023927443973E-4; -6.449153496652926E-5; -0.15765984776204814; -0.02339699919405468; 0.05476891942765592; 0.515869140625; -0.470458984375; -0.21923828125;0
401;2145475520; 0.9999947662021829; 0.0030760584820530568; 3.6940818396324904E-4; -9.321856307153016E-4; -0.1603038890080153; -0.03454181726021536; 0.06079535626186218; 0.514892578125; -0.476318359375; -0.2158203125;0
402;2145492187; 0.9999883064756335; 0.00437351737807451; -1.6646686694982152E-4; -0.002057072317744671; -0.17277200604976536; -0.04069585209890073; 0.0684863981694453; 0.51416015625; -0.477294921875; -0.215087890625;0
403;2145508854; 0.9999819196589245; 0.004979361973703855; -0.0012120784239775253; -0.0031459776669908045; -0.1788158734741397; -0.03931591476703985; 0.07549020946368769; 0.516845703125; -0.477783203125; -0.2177734375;0
404;2145525521; 0.9999774740987908; 0.004032965629654661; -0.0025101578896954972; -0.004741897362978725; -0.1785034174828194; -0.03905576196735451; 0.08226156670248819; 0.517822265625; -0.47412109375; -0.211669921875;0
405;2145542188; 0.9999665674483549; 0.0029788067089546177; -0.004065130991724453; -0.006439363801306706; -0.18414786691903687; -0.046468496831823344; 0.09412496631763287; 0.515869140625; -0.467529296875; -0.21826171875;0
406;2145558855; 0.9999454423064026; 7.29918014826969E-4; -0.0062300996597789435; -0.00835257376942293; -0.1922619340437119; -0.04842106316184952; 0.11037149931897909; 0.51171875; -0.453369140625; -0.2197265625;0
407;2145575522; 0.9999082974355947; -0.0030774342735021554; -0.00861446211249878; -0.009985847998779137; -0.19594994867038973; -0.051883208936236644; 0.12353403394273549; 0.51171875; -0.42724609375; -0.22705078125;0
408;2145592189; 0.9998541874262302; -0.005826665949912213; -0.01124159786723561; -0.011457762762961524; -0.20753376489514683; -0.08273213934665932; 0.13685233863343904; 0.510009765625; -0.393798828125; -0.235107421875;0
409;2145608856; 0.9998164758221899; -0.003891678741914484; -0.013620535534750289; -0.012897694476630655; -0.22377112622457523; -0.1228459689699678; 0.1438260373170016; 0.5009765625; -0.354736328125; -0.246826171875;0
410;2145625523; 0.9997793252391968; 0.001743169537503586; -0.015735031072922127; -0.013808366353557727; -0.24213651816003978; -0.14336300393423027; 0.1458629964961709; 0.494384765625; -0.31884765625; -0.2646484375;0
411;2145642190; 0.9997093935865545; 0.007006294994615858; -0.018115823642474164; -0.014277854846114936; -0.2593201490362254; -0.13706078570702213; 0.14730757931974087; 0.480224609375; -0.29345703125; -0.291259765625;0
412;2145658857; 0.9996235052721786; 0.010142020962982834; -0.021056581698451985; -0.014373847269458506; -0.2649938195726688; -0.12460681469866403; 0.14798726617627023; 0.461181640625; -0.26611328125; -0.3212890625;0
413;2145675524; 0.9995464608091807; 0.011131900862306143; -0.024176173401518175; -0.014087799923783147; -0.27068738569097883; -0.11409315137078024; 0.14683554858222692; 0.437255859375; -0.244384765625; -0.363037109375;0
414;2145692191; 0.9994555775502914; 0.012071791093258732; -0.027277904871002737; -0.014097385192395673; -0.27200442832801125; -0.11632702883915341; 0.1454855686342986; 0.407958984375; -0.22314453125; -0.407958984375;0
415;2145708858; 0.999350531305808; 0.014800426190922922; -0.029425217246829286; -0.014615729654837784; -0.2721837037406052; -0.11879069688277383; 0.14006010884088504; 0.37744140625; -0.204345703125; -0.4599609375;0
416;2145725525; 0.999263006490648; 0.01764231868973376; -0.030566328856799167; -0.015096091902845138; -0.26641686986797; -0.09871020233097307; 0.1333010537522751; 0.340087890625; -0.193359375; -0.51708984375;0
417;2145742192; 0.9992283731541984; 0.017272124578056602; -0.03173632140970695; -0.015399282436331577; -0.26562823673513514; -0.07176737721158406; 0.1273533310872048; 0.298095703125; -0.185791015625; -0.570068359375;0
418;2145758859; 0.9992147351637373; 0.014860221498799342; -0.033098173573027696; -0.015924752895996874; -0.2678449804241956; -0.06372645918733538; 0.12246863314610562; 0.25537109375; -0.179443359375; -0.619384765625;0
419;2145775526; 0.9992089892600264; 0.012258814944846097; -0.03399729272556585; -0.01659220676814265; -0.2556558497113586; -0.05471310103236415; 0.11519655810913114; 0.207275390625; -0.169189453125; -0.669921875;0
420;2145792193; 0.9992249776060167; 0.009972433016505057; -0.03405415055674877; -0.017038472286125324; -0.24138263844909802; -0.04509744913081692; 0.1049371043738894; 0.15673828125; -0.15576171875; -0.717041015625;0
421;2145808860; 0.999255871004076; 0.007895860440942076; -0.03374817593379853; -0.016923955593300625; -0.2387052417371339; -0.04350567502584643; 0.09369073230535346; 0.105224609375; -0.140869140625; -0.754638671875;0
422;2145825527; 0.9992790781847336; 0.006712481218459583; -0.033530112607398306; -0.016492363284141387; -0.2262191564176791; -0.05081790873923933; 0.08166775838723797; 0.05517578125; -0.1318359375; -0.790771484375;0
423;2145842194; 0.9993099932587336; 0.007012889986240915; -0.032678539614248665; -0.01620091960200862; -0.1999376568478682; -0.05490103110973825; 0.07235412324766999; -2.44140625E-4; -0.121337890625; -0.82568359375;0
424;2145858861; 0.9993496528205751; 0.008161528702883556; -0.03135286150191102; -0.015832211856528253; -0.17402687857844712; -0.047884145998159114; 0.06468529549804075; -0.04931640625; -0.120361328125; -0.85498046875;0
425;2145875528; 0.9993897468352498; 0.009325219567670542; -0.030089495662170118; -0.01509292719740893; -0.1559965261869348; -0.04129349247813742; 0.058992306962983736; -0.099853515625; -0.125; -0.886474609375;0
426;2145892195; 0.9994238207185874; 0.010187833271899347; -0.029148933061775354; -0.014091640601614747; -0.13967899548752233; -0.03553591664808701; 0.0549886427262931; -0.147705078125; -0.13330078125; -0.907958984375;0
427;2145908862; 0.9994586648024438; 0.010778171935166074; -0.028267144507536812; -0.01292969073266148; -0.11740917178840504; -0.03149454729052589; 0.05067543735628365; -0.200439453125; -0.1474609375; -0.93017578125;0
428;2145925529; 0.9995043500848182; 0.011606662347918578; -0.02679102057765126; -0.011772033259991073; -0.09276284870023009; -0.025333493068296208; 0.054107019673111253; -0.242919921875; -0.166015625; -0.953125;0
429;2145942196; 0.9995635770871274; 0.011019619656363167; -0.02525130746673976; -0.010658086818728403; -0.06827716684655258; -0.006331854968121499; 0.05303401132231768; -0.28857421875; -0.187255859375; -0.9658203125;0
430;2145958863; 0.9996254691090802; 0.009179933510750322; -0.024013482078503626; -0.009380991826813262; -0.051050477405107056; -0.002347094183653149; 0.053570899267535624; -0.32861328125; -0.208251953125; -0.98193359375;0
431;2145975530; 0.9996756808722042; 0.007794046061304599; -0.022706465256613188; -0.008497196845997148; -0.03240427557631953; -0.007553376054942161; 0.057113645886684085; -0.36572265625; -0.2255859375; -0.9853515625;0
432;2145992197; 0.9997201574020386; 0.0075090563735170646; -0.02095609512613134; -0.008003938623404622; -0.006565381068877021; -0.007604469382616254; 0.06574910854137918; -0.402099609375; -0.242431640625; -0.99365234375;0
433;2146008864; 0.9997566417465821; 0.007884996332663617; -0.01917864809864117; -0.0075275210752799035; 0.007977923003823991; 5.699830329847205E-4; 0.07116391642737092; -0.434814453125; -0.262451171875; -0.998779296875;0
434;2146025531; 0.9997875746982667; 0.007463284445924832; -0.018006010500423168; -0.006699884334507689; 0.0080450353342249; 0.005075074816816994; 0.07050431886936762; -0.463134765625; -0.279296875; -1.00244140625;0
435;2146042198; 0.9998180833236181; 0.006183699439922745; -0.01689533451187897; -0.006333229196481064; 0.015351870083605935; 0.005571528682976963; 0.0725125196529714; -0.490966796875; -0.296875; -1.004638671875;0
436;2146058865; 0.9998470846637327; 0.005131089346412779; -0.015525104079244014; -0.006200835014932252; 0.03288261697456113; 0.003153662119855909; 0.07663175303750816; -0.51513671875; -0.3154296875; -1.001708984375;0
437;2146075532; 0.9998735421814178; 0.004876882402010341; -0.014005863659822149; -0.005740335074202269; 0.04113869159895121; -3.479896417141184E-4; 0.0784094591368068; -0.537353515625; -0.330810546875; -1.004638671875;0
438;2146092199; 0.9998910037497768; 0.005865274195386724; -0.012663781677224486; -0.004817448755128045; 0.042800805997129945; -0.007017983160386622; 0.07824444085854336; -0.55810546875; -0.345458984375; -1.001953125;0
439;2146108866; 0.9999000023074484; 0.0076153456466130365; -0.011223051845402067; -0.004004373049916341; 0.051219168742310535; -0.007795335960920894; 0.07417561420268104; -0.578125; -0.36376953125; -1.002197265625;0
440;2146125533; 0.9999120070644957; 0.00871377148543756; -0.009385285869019657; -0.003459006202422177; 0.06149619074825106; 0.0024921420138312436; 0.07165491142341054; -0.59228515625; -0.383056640625; -0.998046875;0
441;2146142200; 0.9999397238380492; 0.0072055376033293705; -0.007758576834423436; -0.002904032375401586; 0.06954301338620607; 0.028600495620103923; 0.06688027169095732; -0.605712890625; -0.402099609375; -0.994873046875;0
442;2146158867; 0.9999706492644248; 0.002465561258426535; -0.006867078248442738; -0.002337702653315482; 0.06913938035519708; 0.046525968251372195; 0.06400713775044367; -0.61279296875; -0.4140625; -0.995361328125;0
443;2146175534; 0.9999762901337407; -0.0021294791289755144; -0.006263064915115913; -0.0019127223711738613; 0.07433524597399263; 0.03359829417855183; 0.06445950344598018; -0.623046875; -0.4140625; -0.993408203125;0
444;2146192201; 0.9999808934660381; -0.0035773364595065443; -0.004776987411577117; -0.001611135621015794; 0.08221619531089965; 0.0077651281937338975; 0.06558524345514928; -0.626220703125; -0.408447265625; -0.9912109375;0
445;2146208868; 0.9999945092710967; -0.0014311733866881338; -0.002698092195400792; -0.001285872816800829; 0.08442878596964512; -0.009558650379177216; 0.0671218156447174; -0.63037109375; -0.409912109375; -0.99169921875;0
446;2146225535; 0.9999984346381514; 0.001497898072991763; -7.21175003263408E-4; -6.057468319537185E-4; 0.08406889033949673; -0.0032364672000013707; 0.06599814988806138; -0.632080078125; -0.407470703125; -0.989013671875;0
447;2146242202; 0.999995527086708; 0.002824929035416701; 9.21841870834328E-4; 3.402794248124619E-4; 0.08319462931810187; 0.01225476852111921; 0.06379918382875502; -0.634033203125; -0.415283203125; -0.990478515625;0
448;2146258869; 0.999995460475161; 0.0017510500861797756; 0.002123097694479437; 0.001226910284409577; 0.07995242609466602; 0.026128514969068373; 0.0629967546694122; -0.633056640625; -0.416015625; -0.990234375;0
449;2146275536; 0.9999926879175296; -4.7258818461962115E-4; 0.0032561174974448104; 0.0019489665786828622; 0.07951108755768181; 0.026397344672769496; 0.06280926922123825; -0.628662109375; -0.4169921875; -0.989501953125;0
450;2146292203; 0.9999848673311551; -0.0016507190080776168; 0.004580677684704605; 0.0025607864802602853; 0.07952737036860642; 0.013909318980409143; 0.06646259949780134; -0.623046875; -0.411376953125; -0.991455078125;0
451;2146308870; 0.9999739453752569; -0.0013400588602531655; 0.006439602375829912; 0.002973942523849846; 0.08525010403294371; 0.00892149066450965; 0.07196057094746472; -0.6181640625; -0.40576171875; -0.9921875;0
452;2146325537; 0.9999601555603699; -7.986223804534454E-4; 0.008440630944685891; 0.002793786539784182; 0.07589685304669205; 0.011328381072716696; 0.07560831520633549; -0.60498046875; -0.398681640625; -0.995849609375;0
453;2146342204; 0.9999503396117001; -0.0012141311319959075; 0.009567792194708491; 0.0025102885409663688; 0.05906856550612518; 0.017302701922585095; 0.07933722365115127; -0.593017578125; -0.39794921875; -1.001708984375;0
454;2146358871; 0.9999366178556247; -0.0029345127770920576; 0.010514366297049218; 0.002756266965829854; 0.05191355170617768; 0.02472463270040199; 0.08302052513560898; -0.57763671875; -0.386962890625; -1.00146484375;0
455;2146375538; 0.9999153918739992; -0.005488507165244669; 0.011210100404507763; 0.0036631996238798013; 0.044155529141723646; 0.026001933014502526; 0.08652683246487204; -0.558837890625; -0.375244140625; -1.002685546875;0
456;2146392205; 0.999887955756588; -0.008072294046750694; 0.01166996503627349; 0.004767170836707593; 0.046730707743492; 0.02070497383107965; 0.08702170915410093; -0.544677734375; -0.35595703125; -1.00634765625;0
457;2146408872; 0.9998546038423188; -0.010193037891742002; 0.012447035309593735; 0.0056519435470150795; 0.04148113278094809; 0.009367562692528433; 0.08196120622159639; -0.524658203125; -0.33056640625; -1.00439453125;0
458;2146425539; 0.9998391484407537; -0.010233074336097298; 0.01320010081722667; 0.006535960014820236; 0.02575262726623989; -0.014139802806817522; 0.07680754706277586; -0.50146484375; -0.3046875; -1.00244140625;0
459;2146442206; 0.9998325021219447; -0.008496460041401574; 0.014310835646134003; 0.007614318777520641; 0.017394767818445747; -0.02259832077005775; 0.07350997306161973; -0.48095703125; -0.28125; -1.00439453125;0
460;2146458873; 0.9998078595364128; -0.007915444619514697; 0.01583928107868116; 0.008408740726326497; 0.009577886361361296; -0.016971733634267072; 0.07454401350781231; -0.458740234375; -0.259765625; -1.003662109375;0
461;2146475540; 0.9997795240820964; -0.008091692095972672; 0.016997315174534122; 0.009301560194848903; 7.338736799412937E-5; -0.018291277712218917; 0.0842480678961407; -0.431396484375; -0.23779296875; -0.996826171875;0
462;2146492207; 0.9997549316112926; -0.007214974700341395; 0.018061054472840902; 0.010574458392860892; -0.011596306352548484; -0.020745561684392774; 0.089139529349299; -0.40478515625; -0.217041015625; -0.995361328125;0
463;2146508874; 0.9997241485496413; -0.005871583109912731; 0.019270109931668836; 0.012075354309480703; -0.026780597441768802; -0.02134421759919221; 0.08280952743246942; -0.37646484375; -0.203125; -0.987060546875;0
464;2146525541; 0.9996799704770021; -0.005474335213349245; 0.021093564375411825; 0.012847171790414114; -0.04302968593168165; -0.020917428980937937; 0.07905471805137138; -0.3427734375; -0.18798828125; -0.98095703125;0
465;2146542208; 0.9996410860394856; -0.006155780581109084; 0.022605263301923917; 0.012992595517662743; -0.06511298582717481; -0.019613399904872836; 0.08502426026279383; -0.309326171875; -0.173095703125; -0.968994140625;0
466;2146558875; 0.9996255645435859; -0.006689669609022116; 0.022856373001544087; 0.013474614823942216; -0.08330872548193907; -0.029144809569084086; 0.09042570284803665; -0.27001953125; -0.15869140625; -0.959228515625;0
467;2146575542; 0.999605668552987; -0.0050428463335056226; 0.023510993680837092; 0.01450207825561989; -0.09173408931755561; -0.05165796388109191; 0.09596646205340192; -0.23291015625; -0.152099609375; -0.944580078125;0
468;2146592209; 0.9995745695353241; -0.0012176607520089852; 0.024931390494877585; 0.015087180271890266; -0.10640376996959296; -0.061046431600902666; 0.10685253583932501; -0.197509765625; -0.14990234375; -0.931640625;0
469;2146608876; 0.9995305103116829; 0.0037093789136425012; 0.02648585884892518; 0.014949874420095296; -0.11943469630007772; -0.06740733130601513; 0.12685627049659162; -0.15234375; -0.160400390625; -0.92236328125;0
470;2146625543; 0.9994895092023162; 0.0077933621996202525; 0.027785909650669575; 0.013708673350234651; -0.11800573455786134; -0.049142118983374526; 0.13711208280596013; -0.114501953125; -0.18994140625; -0.909912109375;0
471;2146642210; 0.9994554280225664; 0.009568208424440724; 0.029060541213726646; 0.012360490610832527; -0.11445476783023885; -0.026809491947647743; 0.1359088258802435; -0.06982421875; -0.22412109375; -0.89208984375;0
472;2146658877; 0.9994550069815576; 0.008287515291032041; 0.0300464004400845; 0.010872898895403549; -0.1380599599849523; -0.010412450634757597; 0.13659905025037156; -0.028564453125; -0.257568359375; -0.876953125;0
473;2146675544; 0.9994799613424772; 0.006090743812904739; 0.030342611506093076; 0.009057352904470047; -0.16327364359220653; -0.016657479757680067; 0.1465433813193709; 0.01708984375; -0.29150390625; -0.854736328125;0
474;2146692211; 0.9995085013998821; 0.00414235762800904; 0.03035310204456682; 0.006654750101657753; -0.1660688316442581; -0.015262374582458334; 0.1527597998432782; 0.0595703125; -0.321533203125; -0.831298828125;0
475;2146708878; 0.9995012566225203; 0.0012491194247688416; 0.03112788067745287; 0.005170372829465864; -0.1493568572293917; -0.0010728805321997686; 0.14521677529000881; 0.107421875; -0.347900390625; -0.797607421875;0
476;2146725545; 0.9994697085276649; -0.0028950456456201534; 0.03209429799717551; 0.004677230206303097; -0.18147932181250656; -0.007876260186512482; 0.14965315870108137; 0.15234375; -0.368408203125; -0.75927734375;0
477;2146742212; 0.9994919580530615; -0.006408376827429563; 0.030885528538651175; 0.004565371899757244; -0.21282362424091503; -0.020797780288613663; 0.1555917389685624; 0.196044921875; -0.37939453125; -0.71435546875;0
478;2146758879; 0.9995407017842202; -0.008504996677271892; 0.028771340205191013; 0.004273229577885248; -0.21408132394533655; -0.0381615665569245; 0.15593690411314276; 0.238037109375; -0.38720703125; -0.673095703125;0
479;2146775546; 0.9995858039144019; -0.008679308755192489; 0.02707903648683391; 0.004428994838070059; -0.1991455263644372; -0.05219581106018807; 0.14413923777187887; 0.27294921875; -0.3896484375; -0.634521484375;0
480;2146792213; 0.9996194325202823; -0.007114897934959674; 0.026134577691159403; 0.005229933470767232; -0.1952920598899307; -0.05988957882925808; 0.13723094061949548; 0.307861328125; -0.404296875; -0.59130859375;0
481;2146808880; 0.9996465771654968; -0.005489700655665175; 0.025302186324449027; 0.0060318583554725665; -0.19986540609053874; -0.05073975469399125; 0.1309718789817061; 0.339599609375; -0.42236328125; -0.551025390625;0
482;2146825547; 0.9996739390189586; -0.0072672542652355565; 0.023679089825136505; 0.006205108122901714; -0.22503587495340396; -0.03608972523714746; 0.12988856373713029; 0.366943359375; -0.431884765625; -0.515625;0
483;2146842214; 0.9997061462807978; -0.010212054174577267; 0.021060391694681494; 0.006308323041681622; -0.2267878389655919; -0.044972212425935465; 0.13782337673048928; 0.385986328125; -0.442138671875; -0.48046875;0
484;2146858881; 0.9997330985516891; -0.01068468097317482; 0.019266421996280206; 0.006955158963047187; -0.20705989550405732; -0.052602269330738693; 0.13615980302597872; 0.406494140625; -0.44677734375; -0.44873046875;0
485;2146875548; 0.999758727589484; -0.009163376154741554; 0.01834239544783517; 0.00787881179733368; -0.19990370191028092; -0.05537825573408693; 0.12142912607069262; 0.421875; -0.45654296875; -0.42041015625;0
486;2146892215; 0.9997827043925548; -0.008019446474121728; 0.017342153303419542; 0.008335598032470401; -0.21247072674154224; -0.05190620919608342; 0.1070610145464154; 0.4384765625; -0.466064453125; -0.389892578125;0
487;2146908882; 0.9998031856166067; -0.009118453668545468; 0.015621063028692874; 0.008150228428284176; -0.2286468456637507; -0.04805000639391711; 0.10957756468754368; 0.453125; -0.477783203125; -0.367919921875;0
488;2146925549; 0.999830526461157; -0.01030918427157329; 0.013150286491788179; 0.007727162561004794; -0.21107250599139848; -0.053681766754147243; 0.12214245381544178; 0.462158203125; -0.48291015625; -0.343994140625;0
489;2146942216; 0.999857719367458; -0.009503650201553526; 0.011903073653946272; 0.007248344068872468; -0.18915052789092934; -0.060490093567033484; 0.12063982416700399; 0.47021484375; -0.4921875; -0.3251953125;0
490;2146958883; 0.9998905731443732; -0.007730414772423144; 0.01078393416593726; 0.006541344538220112; -0.1838408388427974; -0.05351278214799547; 0.11351015259460773; 0.476318359375; -0.5; -0.310546875;0
491;2146975550; 0.9999169099285806; -0.005747909742633228; 0.010127325907177022; 0.005529199077541931; -0.17364581863164738; -0.050752844524184396; 0.10137040775230992; 0.482421875; -0.507568359375; -0.293212890625;0
492;2146992217; 0.9999364288079018; -0.0032087182898487554; 0.009995349098199048; 0.004115272316795808; -0.1746190109093209; -0.04662981460109211; 0.08849492691589857; 0.4873046875; -0.515380859375; -0.2783203125;0
493;2147008884; 0.9999509247105295; -0.0013281187752006707; 0.009345797767587927; 0.0030067150119905688; -0.189741893236621; -0.0414866603438699; 0.0818178453477642; 0.49462890625; -0.52734375; -0.26123046875;0
494;2147025551; 0.999961884997811; 1.5365368288272618E-4; 0.008368377666892303; 0.0024849944455547987; -0.19281354076142715; -0.038892190538857625; 0.07948057227991992; 0.498779296875; -0.540283203125; -0.249267578125;0
495;2147042218; 0.9999667337206742; 7.245904492459987E-4; 0.007793214636474589; 0.002296132904881128; -0.1868448871153833; -0.02695279250654954; 0.07582521860902992; 0.50390625; -0.552734375; -0.2353515625;0
496;2147058885; 0.9999730647455738; -7.068360509436822E-4; 0.0070108639240084045; 0.002053765609983889; -0.18475754747923098; -0.010729185662532772; 0.06870008325155032; 0.508544921875; -0.560546875; -0.21728515625;0
497;2147075552; 0.9999789969089291; -0.0027620313055422563; 0.005458622153746706; 0.0021401794928955086; -0.1871752744821207; -0.008396385942268887; 0.06399598526601984; 0.512939453125; -0.565185546875; -0.2099609375;0
498;2147092219; 0.9999863417168822; -0.003013301079758113; 0.0036120115338915686; 0.0022781064436649956; -0.18639517577227718; -0.01947151211607748; 0.06937486335752813; 0.513916015625; -0.568115234375; -0.2080078125;0
499;2147108886; 0.9999890546330165; -0.003947298238542951; 0.0016381303371953984; 0.001904200562006367; -0.1918309872324488; -0.016796822881760872; 0.0757704421816969; 0.51611328125; -0.5712890625; -0.19970703125;0
500;2147125553; 0.9999726889234521; -0.007224513657180076; -2.753035922541947E-4; 0.001533628882709255; -0.18958879144700028; -0.010580860738454784; 0.08348403298565492; 0.515380859375; -0.564697265625; -0.203125;0
501;2147142220; 0.9999466998709298; -0.010157753106482592; -0.0016885420636967297; 7.525255899801798E-4; -0.17467973127332967; -0.03450716009980567; 0.08177690208043495; 0.5146484375; -0.55224609375; -0.206787109375;0
502;2147158887; 0.9999771388596858; -0.006637817222180875; -0.0012464490021536492; 3.278801713219731E-4; -0.15924488233292822; -0.07222232951285286; 0.060856121629268664; 0.51416015625; -0.543212890625; -0.20751953125;0
503;2147175554; 0.9999995479900381; 3.6724783303176967E-4; 3.19199298199846E-4; 8.168601818461381E-4; -0.15506505949346416; -0.05724721164614668; 0.041035471919361265; 0.515380859375; -0.540283203125; -0.209228515625;0
504;2147192221; 0.999993756396279; 0.0032996862348185774; 7.971726108615408E-4; 9.817102626149474E-4; -0.1592030882715784; -0.019391350238684428; 0.02556902306656871; 0.51611328125; -0.545166015625; -0.2099609375;0
505;2147208888; 0.9999979235259164; 0.0020212134953709326; -2.304129611032657E-4; 1.206222570960397E-4; -0.1597525050142105; 0.002505898553472819; 0.01273785663040651; 0.513671875; -0.550048828125; -0.2099609375;0
506;2147225555; 0.9999987588511031; -8.579940962325505E-4; -0.0011151488244731669; -7.089326367367282E-4; -0.1550407609350667; 0.007961641402298162; 0.0015938387862820327; 0.512939453125; -0.55029296875; -0.208984375;0
507;2147242222; 0.9999945886498871; -0.0028870104559496346; -0.0012836935175319921; -9.165001491585474E-4; -0.14893119060107762; 0.00620711140749378; -0.00453379674139439; 0.5126953125; -0.5439453125; -0.208740234375;0
508;2147258889; 0.9999924719517921; -0.00372199398112516; -9.646117998991511E-4; -5.218473189403453E-4; -0.14575651363604786; 5.96791640639787E-4; -0.003413519529192062; 0.51318359375; -0.5361328125; -0.21337890625;0
509;2147275556; 0.9999949080384939; -0.0031610186696102716; -4.144158797345088E-4; 1.4183628988535815E-4; -0.14515803954628026; -0.007414574090791347; 0.0014646004920878877; 0.514404296875; -0.529296875; -0.21142578125;0
510;2147292223; 0.9999987535415126; -0.0013796162390919964; -7.813849642712702E-6; 7.677977583355963E-4; -0.15005638509581398; -0.016291879450230244; 0.009686235604556274; 0.513916015625; -0.529541015625; -0.212646484375;0
511;2147308890; 0.9999994261663013; 3.70482528127547E-4; -5.845233056966937E-5; 0.0010034904530255575; -0.15705064221637283; -0.020682639481513186; 0.022212715009289962; 0.511962890625; -0.531982421875; -0.21630859375;0
512;2147325557; 0.9999987535833955; 0.0014556085724291012; -4.3563996796031074E-4; 4.2924719846106074E-4; -0.15925806150217445; -0.027957019549893398; 0.03550706363131356; 0.51318359375; -0.53271484375; -0.21923828125;0
513;2147342224; 0.9999952408298786; 0.0028937463540080754; -8.561948906689598E-4; -6.414670225672604E-4; -0.16200018238267955; -0.03846627534158116; 0.04853272607438422; 0.51123046875; -0.534912109375; -0.217529296875;0
514;2147358891; 0.9999824092608285; 0.005655223314158242; -0.0011790858550260188; -0.0013451300020569587; -0.16445132351848155; -0.045155915367619204; 0.056937292234034556; 0.51220703125; -0.5400390625; -0.218994140625;0
515;2147375558; 0.9999577941726984; 0.008883106972070731; -0.0014451803530085574; -0.0018470889370592813; -0.1664413940004707; -0.042423492154866224; 0.06364562539030791; 0.5107421875; -0.545654296875; -0.218994140625;0
516;2147392225; 0.9999322580574364; 0.011280333875863635; -0.0015542781679263042; -0.0024119666627319195; -0.17445205381711648; -0.036326021939819916; 0.06841909058304585; 0.509033203125; -0.55517578125; -0.2216796875;0
517;2147408892; 0.9999366717100895; 0.010598177074305493; -0.0021306242745924853; -0.0031291615891227633; -0.1915036384948578; -0.01977125672249585; 0.07585399801913482; 0.50634765625; -0.562744140625; -0.21875;0
518;2147425559; 0.999968807189549; 0.005452462590000207; -0.0038991227114452136; -0.004177576055129313; -0.2029346066823118; -0.00393601907184211; 0.09415136746821444; 0.5078125; -0.56494140625; -0.22216796875;0
519;2147442226; 0.9999609299115612; -0.0015355395594755517; -0.006624537955647603; -0.0056476778892922625; -0.20480899245593626; -0.018674738059940778; 0.11941840362738734; 0.505615234375; -0.554443359375; -0.230712890625;0
520;2147458893; 0.9999209309996404; -0.004832624223564064; -0.009133618840751203; -0.007166205327641305; -0.20654305993082422; -0.05856505607979587; 0.13840258234803976; 0.505615234375; -0.531005859375; -0.239501953125;0
521;2147475560; 0.9998997011063361; -0.002852906057062954; -0.010962176987803829; -0.008501725129487854; -0.21061695492590438; -0.09505324375062678; 0.15302112543880741; 0.502685546875; -0.50048828125; -0.25537109375;0
522;2147492227; 0.9998716697681006; 0.002552534175120025; -0.01259266990181246; -0.009568345164090483; -0.21605486435769622; -0.11364633096151838; 0.16121288987674715; 0.49755859375; -0.47802734375; -0.2646484375;0
523;2147508894; 0.9998095307723339; 0.00841907099821776; -0.014174067506209255; -0.010445919330614001; -0.22525170495356808; -0.1095186560891466; 0.16402134101816762; 0.489501953125; -0.46240234375; -0.284912109375;0
524;2147525561; 0.9997523718133768; 0.010483142579288895; -0.016263466936440766; -0.010990833380456658; -0.24474625313144105; -0.08639947853282236; 0.16511276702204913; 0.479248046875; -0.44482421875; -0.307861328125;0
525;2147542228; 0.9996990172371057; 0.008370673500907089; -0.020080290003470502; -0.011339696366419226; -0.27123456760403597; -0.07964724104293303; 0.16630726332500134; 0.465087890625; -0.42724609375; -0.33740234375;0
526;2147558895; 0.999613710577508; 0.007538921713352187; -0.024208074936219685; -0.011382591653410365; -0.2840854427241075; -0.10587436297251437; 0.1669553935700066; 0.447509765625; -0.40576171875; -0.37255859375;0
527;2147575562; 0.9995199514303762; 0.009845393867388919; -0.02693695166579169; -0.011719025009320387; -0.283040857129772; -0.113470574128687; 0.16395249195908357; 0.427490234375; -0.380126953125; -0.414306640625;0
528;2147592229; 0.9994186597324436; 0.012804091914148663; -0.029152115949707017; -0.01218818872987127; -0.2914678587859683; -0.10760693201667795; 0.15619819451347428; 0.39892578125; -0.36083984375; -0.46142578125;0
529;2147608896; 0.9992735344395342; 0.01734929737571067; -0.031534709537664074; -0.012528660888760436; -0.2992505529124975; -0.11340400346323405; 0.1475302788685619; 0.36572265625; -0.349853515625; -0.5126953125;0
530;2147625563; 0.9990867044181205; 0.023807355533481955; -0.033356549940637976; -0.01209576179905104; -0.2920518876188955; -0.10296503317164274; 0.13573627347139722; 0.327880859375; -0.352783203125; -0.567626953125;0
531;2147642230; 0.9989871398158557; 0.026706298308596332; -0.03460718998723978; -0.01066820108430967; -0.28133797795165083; -0.056026251420664905; 0.12700540113241304; 0.285400390625; -0.36669921875; -0.6240234375;0
532;2147658897; 0.9990178628488686; 0.023434293804535627; -0.03636350631001468; -0.00958326622834452; -0.27240037320906213; -0.02330221819458922; 0.12097070911499697; 0.235107421875; -0.37890625; -0.679931640625;0
533;2147675564; 0.9990525933608475; 0.018743805778684397; -0.038184143710266794; -0.00919546698160893; -0.27676617435481593; -0.023766570025540418; 0.11363534053756025; 0.185546875; -0.390380859375; -0.739013671875;0
534;2147692231; 0.9990514542213018; 0.015532050174565583; -0.03980976893611483; -0.008374337760683723; -0.273337831891161; -0.027001930397186506; 0.10171900199593663; 0.13037109375; -0.395263671875; -0.78515625;0
535;2147708898; 0.9990563210750958; 0.014325517783914353; -0.04041193005075378; -0.0069370577113774265; -0.24776288536198188; -0.026883311752640863; 0.09039075826366347; 0.072021484375; -0.398681640625; -0.82666015625;0
536;2147725565; 0.9990914230500018; 0.013590761802837519; -0.039959235995328087; -0.0059058479671237896; -0.22029526832811572; -0.01833647627826182; 0.07830968478511183; 0.010986328125; -0.40283203125; -0.869873046875;0
537;2147742232; 0.9991477790865176; 0.011279015553352333; -0.0393385571094238; -0.005383054818148465; -0.19857702124540583; -0.002680644223926311; 0.06879570755576908; -0.051025390625; -0.41162109375; -0.90673828125;0
538;2147758899; 0.9992071201157263; 0.008768753026118417; -0.03849813016689197; -0.005112147695094216; -0.17678783203063433; -0.003452059815923142; 0.06123083300131597; -0.112548828125; -0.416259765625; -0.9375;0
539;2147775566; 0.9992741788457108; 0.007391569787901661; -0.03697213559685137; -0.005435198037702788; -0.1540073390702923; -0.004952689526855163; 0.05722099825131027; -0.174072265625; -0.4169921875; -0.95751953125;0
540;2147792233; 0.9993516283331487; 0.006270710665079657; -0.03488823712042805; -0.006309678776904443; -0.12178594617501018; 0.0025547999041916052; 0.05444002597160932; -0.229736328125; -0.422607421875; -0.9775390625;0
541;2147808900; 0.9994315024273218; 0.0061045132820076314; -0.03245773522341461; -0.006775123439659831; -0.10082095111635166; 9.202506105889605E-4; 0.0504226967865943; -0.279052734375; -0.428955078125; -0.989501953125;0
542;2147825567; 0.9994910675610761; 0.007506676559071404; -0.030342111644928674; -0.006372749295604427; -0.09226528509541548; -0.010165206450443326; 0.04596178156789288; -0.330322265625; -0.438720703125; -1.001220703125;0
543;2147842234; 0.9995374213298452; 0.0088629932877351; -0.028539810722107376; -0.005645344560884156; -0.064697543535584; -0.0018158177739555801; 0.04328374444857821; -0.3759765625; -0.4560546875; -1.00341796875;0
544;2147858901; 0.999602349785312; 0.008063825778409695; -0.026505878318578372; -0.005249326819604064; -0.035105070781510025; 0.0075550193351512345; 0.04210958275515173; -0.4169921875; -0.46875; -1.004150390625;0
545;2147875568; 0.9996446726851222; 0.008193084596796657; -0.024836103840619628; -0.005154578844364017; -0.021892859723776418; -0.005457042760047729; 0.04313416112819926; -0.4541015625; -0.4892578125; -1.005615234375;0
546;2147892235; 0.9996680698948158; 0.010695966523161182; -0.023030806533302032; -0.0043506647003458965; -0.00727641101910949; -0.013810290783493058; 0.042239390461794465; -0.489990234375; -0.513916015625; -1.001708984375;0
547;2147908902; 0.9996901861766166; 0.01326465385247741; -0.020777583255228164; -0.0034456718368774263; 0.010639195555762081; -0.005154286469583351; 0.04133527104212865; -0.52392578125; -0.539306640625; -0.994384765625;0
