DeviceTag:;Xsens DOT 3;;;;;;;;;;;
FirmwareVersion:;1.3.0;;;;;;;;;;;
AppVersion:;2020.1.1;;;;;;;;;;;
Measurement Mode:;Inertial Mode - High Fidelity (with mag);;;;;;;;;;;
StartTime:;2020-07-29 17:11:18.836 +0200;;;;;;;;;;;
© Xsens Technologies B. V. 2005-2020;;;;;;;;;;;;
PacketCounter;SampleTimeFine;dQ_W;dQ_X;dQ_Y;dQ_Z;dV[1];dV[2];dV[3];Mag_X;Mag_Y;Mag_Z;Status
2;2153952310; 0.9999977031808716; 0.0018421014656914182; -6.493257520003849E-4; -8.824235032898198E-4; -0.16097271156542053; 0.032817911836639915; 0.0245596939369363; 0.640625; -0.572021484375; -0.249755859375;0
3;2153968977; 0.9999978383998127; 0.001931078156569628; -5.242546393790516E-4; -5.650574557183875E-4; -0.15879174949152944; 0.03634115911237903; 0.01935648957939317; 0.640625; -0.572509765625; -0.24365234375;0
4;2153985644; 0.9999987000742436; 0.0014884432686696064; -3.78209343400493E-4; -4.912679017951005E-4; -0.1596942328557735; 0.036341932030090215; 0.01895757507768174; 0.6396484375; -0.572509765625; -0.24609375;0
5;2154002311; 0.9999997634702353; 1.174390771621972E-4; -4.895945297531679E-4; -4.6857735012145746E-4; -0.16064875319848151; 0.04173609216661373; 0.01743042970254341; 0.638671875; -0.574951171875; -0.24609375;0
6;2154018978; 0.9999991131964414; -0.0011660692104335443; -3.898852097962147E-4; -5.11740608585165E-4; -0.16008887486065665; 0.03769199571953234; 0.021777335979146283; 0.642822265625; -0.573486328125; -0.24658203125;0
7;2154035645; 0.9999990569808886; -0.001320059355853831; -2.1420940850136463E-4; -3.1240192046044784E-4; -0.15923996827366518; 0.03375018526634045; 0.02512665770906087; 0.638671875; -0.572998046875; -0.248291015625;0
8;2154052312; 0.9999994701668898; -0.001012714194554211; 1.4082272460358427E-6; -1.845912148695783E-4; -0.15989061689800083; 0.03243606363560519; 0.027248858069877497; 0.63818359375; -0.56689453125; -0.250244140625;0
9;2154068979; 0.9999998527547513; -5.297912797134971E-4; 6.162783705432329E-5; -1.0006840256687745E-4; -0.1607677568340444; 0.031166373727950468; 0.028722516525450527; 0.64013671875; -0.56689453125; -0.2509765625;0
10;2154085646; 0.9999999947503013; -6.246496804885454E-5; -7.429993013335913E-5; 3.281836872676136E-5; -0.16153017680458945; 0.03148972369692518; 0.028872313031638536; 0.638671875; -0.57080078125; -0.25146484375;0
11;2154102313; 0.9999999105904301; 2.611832496453026E-4; -3.160376389464981E-4; 1.0355024161884387E-4; -0.16110630661242634; 0.03191252196064359; 0.028441026853925043; 0.64111328125; -0.5673828125; -0.248291015625;0
12;2154118980; 0.9999997078162046; 5.05752989620814E-4; -5.499780639309227E-4; 1.615721144592186E-4; -0.16056946263683228; 0.03215503752247551; 0.02766502531237952; 0.63916015625; -0.5703125; -0.249755859375;0
13;2154135647; 0.9999993093309948; 8.633676156611578E-4; -7.689155167266426E-4; 2.114304180579896E-4; -0.16046449350054395; 0.03215908996298351; 0.026549060959143077; 0.6396484375; -0.5693359375; -0.249755859375;0
14;2154152314; 0.9999991215142091; 9.332764490843776E-4; -9.158977335583797E-4; 2.1701894229658736E-4; -0.15973121034471083; 0.03459208561577223; 0.02463762699627902; 0.641845703125; -0.5703125; -0.2509765625;0
15;2154168981; 0.9999992132707336; 7.248308573424428E-4; -0.001002383400612428; 2.0810012076233345E-4; -0.15882218674248513; 0.03717848638339697; 0.023272876551404; 0.635498046875; -0.571533203125; -0.251953125;0
16;2154185648; 0.9999994267103537; 2.974262989193163E-4; -0.0010084382941156214; 2.0290088111768467E-4; -0.15841415017244923; 0.03889051994896298; 0.022548943823815226; 0.6376953125; -0.572021484375; -0.2509765625;0
17;2154202315; 0.9999994886931645; -2.4893085519734487E-4; -9.526769046000472E-4; 2.3033357205026753E-4; -0.15835454879473893; 0.039801536956033494; 0.02250266353055621; 0.635498046875; -0.572021484375; -0.255126953125;0
18;2154218982; 0.9999991998075595; -7.861854648791161E-4; -9.345198841856362E-4; 3.3010489475837623E-4; -0.15840185967398562; 0.038623597540732364; 0.022420581835546953; 0.633544921875; -0.57080078125; -0.254150390625;0
19;2154235649; 0.9999989494237675; -0.001112231593032198; -8.356118798562019E-4; 4.0724075323983483E-4; -0.15729338102075416; 0.0369972311312629; 0.022479545986309784; 0.634033203125; -0.5712890625; -0.26025390625;0
20;2154252316; 0.9999988012021571; -0.0013271978562063788; -6.888636047467368E-4; 4.0200377281973676E-4; -0.15614543249510582; 0.03604056389187324; 0.023996878115146468; 0.633544921875; -0.57177734375; -0.25830078125;0
21;2154268983; 0.9999986898723097; -0.0014743584016774017; -6.016147831887642E-4; 2.908274752989604E-4; -0.15636158103947823; 0.03529835932181756; 0.02562159551853052; 0.633544921875; -0.56884765625; -0.261962890625;0
22;2154285650; 0.9999987189303157; -0.0014931297545939248; -5.424814022024772E-4; 1.9599793838809276E-4; -0.15662103352796033; 0.03377702434446889; 0.02678057457862059; 0.63427734375; -0.56982421875; -0.264404296875;0
23;2154302317; 0.9999985677212542; -0.0015963437593452257; -5.448577214422491E-4; 1.3918371209104E-4; -0.1576422419363734; 0.0343132235452426; 0.026684461363775374; 0.632080078125; -0.57080078125; -0.26708984375;0
24;2154318984; 0.9999988821652568; -0.0014094215112925718; -4.946314874255121E-4; 6.737159769965029E-5; -0.15895391455267904; 0.0330059383153312; 0.027462888328764385; 0.62744140625; -0.5693359375; -0.267578125;0
25;2154335651; 0.9999990208266393; -0.0013059369457050912; -5.012608551221431E-4; 4.014986541239774E-5; -0.1589931738641565; 0.03459456965965685; 0.02691241862399968; 0.631103515625; -0.5693359375; -0.271728515625;0
26;2154352318; 0.9999987135489944; -0.0015469568766991008; -4.2405677600898534E-4; -7.928621816311043E-7; -0.15908174889675877; 0.03671276974346541; 0.027043695613228703; 0.630126953125; -0.568115234375; -0.272216796875;0
27;2154368985; 0.9999983808160858; -0.0017469823173382054; -4.3159429078493133E-4; 1.2014886952627092E-5; -0.15970600208099192; 0.03652925212877399; 0.026564023641115406; 0.628662109375; -0.566162109375; -0.277099609375;0
28;2154385652; 0.9999972615111427; -0.002295292500155234; -4.563602319901939E-4; 1.838186325464619E-5; -0.15938981760253237; 0.03668720830136486; 0.026177086583110406; 0.630126953125; -0.56005859375; -0.276611328125;0
29;2154402319; 0.9999956729120947; -0.0028931600240534767; -5.308750739246859E-4; 4.420201369337296E-5; -0.15933629934242594; 0.03665520943469211; 0.02586752113951607; 0.628173828125; -0.5615234375; -0.28125;0
30;2154418986; 0.9999942585531982; -0.0033470520728219703; -5.275213485452791E-4; 4.271168478292564E-5; -0.15900277798903317; 0.03496847148829407; 0.027589896425549616; 0.627197265625; -0.558837890625; -0.286376953125;0
31;2154435653; 0.9999935439753797; -0.003554122578924089; -5.271946238373238E-4; 4.781300220585428E-5; -0.1594903991232621; 0.03372437793560841; 0.028523362821594185; 0.626708984375; -0.5546875; -0.293212890625;0
32;2154452320; 0.9999926351891897; -0.0037991988348652778; -5.434233349170815E-4; 1.8619145855824915E-5; -0.1598503470172134; 0.033388236575415696; 0.0291532899461373; 0.62890625; -0.5546875; -0.293212890625;0
33;2154468987; 0.9999918294255876; -0.004000959492714982; -5.745808645586381E-4; -5.711422065424188E-5; -0.16007921814915507; 0.03228783684923356; 0.03025915722011112; 0.62744140625; -0.54638671875; -0.30419921875;0
34;2154485654; 0.9999911677885397; -0.004163488940178529; -5.272917034318537E-4; -2.273064388281787E-4; -0.1593797943023078; 0.0311785001797751; 0.030600695875335173; 0.624755859375; -0.54638671875; -0.306396484375;0
35;2154502321; 0.9999912522350425; -0.00412861439917318; -5.075328809708292E-4; -4.386421198706026E-4; -0.159772650056317; 0.0280095241173501; 0.031627896386468936; 0.625; -0.539794921875; -0.31201171875;0
36;2154518988; 0.9999934197216266; -0.0035100623598057663; -5.989344678475895E-4; -6.937241383628834E-4; -0.15915632770144744; 0.026266568382113813; 0.03373737067641283; 0.627197265625; -0.5361328125; -0.3173828125;0
37;2154535655; 0.9999952267806258; -0.0029820887721584612; -4.916755917686588E-4; -6.417301864234394E-4; -0.15781803097490593; 0.02737902910122494; 0.03179009531672539; 0.628173828125; -0.532958984375; -0.31787109375;0
38;2154552322; 0.9999974072125833; -0.0022337915081906638; -5.682151516223089E-5; -4.387652265609443E-4; -0.15612568284087028; 0.027332732044396926; 0.032215245297591594; 0.626220703125; -0.532470703125; -0.322998046875;0
39;2154568989; 0.9999986020907285; -0.0016027582259916136; 4.474763101224855E-4; -1.6354696451970077E-4; -0.1546175206027917; 0.029084442419836584; 0.03192215367575447; 0.627685546875; -0.530029296875; -0.323486328125;0
40;2154585656; 0.9999985635484585; -0.0015622451020946351; 6.508297559351673E-4; 9.33375021624494E-5; -0.15529778575622347; 0.025783076656778495; 0.03311011076861599; 0.62890625; -0.52880859375; -0.32568359375;0
41;2154602323; 0.9999987987509809; -0.0013541686957588527; 7.438169533688366E-4; 1.2433856437510385E-4; -0.15555058698497798; 0.03025493548835507; 0.0318647146770621; 0.630859375; -0.52490234375; -0.323974609375;0
42;2154618990; 0.9999983109215982; -0.0017362869567255426; 6.013582518539785E-4; 4.2776248417086826E-5; -0.1564525149894088; 0.02732579285368464; 0.03302060916022449; 0.627685546875; -0.523681640625; -0.323974609375;0
43;2154635657; 0.9999989136562325; -0.0013283262230679924; 6.38670011332776E-4; 1.834166283704031E-5; -0.1571118006104159; 0.029129853918584008; 0.0313950812193458; 0.62939453125; -0.523681640625; -0.32568359375;0
44;2154652324; 0.9999986554410276; -0.0015152350259384868; 6.26995461763369E-4; 7.45948919328443E-6; -0.15698745030167377; 0.027542269127799623; 0.03139478542137539; 0.6298828125; -0.522705078125; -0.32666015625;0
45;2154668991; 0.9999989964680277; -0.0013977218763389443; 7.985724123121818E-5; -2.1693159061947356E-4; -0.15920270015081633; 0.026188096697297013; 0.032937224551755406; 0.63134765625; -0.521240234375; -0.328125;0
46;2154685658; 0.9999993206755945; -0.0011142903818859122; -2.4386111241408995E-4; -2.3986882291765488E-4; -0.15817551419565407; 0.02377373065160812; 0.03290180201653155; 0.627685546875; -0.51904296875; -0.32666015625;0
47;2154702325; 0.99999987290152; -2.999133724636213E-4; -3.5400082840431063E-4; -1.9731276249962407E-4; -0.15799062168991793; 0.023321864726849793; 0.033684599932574014; 0.63134765625; -0.517578125; -0.330810546875;0
48;2154718992; 0.9999998153317564; 4.56199565584322E-4; -3.6001208120095557E-4; -1.7779119978728053E-4; -0.15866453804345274; 0.023885416183513336; 0.033689115728557525; 0.630859375; -0.51806640625; -0.330810546875;0
49;2154735659; 0.9999990699772633; 0.0012596968848687766; -4.836707100546733E-4; -1.9816914711495717E-4; -0.1595081990544457; 0.02553388693712613; 0.034167953096087625; 0.630859375; -0.51904296875; -0.331298828125;0
50;2154752326; 0.9999984295470917; 0.0016592086697135092; -5.807221436455735E-4; -2.2514824543579115E-4; -0.16007123284701746; 0.0293125501269285; 0.03333186659074777; 0.628173828125; -0.51806640625; -0.328857421875;0
51;2154768993; 0.9999983456946977; 0.0016772290220485667; -6.879239846947495E-4; -1.4923560788543402E-4; -0.15966593513511385; 0.03161367355358194; 0.032723141938724866; 0.63037109375; -0.520751953125; -0.328125;0
52;2154785660; 0.9999984794319647; 0.0015796127735004696; -7.34349885882113E-4; -8.177707045664562E-5; -0.158187114669429; 0.032154906368215476; 0.03297618240114593; 0.63037109375; -0.520263671875; -0.329833984375;0
53;2154802327; 0.9999989710567387; 0.0012995984394728426; -6.068270659768116E-4; -2.6273024142986493E-5; -0.1566363804093165; 0.03406278116348183; 0.03248517692126899; 0.62939453125; -0.523193359375; -0.328125;0
54;2154818994; 0.9999994550951737; 9.446376797646924E-4; -4.4387217522412486E-4; -2.1130582385231467E-5; -0.15629906005764935; 0.03348261613619063; 0.032688188552119746; 0.627197265625; -0.525390625; -0.32763671875;0
55;2154835661; 0.999999725508046; 6.746613176468064E-4; -3.0599010178267166E-4; -1.3638063721732598E-5; -0.15597142466598035; 0.03378320667386573; 0.03210609598249887; 0.626708984375; -0.523193359375; -0.32763671875;0
56;2154852328; 0.9999999488741927; 2.9329851385041794E-4; -1.2453097552567185E-4; 2.6825917855466397E-5; -0.15516603862823322; 0.03453757734463603; 0.03123749848062117; 0.625732421875; -0.525390625; -0.330322265625;0
57;2154868995; 0.9999999866142988; -1.0548192336299646E-4; 1.247769014512401E-4; 8.70005198433388E-6; -0.15552662987278126; 0.03423243740161024; 0.031019253567121905; 0.62939453125; -0.52490234375; -0.328857421875;0
58;2154885662; 0.9999998161480593; -4.921030995423629E-4; 3.530378520830158E-4; -3.0044329271838865E-5; -0.15558887524229648; 0.03385775248648529; 0.030724134462610263; 0.62939453125; -0.52490234375; -0.3251953125;0
59;2154902329; 0.9999995033715067; -8.302237138849353E-4; 5.512614066217615E-4; 9.807469581568641E-6; -0.15609718114061488; 0.034684453742923574; 0.030058685021203; 0.628173828125; -0.522705078125; -0.32666015625;0
60;2154918996; 0.9999992456190838; -0.0010518898272420044; 6.342563176368056E-4; 2.8245427252659994E-6; -0.15714671474296574; 0.03320221913940563; 0.031025270832416817; 0.630859375; -0.522705078125; -0.326171875;0
61;2154935663; 0.9999992311876775; -0.0010631549998443394; 6.381689935927581E-4; 8.113915284324593E-6; -0.15780290008393708; 0.03288599963181498; 0.031208673048994055; 0.6318359375; -0.521240234375; -0.32666015625;0
62;2154952330; 0.9999992712838537; -0.0010534469550098173; 5.77199855666566E-4; 1.2050560589649262E-4; -0.15874396527654697; 0.03258485878555679; 0.03137553583964325; 0.628662109375; -0.522705078125; -0.326171875;0
63;2154968997; 0.9999992251611247; -0.0011396017849369892; 4.2298217024067114E-4; 2.6846043575728956E-4; -0.15939855924481688; 0.0327756703167802; 0.030522415563510506; 0.632568359375; -0.522216796875; -0.32763671875;0
64;2154985664; 0.9999991966749378; -0.001193551476988003; 2.67034019833079E-4; 3.3283206451345526E-4; -0.15901489451055104; 0.030476507063895635; 0.03100709164716238; 0.632568359375; -0.519775390625; -0.329833984375;0
65;2155002331; 0.9999993327315213; -0.0010822120021000197; 2.0986211196416527E-4; 3.454150959967817E-4; -0.15890980466311555; 0.027659507472253153; 0.0314120692474881; 0.630859375; -0.520751953125; -0.32763671875;0
66;2155018998; 0.9999996902462817; -7.078499370547636E-4; 2.1781261525960496E-4; 2.6648353057040497E-4; -0.15871087573277606; 0.026160014196432473; 0.03212907672456679; 0.63134765625; -0.51708984375; -0.329345703125;0
67;2155035665; 0.9999998988810227; -3.5714750274750805E-4; 2.114162697368638E-4; 1.7316687491975016E-4; -0.1588627415821932; 0.02791970653903878; 0.030684974669494183; 0.6318359375; -0.517578125; -0.329833984375;0
68;2155052332; 0.9999999029585327; -3.75296743033634E-4; 1.9921251954257982E-4; 1.1640297277132339E-4; -0.15898074361732914; 0.02793505129576538; 0.030766442945396162; 0.6318359375; -0.5185546875; -0.329833984375;0
69;2155068999; 0.99999988316807; -4.576959829230118E-4; 1.5481972310149583E-4; 1.4459842997083252E-5; -0.15883857193040962; 0.028570055610370525; 0.03166806619569756; 0.632568359375; -0.5185546875; -0.331787109375;0
70;2155085666; 0.9999999016401279; -4.1253656990179787E-4; 1.4850220882256518E-4; -6.693584350436765E-5; -0.1582408262145931; 0.02770759178395711; 0.03269990023872563; 0.632568359375; -0.520751953125; -0.330322265625;0
71;2155102333; 0.9999999551650736; -2.0359497319262076E-4; 1.7592928972787195E-4; -1.3140708748438093E-4; -0.15817308913018113; 0.028427296888495768; 0.032763879572314025; 0.633056640625; -0.5166015625; -0.328125;0
72;2155119000; 0.9999999425243904; -2.2251154916185303E-4; 2.1728992070518818E-4; -1.349996916263363E-4; -0.15790288792190896; 0.0306834956395206; 0.031824504129694564; 0.62939453125; -0.51806640625; -0.328125;0
73;2155135667; 0.9999998705901129; -4.250951665564005E-4; 2.397773429071992E-4; -1.4359903497029872E-4; -0.15738793971918924; 0.03189932571730131; 0.03161516399452547; 0.633544921875; -0.5185546875; -0.329345703125;0
74;2155152334; 0.9999996495432779; -7.86337133349744E-4; 2.733820985168501E-4; -8.859719154691303E-5; -0.157708722995731; 0.03286306575726593; 0.03095253363935657; 0.634033203125; -0.515625; -0.329833984375;0
75;2155169001; 0.9999994331445331; -0.001023385000367089; 2.883161271735047E-4; -5.7162613187611295E-5; -0.15768872598523379; 0.030540643774659038; 0.031743099036102985; 0.634521484375; -0.51708984375; -0.331298828125;0
76;2155185668; 0.9999997596100222; -6.605862605933972E-4; 2.0495509172463458E-4; -4.898061462299541E-5; -0.15810681526918982; 0.028134431738360395; 0.03279112509097053; 0.633544921875; -0.513916015625; -0.331298828125;0
77;2155202335; 0.9999999654735009; -2.2370490658550586E-4; 1.3299090053864315E-4; 3.6366635467743886E-5; -0.15847914240702451; 0.027817627320663754; 0.032346586566087354; 0.634521484375; -0.512451171875; -0.33447265625;0
78;2155219002; 0.9999999899714406; 4.119255993317595E-5; 7.33938014950697E-5; 1.1390189547771934E-4; -0.15930584909185577; 0.030398589988175132; 0.030451832228151846; 0.634521484375; -0.513427734375; -0.32861328125;0
79;2155235669; 0.9999999811573702; -1.0014881303229746E-4; 1.9006433055857034E-5; 1.6520965449179362E-4; -0.15908485094969554; 0.030363691040838827; 0.03013700977345063; 0.633544921875; -0.5185546875; -0.330810546875;0
80;2155252336; 0.9999999863560772; 5.1886325260067047E-5; -4.269788638799899E-5; 1.5090574875559204E-4; -0.15964975401695675; 0.031196754367919563; 0.029830400317400568; 0.634033203125; -0.51513671875; -0.331787109375;0
81;2155269003; 0.999999943304883; -1.557452663460091E-4; -4.060966091712359E-5; 2.957777853516142E-4; -0.15969584115961843; 0.031091084665829053; 0.02925601595787229; 0.6357421875; -0.513916015625; -0.3330078125;0
82;2155285670; 0.9999999306747664; -1.87370302551327E-4; -2.5388431602602072E-5; 3.2077758569565296E-4; -0.15925219697410045; 0.0299886755820852; 0.030541468814669823; 0.635009765625; -0.515625; -0.330810546875;0
83;2155302337; 0.9999999546153717; 5.003666437310187E-5; -3.292994217746204E-5; 2.9526463641404993E-4; -0.15815663261946614; 0.02845683927451589; 0.031507932139487126; 0.632568359375; -0.51611328125; -0.331298828125;0
84;2155319004; 0.9999999235831957; 1.3449775726285658E-4; -2.895378334999421E-5; 3.6593118831723675E-4; -0.15852725579011867; 0.02952219046784444; 0.030902269872503656; 0.63232421875; -0.51611328125; -0.328857421875;0
85;2155335671; 0.9999998814780485; 1.4553526275361777E-4; -3.4112003273800706E-5; 4.6335704111821757E-4; -0.15895197448966067; 0.02849821445704247; 0.031477280587655185; 0.6298828125; -0.515625; -0.331298828125;0
86;2155352338; 0.9999998875777782; 1.4359106820346668E-4; -1.1373812507070592E-4; 4.3736675089756094E-4; -0.1591182153216493; 0.02780516766415135; 0.03186444972466331; 0.633056640625; -0.519775390625; -0.329833984375;0
87;2155369005; 0.99999988427795; 2.7263045871096965E-4; -1.9079219908546555E-4; 3.474407237768485E-4; -0.15948420451637663; 0.02631157849904235; 0.032635657775943086; 0.633544921875; -0.517578125; -0.331298828125;0
88;2155385672; 0.9999997536868664; 5.891400245996438E-4; -2.606222906842981E-4; 2.7859694816062547E-4; -0.15972244761298185; 0.026656284621811122; 0.03216229948303166; 0.630859375; -0.51806640625; -0.33251953125;0
89;2155402339; 0.9999995672864261; 8.496099303779106E-4; -3.0999061476733036E-4; 2.179351861062995E-4; -0.1592915564832868; 0.027165080490234004; 0.03112863628524851; 0.626220703125; -0.521240234375; -0.329833984375;0
90;2155419006; 0.9999994208712037; 9.946437652197078E-4; -3.836446504438818E-4; 1.4750532102264513E-4; -0.1589287173117339; 0.02796129184129695; 0.030276936872592884; 0.630859375; -0.521240234375; -0.329833984375;0
91;2155435673; 0.9999992747448877; 0.0011307565463675804; -4.0411282934621484E-4; 9.269386494881182E-5; -0.15735333837603324; 0.02778480631625606; 0.030635204734151794; 0.6298828125; -0.521728515625; -0.328125;0
92;2155452340; 0.9999988825350757; 0.001455966054409267; -3.3143092354370746E-4; 7.242231198428817E-5; -0.1564742270541394; 0.02804600310912959; 0.03125909422625622; 0.62841796875; -0.524169921875; -0.329833984375;0
93;2155469007; 0.9999985227124248; 0.001700045281278378; -2.255102767498851E-4; 1.1646512119450893E-4; -0.15593870382505437; 0.02994416637301865; 0.030599178734270926; 0.625; -0.52587890625; -0.323486328125;0
94;2155485674; 0.9999984715831048; 0.0017345263366574278; -1.3402844819071505E-4; 1.7402935596466662E-4; -0.15609083392962117; 0.030845283018644518; 0.030730743424077188; 0.62939453125; -0.52783203125; -0.3251953125;0
95;2155502341; 0.9999982908042614; 0.001835421645682611; -1.1604783802904307E-4; 1.9012847719523943E-4; -0.15701479749249608; 0.03207945853751253; 0.03073154576383002; 0.629150390625; -0.5283203125; -0.322998046875;0
96;2155519008; 0.9999984593800277; 0.0017292014411304868; -1.0442568179791502E-4; 2.8318761245182955E-4; -0.15821619710980284; 0.03264663844977354; 0.030326235114439954; 0.628173828125; -0.529541015625; -0.323486328125;0
97;2155535675; 0.999998470946224; 0.00170820873843311; -2.1921114884920767E-4; 3.0343795429454984E-4; -0.15902805089630467; 0.032491508904198545; 0.030439951300711518; 0.62451171875; -0.531494140625; -0.3203125;0
98;2155552342; 0.9999984391156244; 0.001706068011453581; -3.874275028063479E-4; 2.469781067796495E-4; -0.1589133656266511; 0.032806646975232; 0.03052312860201847; 0.627197265625; -0.5341796875; -0.31884765625;0
99;2155569009; 0.999998484796682; 0.0016777359907821521; -4.148143697683682E-4; 2.0865120217150593E-4; -0.1581365819170237; 0.03285976623770764; 0.030929787187954205; 0.622802734375; -0.53662109375; -0.316162109375;0
100;2155585676; 0.9999987388352485; 0.0015468704400583098; -3.159248176800023E-4; 1.723695556767879E-4; -0.15782771014006886; 0.0342016953246163; 0.03153652026770747; 0.627197265625; -0.53662109375; -0.316650390625;0
101;2155602343; 0.9999990358191136; 0.0013619435990404154; -2.313994072714598E-4; 1.4115519959551073E-4; -0.15778152134839413; 0.034049186451813464; 0.03278660333538114; 0.625; -0.53759765625; -0.316162109375;0
102;2155619010; 0.9999992842259641; 0.0011666385832871627; -2.0380239325068497E-4; 1.7019565174813955E-4; -0.1580581092507518; 0.034427199358428216; 0.0331872788857416; 0.62451171875; -0.539306640625; -0.315185546875;0
103;2155635677; 0.9999995642028183; 8.712478292072345E-4; -2.487982094213082E-4; 2.2499076556570244E-4; -0.15807718498824513; 0.03498826973436433; 0.03290345060015597; 0.6259765625; -0.541259765625; -0.315185546875;0
104;2155652344; 0.9999998536173874; 4.1033616615098606E-4; -2.2963523910818354E-4; 2.676884223964393E-4; -0.15769415929486091; 0.03499552849612735; 0.03218540888379123; 0.6259765625; -0.542236328125; -0.316650390625;0
105;2155669011; 0.9999999575964823; 3.306621527970552E-5; -1.2664277657009615E-4; 2.601447021546855E-4; -0.15743480360519105; 0.03393194095378328; 0.03191045680998014; 0.622314453125; -0.540771484375; -0.315185546875;0
106;2155685678; 0.9999999481112793; -1.861223244390038E-4; -3.3483058989647325E-5; 2.6079647919841076E-4; -0.1578935603927945; 0.03295238046945497; 0.031096693739427438; 0.62646484375; -0.541259765625; -0.31298828125;0
107;2155702345; 0.9999999336978954; -2.5280743176496825E-4; -2.1528738775700166E-5; 2.6120704556220625E-4; -0.1582409659867402; 0.031416846120751525; 0.030670635521903966; 0.62646484375; -0.540771484375; -0.315185546875;0
108;2155719012; 0.9999999695892794; -1.0299227839563781E-4; -1.1538168133029548E-4; 1.9209658658059237E-4; -0.15886384264721393; 0.03031112173273511; 0.030890554730930813; 0.622314453125; -0.540771484375; -0.3115234375;0
109;2155735679; 0.9999999649579456; -8.052694314739268E-5; -1.491102140669942E-4; 2.033855034882515E-4; -0.15890744902569484; 0.03116850413256564; 0.029791416773403447; 0.621826171875; -0.541259765625; -0.3125;0
110;2155752346; 0.9999999580725438; -1.3818416632801513E-4; -1.748334538470009E-4; 1.84914332059416E-4; -0.1578587076517575; 0.029683001604871875; 0.03016058485955325; 0.621337890625; -0.542236328125; -0.315185546875;0
111;2155769013; 0.9999999632798618; -1.7062264970710284E-4; -1.5662838446767194E-4; 1.4069731935734134E-4; -0.15784329282932982; 0.028057591178279096; 0.030270765198735946; 0.622802734375; -0.541748046875; -0.315673828125;0
112;2155785680; 0.9999999755075526; 1.5776672504975824E-4; -1.552217218848129E-4; 8.785291860657907E-7; -0.157183583499127; 0.026503096589008387; 0.030424408127849738; 0.622314453125; -0.539794921875; -0.314697265625;0
113;2155802347; 0.9999997871110964; 6.029128277450415E-4; -1.6795655764390016E-4; -1.8456564894298036E-4; -0.155336257233959; 0.02640567160048836; 0.03097156100684568; 0.62451171875; -0.540771484375; -0.315185546875;0
114;2155819014; 0.9999995878908519; 8.597456050597873E-4; -4.6271524500540735E-5; -2.8794889654609745E-4; -0.15479446216275117; 0.02757729229136814; 0.030907160808495805; 0.623779296875; -0.540771484375; -0.31298828125;0
115;2155835681; 0.9999994163604672; 0.0010159387509378441; 1.371862328937157E-4; -3.41067612945889E-4; -0.1543863871544079; 0.0285122558495106; 0.03179241825873275; 0.62060546875; -0.541748046875; -0.310546875;0
116;2155852348; 0.9999991265725536; 0.0012531036354730598; 1.6075621768402162E-4; -3.8825616165050203E-4; -0.15492849509271467; 0.02846770183965578; 0.032388804647153456; 0.623291015625; -0.541259765625; -0.31103515625;0
117;2155869015; 0.9999984251033338; 0.0017132118343591955; 9.678012470110131E-5; -4.5313317043244045E-4; -0.15634202464208535; 0.030311908271400935; 0.03172658809319638; 0.623291015625; -0.542724609375; -0.3095703125;0
118;2155885682; 0.9999979213486329; 0.0019697201545025335; 8.28258318559816E-5; -5.202314945160769E-4; -0.15566687360252823; 0.03177138171296051; 0.03181035470697877; 0.62841796875; -0.544921875; -0.30517578125;0
119;2155902349; 0.9999974331532041; 0.0021672915634789285; 1.280978528432342E-4; -6.481706735116389E-4; -0.15575772513723063; 0.03527886225290795; 0.03108610854584968; 0.624755859375; -0.54638671875; -0.306884765625;0
120;2155919016; 0.9999977395125806; 0.002046712082004583; 1.5154386971488745E-4; -5.55854151579438E-4; -0.15564928914395282; 0.039107628192476825; 0.029544796004748734; 0.625732421875; -0.54541015625; -0.30224609375;0
121;2155935683; 0.9999987973584888; 0.0015003957500029086; 1.5503092299817833E-4; -3.606377437572195E-4; -0.15591144859514855; 0.03983933278359694; 0.028993947870348372; 0.625244140625; -0.547607421875; -0.301025390625;0
122;2155952350; 0.9999992736684066; 0.0011475989100025383; 3.103236000958632E-4; -1.9844058102724826E-4; -0.15747043294986598; 0.03765035244066758; 0.03029202726107882; 0.625732421875; -0.549072265625; -0.298583984375;0
123;2155969017; 0.9999990531985419; 0.0013554150579940041; 1.7077392930475724E-4; -1.651917237710521E-4; -0.15844152042161536; 0.03412975753234518; 0.031650311890945436; 0.62841796875; -0.549560546875; -0.2958984375;0
124;2155985684; 0.9999981942278526; 0.001895352837349245; 7.389057336681938E-5; -1.1712744790431939E-4; -0.16054866294127904; 0.034274925122471836; 0.030955445821080854; 0.6298828125; -0.55322265625; -0.293212890625;0
125;2156002351; 0.9999979423261706; 0.0020231168583653147; 6.49287124503406E-5; -1.3463233083699236E-4; -0.1603001282374924; 0.03784916969780138; 0.030126300243202876; 0.63037109375; -0.55419921875; -0.291748046875;0
126;2156019018; 0.9999986109181908; 0.0016525940727904719; 1.0254104914975139E-4; -1.9125860204066703E-4; -0.15946704233625789; 0.0388516685307952; 0.030110385742331186; 0.626708984375; -0.552734375; -0.2890625;0
127;2156035685; 0.999999211747488; 0.0012123833188956538; 2.3147833877951165E-4; -2.3032340191431191E-4; -0.15798429229480987; 0.03958642992356577; 0.030657874240672744; 0.628662109375; -0.55322265625; -0.28857421875;0
128;2156052352; 0.9999995452709208; 8.145219596273519E-4; 4.289872775493087E-4; -2.4896153196085624E-4; -0.15759504169324734; 0.03946274410330978; 0.03125870756381261; 0.627685546875; -0.5517578125; -0.284912109375;0
129;2156069019; 0.999999819003003; 2.3821618073091924E-4; 4.633903898531577E-4; -3.008593673369809E-4; -0.15670866177092685; 0.04190393282982281; 0.031448882351616865; 0.6318359375; -0.556884765625; -0.286376953125;0
130;2156085686; 0.9999996884576561; -5.123691294297503E-4; 4.980595852806525E-4; -3.35408878079535E-4; -0.15635551131396916; 0.04358566055399821; 0.03184337751703916; 0.630859375; -0.5546875; -0.285400390625;0
131;2156102353; 0.9999989487855369; -0.0013274656081216224; 5.398529165075995E-4; -2.2095635087060475E-4; -0.15701707659028905; 0.04397409937930136; 0.031168812848438202; 0.63037109375; -0.55517578125; -0.286376953125;0
132;2156119020; 0.9999978359281771; -0.0020047839341486087; 5.517166793255758E-4; -6.774249487911943E-5; -0.15802183494202193; 0.041787047253557676; 0.03058552694453492; 0.6318359375; -0.55078125; -0.285400390625;0
133;2156135687; 0.9999972211027544; -0.002301429865583543; 5.107268338083171E-4; 1.911659243408748E-5; -0.15904177593396154; 0.03762509936236532; 0.028933550853076424; 0.6318359375; -0.550048828125; -0.28955078125;0
134;2156152354; 0.9999974986054051; -0.0022014213240493137; 3.904477435630605E-4; 6.385645152962027E-5; -0.15933588417244346; 0.033887552807496404; 0.027590795155896297; 0.63671875; -0.547119140625; -0.291015625;0
135;2156169021; 0.9999979897256923; -0.001985678227418651; 2.7692301328491325E-4; 3.066261600520593E-5; -0.15866627765338565; 0.03215106720339086; 0.026754583124568687; 0.632568359375; -0.546630859375; -0.293701171875;0
136;2156185688; 0.9999983636305334; -0.0017825784747549853; 2.8286302952090786E-4; -1.230396007044221E-4; -0.15689530748289243; 0.03246128354738025; 0.02590401968977763; 0.634033203125; -0.5439453125; -0.2958984375;0
137;2156202355; 0.9999985877594657; -0.0016331983612262388; 3.2334039213655075E-4; -2.293320254116438E-4; -0.15644683461283865; 0.032413729880790186; 0.026244521717151994; 0.634033203125; -0.5439453125; -0.29638671875;0
138;2156219022; 0.9999986853078302; -0.0015426450178552056; 3.9254188981902033E-4; -3.090951711179901E-4; -0.15615242596899065; 0.032787665097950947; 0.02711158283504013; 0.635009765625; -0.54150390625; -0.2958984375;0
139;2156235689; 0.9999988295968743; -0.0014422986690757755; 4.5652493971454216E-4; -2.2839529367185699E-4; -0.15593402985987614; 0.033387110999578515; 0.0275446866562029; 0.63671875; -0.540283203125; -0.299560546875;0
140;2156252356; 0.9999989010010111; -0.0013840234136202143; 5.228496028121811E-4; -9.541621247999288E-5; -0.15629395740840293; 0.033042382646762; 0.028453799434558523; 0.633056640625; -0.53564453125; -0.29736328125;0
141;2156269023; 0.9999991179452095; -0.0012229404572384472; 5.176338354517807E-4; 2.4096752027968907E-5; -0.15614910425620834; 0.03311186704130969; 0.028894238175577416; 0.63671875; -0.537841796875; -0.29736328125;0
142;2156285690; 0.9999993738055478; -0.0010260625033960153; 4.225854732383683E-4; 1.449336722014749E-4; -0.15714486642851305; 0.032546053725643224; 0.029435006956468092; 0.63671875; -0.53515625; -0.29736328125;0
143;2156302357; 0.9999996455520463; -7.343338669011587E-4; 2.5736720601199364E-4; 3.2157685681677434E-4; -0.1578964954743401; 0.03182106421723231; 0.02971916321303877; 0.63525390625; -0.53369140625; -0.301025390625;0
144;2156319024; 0.9999997071003507; -4.3801839665082165E-4; 2.6501832684022736E-4; 5.689502468863572E-4; -0.1580012694369001; 0.03205080778194168; 0.028998484524942473; 0.63818359375; -0.53515625; -0.298828125;0
145;2156335691; 0.9999996770479285; -2.0159765240738287E-4; 3.161569303971601E-4; 7.108496470190629E-4; -0.15887873173722916; 0.0328400095530598; 0.028660448260785454; 0.6376953125; -0.53271484375; -0.301513671875;0
146;2156352358; 0.9999996110013311; -7.725520036064651E-5; 3.6863734780606677E-4; 7.975809215957086E-4; -0.16065143530986065; 0.032916447270071154; 0.028692678427159536; 0.6357421875; -0.539306640625; -0.299560546875;0
147;2156369025; 0.9999995737471068; 7.395458273419184E-5; 2.6822154896943845E-4; 8.803939601722545E-4; -0.16327319489722747; 0.033083327255452835; 0.029292965329163152; 0.63525390625; -0.538818359375; -0.299072265625;0
148;2156385692; 0.9999995244216199; 2.1827098040747006E-4; -1.3732005028710417E-4; 9.405623408486607E-4; -0.16482818329210966; 0.03331978283374341; 0.030182723248667387; 0.63525390625; -0.538818359375; -0.300048828125;0
149;2156402359; 0.9999991891582374; 2.923785577550967E-4; -6.725051473170374E-4; 0.0010411217381730566; -0.16482570719322026; 0.03326194223155624; 0.03072062519516064; 0.633056640625; -0.54150390625; -0.300048828125;0
150;2156419026; 0.9999988020212047; 1.975559145198317E-4; -0.0010782734301984511; 0.0010928193930089813; -0.1629886949731575; 0.033768404616077746; 0.02999122607782191; 0.632568359375; -0.5439453125; -0.301513671875;0
151;2156435693; 0.9999985640339739; -3.659423311838661E-5; -0.001306041439620931; 0.0010792805984868872; -0.16147301779653744; 0.03240700691257231; 0.02864878033250954; 0.632080078125; -0.54443359375; -0.302001953125;0
152;2156452360; 0.9999985148784067; -2.7261655089528235E-4; -0.001342724193531042; 0.0010454725904196494; -0.1589220617660202; 0.031553747475189894; 0.027391948339377064; 0.626953125; -0.544921875; -0.30517578125;0
153;2156469027; 0.9999986643334775; -6.066273297846286E-4; -0.0012062570965538089; 9.210202825382098E-4; -0.15617493760092768; 0.03130558385181126; 0.026150247641836637; 0.62548828125; -0.5439453125; -0.308837890625;0
154;2156485694; 0.9999988710808505; -9.798851152160466E-4; -8.905349809488762E-4; 7.103588059326205E-4; -0.15384344386554635; 0.03049445357704075; 0.026044049986027627; 0.62548828125; -0.54638671875; -0.308837890625;0
155;2156502361; 0.9999989890979395; -0.0012396071109213886; -5.251700703348129E-4; 4.5757371725224655E-4; -0.15268951407048326; 0.0291576027135122; 0.02719725155111268; 0.620849609375; -0.54736328125; -0.3115234375;0
156;2156519028; 0.9999991262778437; -0.0012997651996306345; -1.3010164048576914E-4; 2.0279925579486102E-4; -0.15296234739721198; 0.029147802669250596; 0.028758237857927332; 0.621337890625; -0.54638671875; -0.314697265625;0
157;2156535695; 0.9999993484674372; -0.001128536687690784; 1.7061116552508082E-4; -1.901251852598485E-5; -0.15418085886645702; 0.02971881661266803; 0.030408260032454663; 0.61962890625; -0.54541015625; -0.314208984375;0
158;2156552362; 0.9999995049204753; -9.079144390110403E-4; 3.562347154006385E-4; -1.9734995120157528E-4; -0.15602186234834337; 0.032226459659898836; 0.03118751321718771; 0.62353515625; -0.543701171875; -0.315185546875;0
159;2156569029; 0.9999995285177045; -8.413823811597269E-4; 3.80077149250091E-4; -3.0096747016222786E-4; -0.15808692472740418; 0.03573626805730838; 0.031210432428016518; 0.622314453125; -0.540771484375; -0.314697265625;0
160;2156585696; 0.9999992963594911; -0.0011047688076748679; 3.2246833687776816E-4; -2.877161373397996E-4; -0.15932401778263985; 0.03844636177606679; 0.030360368971865774; 0.622314453125; -0.542236328125; -0.313232421875;0
161;2156602363; 0.9999987307117935; -0.0015648850728719648; 2.3707282550516906E-4; -1.830464040050717E-4; -0.16075914028096674; 0.03979387240720338; 0.02969758787024811; 0.621826171875; -0.540283203125; -0.31689453125;0
162;2156619030; 0.9999977572079738; -0.0021137068338801072; 1.2195630914935142E-4; -5.4305631379814034E-5; -0.16093641328048652; 0.0391465634614395; 0.029482741114772712; 0.627685546875; -0.53759765625; -0.31884765625;0
163;2156635697; 0.9999967506267737; -0.0025478548516591286; 8.46640048527969E-5; 1.8855653468041744E-6; -0.16024826313786628; 0.03775248285477811; 0.029386642224358994; 0.622314453125; -0.53515625; -0.31982421875;0
164;2156652364; 0.9999959814033537; -0.0028326985084165396; 1.0931035139444269E-4; 3.236589409771895E-5; -0.15942408743673261; 0.03420260264297507; 0.030015088097118912; 0.623046875; -0.533447265625; -0.323486328125;0
165;2156669031; 0.999995880995153; -0.002866529810703544; 1.2133593404484166E-4; 7.922854974595774E-5; -0.15879722744400668; 0.03177259217280824; 0.03046241212890645; 0.626220703125; -0.52734375; -0.328857421875;0
166;2156685698; 0.9999963448381612; -0.002692025102745517; 2.0683289765160984E-4; 1.4328752826175964E-4; -0.15761025188691785; 0.029682500942035908; 0.03120255694332582; 0.624755859375; -0.52685546875; -0.329833984375;0
167;2156702365; 0.9999972752668762; -0.002306522214463577; 3.004479398637239E-4; 1.9785129011534733E-4; -0.15688577050810748; 0.02786518039162314; 0.032278576561157665; 0.625244140625; -0.524658203125; -0.333984375;0
168;2156719032; 0.9999982468823582; -0.0018245640295728414; 3.564285717923555E-4; 2.2395755287629715E-4; -0.15647052836784972; 0.027012199690234176; 0.032463351501398605; 0.626220703125; -0.523681640625; -0.333984375;0
169;2156735699; 0.9999989725018565; -0.0013841297213275823; 3.0849032470620097E-4; 2.0979481690908133E-4; -0.15715293421265097; 0.028115207598344905; 0.03206257089445509; 0.625732421875; -0.521728515625; -0.33349609375;0
170;2156752366; 0.9999994650343044; -9.970153828799564E-4; 1.7348664608723976E-4; 2.1399489477547107E-4; -0.15813742574897904; 0.02826237727924825; 0.03212030267170528; 0.626708984375; -0.522705078125; -0.333984375;0
171;2156769033; 0.9999997900666607; -6.017726057638787E-4; -2.8764105161505075E-5; 2.3855605568839924E-4; -0.1588212289375715; 0.029212159965348882; 0.03160248604038149; 0.625244140625; -0.5185546875; -0.33544921875;0
172;2156785700; 0.9999999026650772; -2.7139395574464053E-4; -2.0907915230605759E-4; 2.7803069066700825E-4; -0.1589797278610638; 0.029499681854192456; 0.031221868971443238; 0.624755859375; -0.5205078125; -0.338623046875;0
173;2156802367; 0.9999999149130417; -9.876035325008352E-6; -2.6913366276953843E-4; 3.124795106331791E-4; -0.15820874094352602; 0.030084204466589486; 0.030308936085713355; 0.62158203125; -0.523193359375; -0.335693359375;0
174;2156819034; 0.9999999051771706; 1.3808366726232157E-4; -2.315556821191889E-4; 3.419949074209838E-4; -0.1579205005310385; 0.031141998728803598; 0.02972562891147757; 0.624267578125; -0.521728515625; -0.336669921875;0
175;2156835701; 0.9999999043003666; 1.6356210013950424E-4; -1.7933019980598266E-4; 3.6398815456101247E-4; -0.15796446634293132; 0.03131447217929534; 0.02995557244815533; 0.6220703125; -0.523193359375; -0.336181640625;0
176;2156852368; 0.9999999141701346; 1.0855059490909747E-4; -1.4608914808911247E-4; 3.722021664128161E-4; -0.1579010107609045; 0.03159855896736904; 0.030644492771690467; 0.625732421875; -0.524169921875; -0.337158203125;0
177;2156869035; 0.9999999224839241; 1.274277034504093E-4; -1.1730920392838406E-4; 3.5359988239830337E-4; -0.15777422882979777; 0.030855369755407994; 0.03184507885518277; 0.623779296875; -0.522705078125; -0.336181640625;0
178;2156885702; 0.9999999123712954; 1.879643112888147E-4; -1.923676255514151E-4; 3.208138337522648E-4; -0.15819049107692934; 0.031095920080174696; 0.03231578378798948; 0.62158203125; -0.523193359375; -0.337158203125;0
179;2156902369; 0.9999999197976602; 1.443834126666427E-4; -2.3966977218048416E-4; 2.865597729982406E-4; -0.1580334373875466; 0.0312959447177157; 0.032403075334290585; 0.62060546875; -0.525634765625; -0.337646484375;0
180;2156919036; 0.9999999245748834; 1.0121348294249606E-4; -2.6699575208610776E-4; 2.6328563714667075E-4; -0.15911215005933207; 0.03059678464388836; 0.03223664965476874; 0.6201171875; -0.5283203125; -0.338623046875;0
181;2156935703; 0.9999999396837019; 1.1427294342906263E-4; -2.763354670976548E-4; 1.766720029371394E-4; -0.15832681475260815; 0.03066392257861351; 0.03172480678904892; 0.6201171875; -0.52783203125; -0.338623046875;0
182;2156952370; 0.9999999485932856; 2.262311447002235E-4; -2.1796440539717524E-4; 6.42215955861114E-5; -0.1582628752510549; 0.030168677125493298; 0.03114629937713164; 0.62109375; -0.52685546875; -0.337646484375;0
183;2156969037; 0.999999921102127; 3.7469465132080985E-4; -9.234842782585019E-5; -9.418824647811076E-5; -0.15752837054194657; 0.03029847501210413; 0.030778019669161934; 0.618896484375; -0.52734375; -0.336181640625;0
184;2156985704; 0.999999858320189; 4.826918297010105E-4; 5.5656320336383576E-5; -2.1741796920671241E-4; -0.15741068109564305; 0.03073756550306682; 0.030282653219808844; 0.62158203125; -0.52734375; -0.336181640625;0
185;2157002371; 0.9999996797265613; 6.860188163337003E-4; -1.6653992702825304E-4; -3.770801120716039E-4; -0.15994593991993086; 0.029160447896751686; 0.030230920468294432; 0.62158203125; -0.5263671875; -0.33447265625;0
186;2157019038; 0.9999995092913708; 5.724370056456778E-4; -5.893701958615828E-4; -5.53512117649535E-4; -0.1594120365355119; 0.03140650124838997; 0.02786888059421961; 0.6201171875; -0.5283203125; -0.336669921875;0
187;2157035705; 0.9999992294961562; 0.0010519479281816046; -4.216297803532055E-4; -5.065974523927875E-4; -0.1562069328565916; 0.03048792577190311; 0.032379330825056105; 0.617919921875; -0.529296875; -0.33251953125;0
188;2157052372; 0.9999986915342637; 0.0012738739538821196; -3.821784642647486E-4; -9.209313392628538E-4; -0.15646627471968888; 0.030624661390069852; 0.03106864296193843; 0.618896484375; -0.52783203125; -0.336669921875;0
189;2157069039; 0.9999980555112046; 0.001487163930999895; 4.089105953311023E-4; -0.0012288650768653155; -0.15533119305180754; 0.030692046433723752; 0.029980283826949405; 0.624267578125; -0.52734375; -0.33544921875;0
190;2157085706; 0.9999957366121308; 0.0018268090219214488; 0.0016242226754516476; -0.0015973187095275623; -0.15260715460697394; 0.030312697275162403; 0.02974801295504453; 0.625244140625; -0.52880859375; -0.329833984375;0
191;2157102373; 0.9999914836130032; 0.0020167727059284954; 0.0030390620672168804; -0.0019311734952999207; -0.1530463060420125; 0.0304195208676512; 0.027721982207880375; 0.628662109375; -0.5244140625; -0.322021484375;0
192;2157119040; 0.999986582127405; 0.0020480917289417994; 0.004226435228468551; -0.002185893565582908; -0.15514033488190612; 0.03141915224616438; 0.02535526547651829; 0.63330078125; -0.5244140625; -0.316162109375;0
193;2157135707; 0.9999750240538466; 0.0022543605346563612; 0.0063244518680450335; -0.0022069063544498673; -0.150994904529539; 0.02867127518267577; 0.026465964783729635; 0.64208984375; -0.52294921875; -0.307861328125;0
194;2157152374; 0.9999559499481393; 0.002637005884898892; 0.008860016540793103; -0.0016261827001426978; -0.15010600478937264; 0.02969376413389037; 0.021442309715710234; 0.649658203125; -0.52197265625; -0.293212890625;0
195;2157169041; 0.9999257311456319; 0.003205119282318633; 0.01174082005564059; -6.42298747340342E-4; -0.15324068240587466; 0.02984469885460957; 0.01638215712871785; 0.661376953125; -0.523193359375; -0.27587890625;0
196;2157185708; 0.9998773004708085; 0.00407210978828389; 0.01506062458632962; 0.001406951367479925; -0.15209142380523835; 0.022078596615122882; 0.013460609688916669; 0.67138671875; -0.529052734375; -0.252197265625;0
197;2157202375; 0.9997944186797102; 0.004269655483218391; 0.01942297037721885; 0.0039545721235927376; -0.1557726466006809; 0.035142898010841674; 0.0035256920151775593; 0.681884765625; -0.535888671875; -0.21826171875;0
198;2157219042; 0.9996959205911226; 0.0025373025577293505; 0.02402063214260858; 0.0049636358315213736; -0.1494349562834626; 0.04441026936272156; -0.0035302588176975517; 0.6923828125; -0.54638671875; -0.185791015625;0
199;2157235709; 0.9996142327093034; 0.0010984910543759031; 0.02724969016138271; 0.005256754559869182; -0.16169066209101413; 0.03950816159280873; -0.011708694458962656; 0.698974609375; -0.5517578125; -0.142578125;0
200;2157252376; 0.9995985105187417; 1.6837010526062762E-4; 0.02791322844850092; 0.004862211205042044; -0.16564847746083902; 0.03513828103514528; -0.0128894755017011; 0.71240234375; -0.55615234375; -0.103271484375;0
201;2157269043; 0.9996705832017362; -7.956960347250269E-5; 0.025249009618558277; 0.004605025848014922; -0.17681138098031307; 0.03454974370668666; -0.007694916366624191; 0.717529296875; -0.567138671875; -0.06298828125;0
202;2157285710; 0.999785579865067; 0.0010131538863769607; 0.02037374866312142; 0.003560642987781526; -0.1765718198570837; 0.03488644884237834; -0.006309130263325572; 0.72119140625; -0.572509765625; -0.029052734375;0
203;2157302377; 0.9998468162071925; 0.0024076725303269486; 0.017065343544332593; 0.0030530776343523085; -0.16802357602838516; 0.03449854022924163; -0.012607192020255648; 0.7216796875; -0.57568359375; 0.001220703125;0
204;2157319044; 0.9998866719339473; 0.0037129105012193575; 0.014360918443126121; 0.0025732481292404796; -0.1677836429853815; 0.031629993450780734; -0.021149704698369028; 0.72119140625; -0.579345703125; 0.0283203125;0
205;2157335711; 0.999900719557883; 0.0040159296274949186; 0.01325062596214771; 0.002616151460857919; -0.15463436562025423; 0.04115009995123266; -0.03623781420369988; 0.723388671875; -0.585693359375; 0.052001953125;0
206;2157352378; 0.999903456329827; 0.004022400926293926; 0.01305885767991405; 0.002522805293635022; -0.15122897943739919; 0.04363346705327696; -0.04467260314127051; 0.71875; -0.58935546875; 0.076904296875;0
207;2157369045; 0.9999130130847994; 0.004432243643390191; 0.012157954814007362; 0.00255061065313017; -0.14953355455490336; 0.042943489507244796; -0.05079541933361049; 0.721435546875; -0.592041015625; 0.098388671875;0
208;2157385712; 0.9999223677595707; 0.0047782326164323985; 0.0111907738491754; 0.0026820752811327897; -0.14876589231770984; 0.04420757218178859; -0.05699694919108901; 0.71630859375; -0.599365234375; 0.1240234375;0
209;2157402379; 0.999938103598066; 0.004440626284977323; 0.009877814725563233; 0.002549232658652923; -0.14818479897313758; 0.04913016898753804; -0.06427984817865554; 0.710205078125; -0.60107421875; 0.143798828125;0
210;2157419046; 0.9999636673294288; 0.002394948046656395; 0.007990765817786004; 0.0017538262681453531; -0.14571004334578957; 0.05787400681964624; -0.070659949838598; 0.710205078125; -0.6025390625; 0.16162109375;0
211;2157435713; 0.9999805011112441; -5.5048834138163305E-5; 0.006211705319371833; 6.395967138443926E-4; -0.1409797975725831; 0.051663703441166; -0.07193786927010967; 0.70751953125; -0.6083984375; 0.1708984375;0
212;2157452380; 0.9999865235591302; -7.134574557546847E-4; 0.005142081161181909; 5.1767904435284784E-5; -0.137995079491122; 0.04694385634511447; -0.07142321646796114; 0.704833984375; -0.605712890625; 0.17822265625;0
213;2157469047; 0.9999897985360905; -8.854567484126857E-4; 0.004419448800308937; -2.954020945307723E-4; -0.1347580543771329; 0.045655658867205864; -0.07222669361652219; 0.707275390625; -0.6083984375; 0.180908203125;0
214;2157485714; 0.999991651049848; -7.045667808827233E-4; 0.004020483112599339; -1.926961120210513E-4; -0.13334603267460202; 0.043866462372826896; -0.07254324970136872; 0.709228515625; -0.605224609375; 0.1865234375;0
215;2157502381; 0.9999932459274088; -6.364744753979967E-4; 0.003619259535147718; -6.293031340459666E-5; -0.13467540510735876; 0.044251325864254704; -0.07347810536079416; 0.704345703125; -0.604248046875; 0.196533203125;0
216;2157519048; 0.9999950036221329; -7.998441450002697E-4; 0.003057733557791848; -5.6970198961781016E-5; -0.13424191827593535; 0.04441239598445849; -0.07397315431579156; 0.704345703125; -0.6064453125; 0.198486328125;0
217;2157535715; 0.9999966909212172; -0.0012602288439995668; 0.0022331524991499596; -2.0736391169046134E-4; -0.13613585508422266; 0.044808952714314725; -0.07466923112181237; 0.70849609375; -0.60595703125; 0.201171875;0
218;2157552382; 0.999996796278973; -0.002210866970326811; 0.0010239483285282155; -6.863154159958418E-4; -0.1377669037446635; 0.04483883363296036; -0.07272863807280658; 0.703369140625; -0.60595703125; 0.2001953125;0
219;2157569049; 0.9999966469681308; -0.0024265528246782547; 1.5745799690558562E-4; -8.905621054206559E-4; -0.13790213882939562; 0.042511809727342476; -0.07169771433511482; 0.70654296875; -0.604248046875; 0.196044921875;0
220;2157585716; 0.9999963283821436; -0.0025027863743492113; -3.631175515156349E-4; -9.733592553676784E-4; -0.1386446454875441; 0.04573976382607342; -0.07250109438104724; 0.70751953125; -0.603759765625; 0.19384765625;0
221;2157602383; 0.999995673935954; -0.002705073513238801; -7.195004272910199E-4; -9.03883731686317E-4; -0.1401102648341186; 0.04544947645886009; -0.0735453688703748; 0.711181640625; -0.59912109375; 0.19091796875;0
222;2157619050; 0.9999966156521153; -0.002516460771388937; -4.8606186575034244E-4; -4.470496220477793E-4; -0.13982497666726718; 0.04309660565379199; -0.07157008635233705; 0.710693359375; -0.600341796875; 0.19140625;0
223;2157635717; 0.9999971344985644; -0.0023616503623546947; -3.530963585782893E-4; -1.7007406484631507E-4; -0.14038506901884107; 0.04371232722929723; -0.07153933750614265; 0.713134765625; -0.602783203125; 0.18408203125;0
224;2157652384; 0.9999972742416289; -0.0022953949639456794; -2.7365286739004796E-4; -3.283068384536958E-4; -0.14058480961081893; 0.0435716686980121; -0.06987567922698293; 0.70947265625; -0.60009765625; 0.1787109375;0
225;2157669051; 0.999997148775525; -0.002350893616321903; -8.728918330883073E-6; -4.191226923206948E-4; -0.14060249752226658; 0.04302144182494234; -0.068086724991841; 0.71142578125; -0.601806640625; 0.1787109375;0
226;2157685718; 0.9999974916581704; -0.002225844628412521; 6.287899928751618E-5; -2.4153527471743041E-4; -0.14172765763324047; 0.042989911378567475; -0.06701394992208337; 0.714111328125; -0.60009765625; 0.1767578125;0
227;2157702385; 0.9999985539328459; -0.0016970995802283728; -8.104205476744399E-5; 7.360310638571123E-5; -0.14216160891370422; 0.0402572405037665; -0.06617783680284889; 0.711669921875; -0.6015625; 0.17138671875;0
228;2157719052; 0.999999377256365; -0.0011040442117661864; 3.2289217357400764E-5; 1.5978318820597526E-4; -0.1401703145836; 0.0396574103867608; -0.06673574359773674; 0.712646484375; -0.602294921875; 0.17041015625;0
229;2157735719; 0.999999636060021; -8.065642844764243E-4; 2.3536547962875465E-4; 1.481113483428609E-4; -0.13948826227025712; 0.04223929296642595; -0.06821295120337034; 0.710693359375; -0.599609375; 0.171875;0
230;2157752386; 0.9999996008000805; -8.132306782239196E-4; 3.335741979690194E-4; 1.6057334129460088E-4; -0.13928252845882896; 0.04387538424413435; -0.0686873941930059; 0.711669921875; -0.59912109375; 0.1689453125;0
231;2157769053; 0.999999563136499; -8.643593402478389E-4; 3.0404658799929046E-4; 1.848388874002849E-4; -0.13914668147318973; 0.04459542414623788; -0.0690314354048975; 0.711181640625; -0.602783203125; 0.16845703125;0
232;2157785720; 0.9999996661262937; -7.646501643672476E-4; 1.8376337111185306E-4; 2.2201002403371417E-4; -0.1392543859460188; 0.04314453036015623; -0.06887482530779684; 0.711181640625; -0.603759765625; 0.169921875;0
233;2157802387; 0.9999998583961555; -5.003706513420914E-4; 6.176678279680436E-5; 1.7035769653150903E-4; -0.13826483073507156; 0.04360598697987006; -0.06984948136585917; 0.711669921875; -0.60107421875; 0.167236328125;0
234;2157819054; 0.999999928258271; -3.7157674284216125E-4; -5.938464374656561E-5; 4.344699120067963E-5; -0.13845778452499768; 0.044757715521645716; -0.07060333770563426; 0.712890625; -0.605224609375; 0.167236328125;0
235;2157835721; 0.9999999022860782; -3.4735460664508944E-4; -2.6292246453779594E-4; -7.512914915980275E-5; -0.1383881480677108; 0.04534711190468646; -0.0700085487942748; 0.712890625; -0.599609375; 0.166748046875;0
236;2157852388; 0.9999998899118624; -2.7982140660773314E-4; -3.351870740829072E-4; -1.718309306447119E-4; -0.13892333120559647; 0.045551900326392954; -0.06955879253196587; 0.71337890625; -0.602783203125; 0.16943359375;0
237;2157869055; 0.9999998774659394; -2.849231012954645E-4; -3.5531258011642364E-4; -1.940100585383631E-4; -0.13946657658413547; 0.04576996498839449; -0.0696052978928952; 0.710693359375; -0.605712890625; 0.165771484375;0
238;2157885722; 0.9999998981127212; -2.503295784916093E-4; -3.687508639797777E-4; -7.164111799706774E-5; -0.1398432837738019; 0.04468465724367006; -0.06913154314169206; 0.711669921875; -0.599609375; 0.165771484375;0
239;2157902389; 0.9999998408643714; -2.0311941774325826E-4; -5.207371530524808E-4; -7.64627448944233E-5; -0.1397188955129111; 0.045010378375310287; -0.06953706470205413; 0.710205078125; -0.6005859375; 0.165771484375;0
240;2157919056; 0.99999986918883; -9.386501667948965E-5; -4.7593089999968535E-4; -1.6217724860839722E-4; -0.13905541531831644; 0.04490540768687118; -0.06926090068742038; 0.712890625; -0.599609375; 0.164794921875;0
241;2157935723; 0.9999998852594153; -5.580661919735164E-5; -4.426413800298068E-4; -1.7445740537758161E-4; -0.14025518941740056; 0.04610829485167997; -0.06950143984063506; 0.7138671875; -0.6015625; 0.1640625;0
242;2157952390; 0.9999998562853704; -9.826663588610729E-5; -5.174815084997842E-4; -9.992895097382659E-5; -0.14039386471091328; 0.04574965571165783; -0.06907773117877176; 0.71337890625; -0.5986328125; 0.164794921875;0
243;2157969057; 0.9999997458714395; -3.3610269476791466E-5; -7.119166346975099E-4; -1.7381353762002675E-5; -0.14007863329858503; 0.045402972866148056; -0.06880689584467795; 0.71337890625; -0.599609375; 0.16259765625;0
244;2157985724; 0.9999997429225532; 5.236703503386231E-5; -7.119336934412053E-4; 6.754951710763457E-5; -0.13953143466612322; 0.04502854719568398; -0.06875991860519338; 0.71337890625; -0.59814453125; 0.159423828125;0
245;2158002391; 0.9999998344909663; 1.1574340162259777E-4; -5.403116443776779E-4; 1.6026488090947757E-4; -0.13911532867803825; 0.04510548525896974; -0.06839377120344961; 0.714111328125; -0.60205078125; 0.157958984375;0
246;2158019058; 0.9999998087986776; 2.0288072728802398E-4; -5.192377023676005E-4; 2.6764571232418266E-4; -0.13947594159864593; 0.04536116664042315; -0.06808316654792373; 0.71142578125; -0.599609375; 0.157958984375;0
247;2158035725; 0.9999997945491196; 1.5491454141461358E-4; -5.648401711805946E-4; 2.604971871357776E-4; -0.13933172961315946; 0.04550169635839725; -0.06826850729080429; 0.709716796875; -0.603271484375; 0.159423828125;0
248;2158052392; 0.9999997948105775; 4.943648697786074E-5; -5.969195722399513E-4; 2.2720444720369937E-4; -0.1390321679761221; 0.04557064980656304; -0.06963963961086822; 0.7109375; -0.60302734375; 0.15673828125;0
249;2158069059; 0.9999999038787983; 6.00777331565272E-5; -3.997980683921182E-4; 1.696896122526659E-4; -0.13913961714485867; 0.04631336857986298; -0.06937614147274021; 0.713134765625; -0.6005859375; 0.1552734375;0
250;2158085726; 0.9999999645962258; -3.099588069738202E-5; -2.577378177275325E-4; 5.8463834883115684E-5; -0.13964822562872325; 0.047115444355615946; -0.06889415780638208; 0.71142578125; -0.60302734375; 0.15576171875;0
251;2158102393; 0.9999999623549606; -1.222518819242735E-4; -2.4564350999269074E-4; -1.9546792420777064E-6; -0.14027376386480347; 0.045512351155137507; -0.06873780160251132; 0.714599609375; -0.60205078125; 0.15625;0
252;2158119060; 0.99999992998567; -8.827156219443077E-6; -3.740438580625977E-4; 6.475235217462405E-6; -0.14019534730551383; 0.04427852866617585; -0.0682753207014066; 0.71240234375; -0.6015625; 0.158447265625;0
253;2158135727; 0.9999999086492138; 1.667051776811923E-4; -3.846615523512287E-4; 8.33452931549017E-5; -0.1401034955855815; 0.04566132913282575; -0.0671664667946538; 0.7109375; -0.6025390625; 0.15625;0
254;2158152394; 0.9999998698535105; 1.7808191312970734E-4; -4.6920867118462056E-4; 9.1776996880788E-5; -0.139733252408626; 0.046139803282987515; -0.06643929152446462; 0.713134765625; -0.603759765625; 0.1552734375;0
255;2158169061; 0.9999998329394453; 1.509168215555745E-4; -5.541220242591822E-4; -6.55284426070435E-5; -0.13935539003096922; 0.044636246874997; -0.06679341062896922; 0.71240234375; -0.6005859375; 0.15625;0
256;2158185728; 0.9999997254814263; 6.545437129504283E-5; -6.875312039188592E-4; -2.6842809268701195E-4; -0.1392532576781392; 0.044690967915229286; -0.06753194069194113; 0.713623046875; -0.6005859375; 0.150634765625;0
257;2158202395; 0.9999996310648973; 1.0216444699134852E-4; -7.735693564464019E-4; -3.591976417449128E-4; -0.14086866281343197; 0.042976159074685424; -0.06755879348595692; 0.712646484375; -0.60205078125; 0.152099609375;0
258;2158219062; 0.9999995933521542; -8.425515040197395E-5; -7.907727595764525E-4; -4.252940616524814E-4; -0.1394413872077584; 0.046093614838694966; -0.07037282261157522; 0.712646484375; -0.60009765625; 0.14794921875;0
259;2158235729; 0.999999608954948; -1.5442680600230574E-4; -8.633554850457638E-4; -1.1340026112610647E-4; -0.14031571334122553; 0.04935119614770164; -0.06886854914315073; 0.713623046875; -0.599609375; 0.1474609375;0
260;2158252396; 0.999999778776644; -1.7059008939843134E-4; -6.303387666965339E-4; 1.2656509554270778E-4; -0.139492379154227; 0.04929129828767572; -0.06814357397414968; 0.713623046875; -0.59912109375; 0.14794921875;0
261;2158269063; 0.9999998804187422; -2.636451255995931E-4; -4.0620973234334334E-4; -6.817185754315337E-5; -0.13828670047893427; 0.04581300578283741; -0.06825714170943332; 0.714111328125; -0.599609375; 0.14697265625;0
262;2158285730; 0.9999999517007269; -1.9059527071818572E-4; -2.3377049561514043E-4; -7.498894513041643E-5; -0.13979492782325098; 0.04450798537594379; -0.06635554321658022; 0.712158203125; -0.6005859375; 0.146484375;0
263;2158302397; 0.9999999867360321; -1.2067434724358228E-4; -8.089803270809605E-5; -7.362843092001416E-5; -0.14119739074106016; 0.04383730287679915; -0.06582645869676959; 0.713623046875; -0.6005859375; 0.146484375;0
264;2158319064; 0.9999999733932856; -1.6817830484622265E-4; -1.454428090769261E-4; -6.144814989567093E-5; -0.1410377486662251; 0.044850430777343714; -0.06566765251872908; 0.713134765625; -0.603515625; 0.144775390625;0
265;2158335731; 0.9999999739812387; -9.580084622901053E-6; -1.8431805573547455E-4; -1.3406191919002056E-4; -0.14185468129234635; 0.04430967416558516; -0.06489216243804417; 0.71484375; -0.598876953125; 0.143310546875;0
266;2158352398; 0.999999983249377; 1.4582163839035878E-4; -7.911592468039243E-5; -7.731730748122834E-5; -0.14092410207596437; 0.044265668315180716; -0.06564106088246678; 0.71435546875; -0.596923828125; 0.144775390625;0
267;2158369065; 0.9999999773979589; 2.1110136804025625E-4; 2.088523886541183E-5; -1.4286389598272555E-5; -0.1417546898848475; 0.045541895205556904; -0.06627619870715847; 0.713623046875; -0.597412109375; 0.14599609375;0
268;2158385732; 0.9999999570891643; 2.4348020164766115E-4; 1.3938892652300142E-4; 8.431955886739617E-5; -0.1414361754983689; 0.045365816151038206; -0.06620831830027404; 0.713134765625; -0.6005859375; 0.144287109375;0
269;2158402399; 0.9999999661636694; 1.5434494670582555E-4; 1.987085039423936E-4; 6.606987226465134E-5; -0.1406051562370122; 0.04557033184741741; -0.06640259795859933; 0.716796875; -0.60009765625; 0.144775390625;0
270;2158419066; 0.9999999696449149; 1.957074087274857E-5; 2.4511508696907497E-4; 1.5676404415521095E-5; -0.13996505846737683; 0.045160943303081076; -0.06652068511800978; 0.71533203125; -0.598388671875; 0.144775390625;0
271;2158435733; 0.9999999226524823; 1.8033444125389875E-4; 3.439071667102889E-4; -6.246902643536335E-5; -0.1400323802672809; 0.04351042439033862; -0.06694569988726953; 0.713623046875; -0.599609375; 0.14794921875;0
272;2158452400; 0.9999998894248768; 2.6264513791252053E-4; 3.896310617325927E-4; 1.8852090442333935E-5; -0.14100397255906474; 0.043621266646663534; -0.06709292301119352; 0.71533203125; -0.598388671875; 0.14697265625;0
273;2158469067; 0.9999999289106692; 2.6381943065062474E-4; 2.6555574617294353E-4; 4.5366398571167206E-5; -0.14080199325658158; 0.04457352526844284; -0.0676835308283565; 0.71484375; -0.598388671875; 0.1474609375;0
274;2158485734; 0.9999999391939218; 2.9198886434950166E-4; 1.690607191253274E-4; 8.816535000205628E-5; -0.14022748648767777; 0.04349746734387498; -0.0669749900838409; 0.712646484375; -0.598388671875; 0.150634765625;0
275;2158502401; 0.9999998524225571; 4.198394864995958E-4; 2.664684214598451E-4; 2.1882470161183057E-4; -0.1399479822074175; 0.04460762613873579; -0.06741390589518537; 0.714111328125; -0.60205078125; 0.150146484375;0
276;2158519068; 0.9999998162142706; 5.133241200563354E-4; 2.3247818970448256E-4; 2.236597061449075E-4; -0.140540353820348; 0.04393455651056555; -0.06668710944468635; 0.71630859375; -0.603271484375; 0.1533203125;0
277;2158535735; 0.9999998182080742; 4.924178219344599E-4; 2.642991482175727E-4; 2.2639449581823848E-4; -0.1406228400392321; 0.04590613947773006; -0.06743341814663656; 0.713134765625; -0.60107421875; 0.150146484375;0
278;2158552402; 0.9999998596653136; 4.4797627303147514E-4; 2.0112618621527525E-4; 1.988337724403988E-4; -0.14119859448884411; 0.04659615142821613; -0.06785145528952458; 0.7119140625; -0.6005859375; 0.152099609375;0
279;2158569069; 0.9999998808753381; 3.7827081104493954E-4; 1.1534505108760919E-4; 2.861049148974449E-4; -0.14143163517629806; 0.04577339969519394; -0.0674479100944915; 0.71240234375; -0.6005859375; 0.15625;0
280;2158585736; 0.9999998806723912; 3.5111424457592855E-4; 1.0783824510543495E-4; 3.2209455646420304E-4; -0.14107160999604346; 0.046194264209015005; -0.06790340404692646; 0.713623046875; -0.6005859375; 0.154296875;0
281;2158602403; 0.9999999105382429; 3.0755367363027863E-4; 8.16568892499786E-5; 2.7868691471294454E-4; -0.14125123699931438; 0.045353105438243425; -0.06746027735483157; 0.71044921875; -0.60205078125; 0.15673828125;0
282;2158619070; 0.9999998964653762; 3.3193327644731596E-4; 3.39019787614775E-5; 3.094191211823749E-4; -0.14148870836538952; 0.04566143720293301; -0.06700601441158932; 0.713623046875; -0.60009765625; 0.15576171875;0
283;2158635737; 0.9999998181975268; 4.6995536461383325E-4; 1.630884987803977E-4; 3.408064116756649E-4; -0.14082885819406546; 0.044139428346561996; -0.06686852976456424; 0.71142578125; -0.60205078125; 0.15478515625;0
284;2158652404; 0.999999755255777; 5.768510749918909E-4; 1.795419489994399E-4; 3.528397822677998E-4; -0.14048531688157861; 0.044842697417275874; -0.0668757101669133; 0.708251953125; -0.603759765625; 0.159423828125;0
285;2158669071; 0.9999998518504536; 4.61030239619159E-4; 1.0840907438235126E-4; 2.683237999454025E-4; -0.14000651592585273; 0.045956778109441425; -0.06794917734844276; 0.7119140625; -0.603759765625; 0.158447265625;0
286;2158685738; 0.9999998934623278; 4.007033436336793E-4; 1.1369718875423042E-4; 1.989600782711931E-4; -0.13944282752529943; 0.04552618427841784; -0.06810609057814015; 0.709716796875; -0.604736328125; 0.160400390625;0
287;2158702405; 0.999999890071593; 4.255895500267781E-4; 1.2413865010912908E-4; 1.527086519230725E-4; -0.13995655309996632; 0.04593260846513357; -0.0681889475576559; 0.709716796875; -0.603271484375; 0.1630859375;0
288;2158719072; 0.9999999257597132; 3.246655940759291E-4; 7.344160920262634E-5; 1.9411117966877667E-4; -0.14005993805911335; 0.045612871520816126; -0.06764287436085877; 0.71142578125; -0.606689453125; 0.158935546875;0
289;2158735739; 0.9999999663220441; 1.8914092670926919E-4; -6.0201162045636636E-5; 1.6720478611315095E-4; -0.14057710448532115; 0.045433348482837775; -0.0680099122209996; 0.7119140625; -0.604736328125; 0.162109375;0
290;2158752406; 0.9999999399114626; 2.5171930067968695E-4; -2.002002609436532E-4; 1.2936120102996496E-4; -0.1412731259376964; 0.044398233141585905; -0.06802639249153611; 0.709716796875; -0.604248046875; 0.16162109375;0
291;2158769073; 0.9999998426202025; 4.3280302958123573E-4; -3.349391400253449E-4; 1.235187454107778E-4; -0.1404890132385539; 0.04390911502032284; -0.06820024897959892; 0.707275390625; -0.605224609375; 0.157470703125;0
292;2158785740; 0.9999998272484552; 4.7293485773911015E-4; -3.252470186893564E-4; 1.266888197190008E-4; -0.14053380379233796; 0.04404620867445379; -0.06799330250185018; 0.709716796875; -0.606689453125; 0.16162109375;0
293;2158802407; 0.9999997884574943; 5.654103280642725E-4; -2.9323202210675137E-4; 1.3195116006997634E-4; -0.14083538202554713; 0.044538468114527746; -0.06697428790897113; 0.709228515625; -0.604736328125; 0.160400390625;0
294;2158819074; 0.9999997336752964; 5.965690752482572E-4; -3.895306795277665E-4; 1.5817877380508438E-4; -0.14124982577704812; 0.04536719364970624; -0.06718256028013206; 0.70654296875; -0.604736328125; 0.162109375;0
295;2158835741; 0.9999997108069464; 5.34871033423992E-4; -5.114039427260854E-4; 1.7539956859191633E-4; -0.14158580028370832; 0.04479670472476163; -0.06648248123087618; 0.708251953125; -0.605712890625; 0.16259765625;0
296;2158852408; 0.9999995871438672; 6.395739988519916E-4; -6.109504140750511E-4; 2.083189543806152E-4; -0.14489408553562252; 0.044000240358232065; -0.06599764008872522; 0.709228515625; -0.606201171875; 0.16162109375;0
297;2158869075; 0.9999995422411599; 5.931304753186567E-4; -6.987349813855626E-4; 2.7474194340521013E-4; -0.14619122825395262; 0.04472059316656928; -0.06462813354073813; 0.71044921875; -0.605712890625; 0.160400390625;0
298;2158885742; 0.9999997992535291; 2.703960057338639E-4; -5.003347739667431E-4; 2.793635898578062E-4; -0.14505312758139247; 0.04502692940385722; -0.05964644162532318; 0.70556640625; -0.604248046875; 0.162109375;0
299;2158902409; 0.9999999605527445; -9.662809996120736E-5; -1.514093195777028E-4; 2.159461446764044E-4; -0.14801493139656258; 0.04225820077696496; -0.05197037006356209; 0.707763671875; -0.607666015625; 0.160400390625;0
300;2158919076; 0.999999807804834; -3.2650949495087456E-4; 3.07992245774727E-4; 4.2769454193980483E-4; -0.15367184815200477; 0.042402565137513996; -0.04652863694066325; 0.708251953125; -0.607666015625; 0.157958984375;0
301;2158935743; 0.9999996387941114; 1.0744282204414035E-4; 6.832527656703696E-4; 4.939973126817933E-4; -0.1647616595955433; 0.031563081953126716; -0.03182664928426845; 0.7060546875; -0.608154296875; 0.160400390625;0
302;2158952410; 0.9999995185126189; 9.723473838992441E-4; 9.116441137758947E-5; -9.593823781267607E-5; -0.1739986834051644; 0.032118610706393824; -0.025910990044024283; 0.7060546875; -0.606689453125; 0.16357421875;0
303;2158969077; 0.9999989395781219; 5.298346515168334E-4; -3.0210025853327776E-4; -0.0013224421754791107; -0.18504427270780513; 0.035307434026073496; -0.016101082769076805; 0.708740234375; -0.603759765625; 0.16357421875;0
304;2158985744; 0.9999961712617721; -4.2843255997747354E-4; -3.8088785071767334E-4; -0.0027071815202147076; -0.20549449677006615; 0.03669959909467625; -0.006207900579737387; 0.708740234375; -0.6025390625; 0.160400390625;0
305;2159002411; 0.9999916431614781; -0.001207332552559448; -0.0020874195643757615; -0.003301308055400243; -0.22443200029545432; 0.03491952881850274; 1.5544362431521228E-4; 0.71142578125; -0.59912109375; 0.159423828125;0
306;2159019078; 0.9999817917137026; -0.0013981448110624989; -0.004802651757665256; -0.0033757914975554026; -0.24129870323271724; 0.02790300997124986; 0.012522062120663539; 0.716064453125; -0.59130859375; 0.152587890625;0
307;2159035745; 0.9999676934004998; -7.843968735503221E-4; -0.007274784621836159; -0.0033278199372345223; -0.2589789179403405; 0.021827899070529178; 0.024954601373997284; 0.719482421875; -0.588134765625; 0.141845703125;0
308;2159052412; 0.9999492608173086; 3.409181065545108E-4; -0.00942928482102662; -0.003528194088566805; -0.2802286998750816; 0.01932558495938901; 0.0303791216425294; 0.722900390625; -0.58251953125; 0.12451171875;0
309;2159069079; 0.9999171457330525; 0.0012793947275383938; -0.012185703314604834; -0.0039463214421971435; -0.2975350702345549; 0.01841485694253334; 0.02961582771854869; 0.727294921875; -0.579345703125; 0.111572265625;0
310;2159085746; 0.9998668688235027; 0.00196652029329511; -0.015505721346841183; -0.004685086182191767; -0.30500013036867835; 0.01729304839987079; 0.02383424713344144; 0.73193359375; -0.57421875; 0.088623046875;0
311;2159102413; 0.9998047741367744; 0.001859142587249757; -0.018712651168974335; -0.006065796599145802; -0.31237499972436883; 0.02381268885241291; 0.016714907336138406; 0.735107421875; -0.56884765625; 0.06298828125;0
312;2159119080; 0.9997405570453459; 0.0011505010216019407; -0.021478320326816878; -0.007495111873716043; -0.32421285025026164; 0.027204725078782382; 0.010237488340295715; 0.740234375; -0.554443359375; 0.0322265625;0
313;2159135747; 0.9996623083474221; 0.001309847448747417; -0.024650258169656963; -0.0081190111056646; -0.3328556005191062; 0.026550003274990824; 4.883444948584979E-4; 0.741455078125; -0.54248046875; -0.00439453125;0
314;2159152414; 0.9995739117057493; 0.002693881841593436; -0.028045585426727502; -0.007627789716723898; -0.33216071761749133; 0.022243831212290004; -0.010767782266580343; 0.738525390625; -0.534423828125; -0.04345703125;0
315;2159169081; 0.9994784645145597; 0.004768135045987457; -0.0312721753544856; -0.006489600018446341; -0.32454454159328733; 0.025064936959799222; -0.024585493691168053; 0.734375; -0.529052734375; -0.08544921875;0
316;2159185748; 0.9994145068170586; 0.005746487115056476; -0.03325176731738192; -0.005651674063743561; -0.3160089687451961; 0.03532869806057685; -0.03912453527894618; 0.72412109375; -0.520263671875; -0.12353515625;0
317;2159202415; 0.9993869152619609; 0.005927964861936341; -0.03410053490110379; -0.005273173165782964; -0.3059748910702329; 0.04264531125339569; -0.04919115633088829; 0.7099609375; -0.516845703125; -0.173828125;0
318;2159219082; 0.9993852659914743; 0.006096480663024767; -0.034189545123618194; -0.004795627895864296; -0.2965292096427996; 0.04221188068257967; -0.05411910312412993; 0.690185546875; -0.515869140625; -0.214111328125;0
319;2159235749; 0.9993809488895214; 0.006315484785448643; -0.03433697704466949; -0.004336548862670376; -0.2830665955732408; 0.04825620964545578; -0.05974526867387556; 0.67041015625; -0.5146484375; -0.2529296875;0
320;2159252416; 0.9994109880569148; 0.004424385420529177; -0.03368921401777048; -0.0048102623230839026; -0.2715649424618905; 0.061769236031832986; -0.05963944597018693; 0.646484375; -0.51318359375; -0.29736328125;0
321;2159269083; 0.9994605167576466; 0.0021176859084571648; -0.03234448136074192; -0.005293899737988162; -0.2711249996596506; 0.055074348227342224; -0.04750038512064746; 0.6220703125; -0.509765625; -0.3349609375;0
322;2159285750; 0.9994693547680094; 0.0021573450874543404; -0.032203257960907346; -0.0043937362797504265; -0.2668886526835701; 0.038577800075054555; -0.03860376808964882; 0.597412109375; -0.507568359375; -0.371826171875;0
323;2159302417; 0.9994367649564824; 0.004402762375898414; -0.03318041398172978; -0.0024142627826082568; -0.25570775514989735; 0.02934014147810462; -0.03504655627598465; 0.564697265625; -0.507080078125; -0.409423828125;0
324;2159319084; 0.9994001043646695; 0.0063455654497203695; -0.03404433191419388; -3.8556390789318273E-4; -0.23431798273746102; 0.0288280094478025; -0.038849367330861605; 0.53271484375; -0.512451171875; -0.441650390625;0
325;2159335751; 0.999395969970434; 0.007321931865071074; -0.033955243913078303; 0.0010610991575334407; -0.21285438717685135; 0.0302616010341461; -0.03950756414071924; 0.487060546875; -0.521728515625; -0.468017578125;0
326;2159352418; 0.9994275160776808; 0.006897002772929844; -0.0330895686245597; 0.0014669382358821759; -0.1912561139901044; 0.033953928758868254; -0.04103645590414107; 0.447021484375; -0.533203125; -0.489990234375;0
327;2159369085; 0.9994709058160556; 0.006020971572456457; -0.03192856129912897; 0.0014910740842407069; -0.16916607560153743; 0.02998775802770315; -0.03834974897453755; 0.40234375; -0.542236328125; -0.5126953125;0
328;2159385752; 0.9995058204722767; 0.0057810160626795; -0.03084770104687368; 0.0017646629839390693; -0.1468768033182265; 0.023944175461146425; -0.03280178881451165; 0.365966796875; -0.548583984375; -0.53125;0
329;2159402419; 0.9995585602372623; 0.005184903865514651; -0.029201541046395607; 0.0017525492382126642; -0.12639218285087844; 0.026975140644483628; -0.03045842132326976; 0.32177734375; -0.5615234375; -0.547607421875;0
330;2159419086; 0.9996192601761451; 0.004544090862979883; -0.027156646558175183; 0.0017895448694427163; -0.10908424653016945; 0.024629760168586694; -0.020197841268868845; 0.2841796875; -0.56640625; -0.559326171875;0
331;2159435753; 0.9996729145896315; 0.0044881291695163805; -0.02505588348602739; 0.002474517157644907; -0.09345796905157946; 0.019387703938489806; -0.010880935722616402; 0.24462890625; -0.572265625; -0.5693359375;0
332;2159452420; 0.9997104349489707; 0.0049086073101796135; -0.023313902655785094; 0.0033784273516931362; -0.07602612239907888; 0.018325722521782037; -0.007021106555335447; 0.211181640625; -0.579833984375; -0.575927734375;0
333;2159469087; 0.9997457967808868; 0.005139028147993607; -0.021559629612874387; 0.004136977108898544; -0.05862542178310761; 0.016423354898426848; 2.534498530814989E-4; 0.174072265625; -0.59130859375; -0.580322265625;0
334;2159485754; 0.9997823573720386; 0.004952594747144323; -0.01975990013109963; 0.004500671026506919; -0.04282069968897849; 0.01396131689948443; 0.005450421968975359; 0.14208984375; -0.600341796875; -0.580322265625;0
335;2159502421; 0.9998099756252404; 0.005098960510482031; -0.018217097135228625; 0.0047064438734925615; -0.027528471052764934; 0.010563496246207615; 0.009191904113975424; 0.112548828125; -0.60546875; -0.5791015625;0
336;2159519088; 0.9998465028545299; 0.00455149104070024; -0.0164370691731246; 0.004009665306580035; -0.011052179711412854; 0.01726866126684538; 0.008342609193692204; 0.0810546875; -0.615966796875; -0.578125;0
337;2159535755; 0.9998897135998475; 0.0029645591699279383; -0.014292424658166158; 0.0027383614687399587; 0.0027194141608478666; 0.018619135361110185; 0.010291010076136208; 0.055908203125; -0.6220703125; -0.579833984375;0
338;2159552422; 0.99992721012619; 0.0011667774775082074; -0.011941769591666764; 0.0012677612518338932; 0.012987146560276396; 0.018888597334297774; 0.016540524133838722; 0.03759765625; -0.62548828125; -0.577880859375;0
339;2159569089; 0.9999556384666624; 1.348513758730463E-4; -0.009416336883521394; 1.8845034409348263E-4; 0.020995461242062002; 0.015649353849076363; 0.026539959743192575; 0.0234375; -0.621826171875; -0.578857421875;0
340;2159585756; 0.9999751308693718; -3.600979890105993E-5; -0.007043357447102162; -3.57018135936471E-4; 0.02284186055532698; 0.015694620903298293; 0.03488199925030323; 0.015625; -0.626953125; -0.5810546875;0
341;2159602423; 0.9999882634881143; 2.575510835351458E-4; -0.004823767977865823; -3.712357213506435E-4; 0.023954737403164908; 0.015734116242003396; 0.041599113524387984; 0.004150390625; -0.62646484375; -0.58056640625;0
342;2159619090; 0.9999948157761117; 7.616951784722992E-4; -0.003128615081554487; -3.0045034047909702E-6; 0.02462376500793667; 0.019187064994315738; 0.04618036446291763; 0.001953125; -0.624267578125; -0.57763671875;0
343;2159635757; 0.9999981346349711; 0.0010624659139321646; -0.0015553183290102914; 4.276419710771418E-4; 0.026137041406445457; 0.023776156576452566; 0.04989143300705151; -0.001708984375; -0.6279296875; -0.5791015625;0
344;2159652424; 0.9999987686944469; 0.001226452442064152; -2.2570458710918786E-4; 9.526182008783024E-4; 0.027152660152207454; 0.02486212180998651; 0.051769238357475815; -0.00439453125; -0.62939453125; -0.5791015625;0
345;2159669091; 0.9999979647819189; 0.001002026494660302; 0.001401016278910483; 0.0010504895574341702; 0.02809102648849351; 0.026263790266182085; 0.052054057412146144; -0.006103515625; -0.63037109375; -0.573974609375;0
346;2159685758; 0.999994342253328; 2.186858723196572E-4; 0.003325377674833208; 4.5771294813271024E-4; 0.026062120825766324; 0.028312398174912375; 0.052960242402935995; 2.44140625E-4; -0.631591796875; -0.575439453125;0
347;2159702425; 0.9999843324942189; -5.940552053579906E-4; 0.005560987313922961; -2.393420123302792E-4; 0.02012794751354821; 0.027428844640564658; 0.055819395775768846; 0.0087890625; -0.630615234375; -0.575439453125;0
348;2159719092; 0.9999697765727673; -6.477367590352889E-4; 0.007733461836846923; -4.6898413496873625E-4; 0.012589114243790405; 0.021732328489298805; 0.05881449713713773; 0.013427734375; -0.62744140625; -0.575927734375;0
349;2159735759; 0.9999524654794771; -2.657077726807566E-4; 0.009727737731896391; -6.060524019159409E-4; 0.002429065637633597; 0.019521598877694894; 0.062302560562381176; 0.02978515625; -0.629638671875; -0.57373046875;0
350;2159752426; 0.9999339810630445; -1.6918316656272525E-4; 0.01143401041553155; -0.0011261874997109955; -0.013019794478913337; 0.025553249620794676; 0.06548571638473982; 0.04638671875; -0.627197265625; -0.57421875;0
351;2159769093; 0.9999182470521462; -7.267049528982827E-4; 0.012625712077918074; -0.0018874603572035244; -0.027896475762677033; 0.03035227215028396; 0.07005462723668215; 0.06689453125; -0.627197265625; -0.571533203125;0
352;2159785760; 0.9999098517929015; -9.682149508262738E-4; 0.013235856086391664; -0.0020403335431349034; -0.040735489324615494; 0.03264274306105219; 0.07314563915605558; 0.084716796875; -0.62744140625; -0.5712890625;0
353;2159802427; 0.999910945290309; -8.791592730745257E-4; 0.013220518553528349; -0.0015957621343122843; -0.0501236760859114; 0.03851470050296261; 0.06906812745695086; 0.106689453125; -0.625; -0.568603515625;0
354;2159819094; 0.9999143185420145; -6.640961450894434E-4; 0.013062760790696517; -5.280449734748061E-4; -0.0531122168457756; 0.04011386073423789; 0.061925637958370014; 0.1240234375; -0.62158203125; -0.56591796875;0
355;2159835761; 0.9999127688270915; -2.9786635335565803E-4; 0.013151146943051696; 0.0011888424022000745; -0.05905026678570671; 0.03879159879965931; 0.05470889949398121; 0.142333984375; -0.62158203125; -0.5615234375;0
356;2159852428; 0.9998958241674953; 5.147575642593938E-4; 0.014080427287228582; 0.003133273761483313; -0.06596236924097211; 0.03683441700895665; 0.0518593589387602; 0.157470703125; -0.622314453125; -0.55517578125;0
357;2159869095; 0.999867239622374; 0.0015657682711121002; 0.015473918963017641; 0.004858943463488642; -0.0790973146447884; 0.03469301863005557; 0.04556353314689991; 0.17041015625; -0.6279296875; -0.548828125;0
358;2159885762; 0.9998397689678516; 0.0025479673043083406; 0.016769636456649754; 0.005720449811067896; -0.08845003012020652; 0.03171031532507464; 0.04081548161036856; 0.1865234375; -0.630615234375; -0.5400390625;0
359;2159902429; 0.9998250573333924; 0.0034161935155161416; 0.017418878561092147; 0.005896356486591426; -0.08948807541420081; 0.03502239533721053; 0.02948293816895168; 0.20166015625; -0.64208984375; -0.530517578125;0
360;2159919096; 0.9998104862044727; 0.0031717305545964913; 0.018455380084272003; 0.005322663507131065; -0.09676643980395173; 0.04347981165084554; 0.018533125105772753; 0.21728515625; -0.646484375; -0.513671875;0
361;2159935763; 0.999784876193289; 0.001803400269069666; 0.020157986415049067; 0.004539236315716012; -0.11005152256412441; 0.041163640154508; 0.019840597999947508; 0.2353515625; -0.650146484375; -0.505126953125;0
362;2159952430; 0.9997553896006197; 0.0028151847186403123; 0.02146060118751181; 0.004547339462103839; -0.12836749465319441; 0.02637872976167735; 0.021655002954527887; 0.254638671875; -0.655517578125; -0.4853515625;0
363;2159969097; 0.9997418965655506; 0.005434170943496436; 0.021603589954008965; 0.004460374286081093; -0.13999794902931623; 0.02780000535658473; 0.016444852625347967; 0.2763671875; -0.6669921875; -0.47119140625;0
364;2159985764; 0.9997313558567295; 0.006942322897945663; 0.021828931773338948; 0.0035380796035399675; -0.13867159620278002; 0.04325024190588095; 0.006765263609086424; 0.29345703125; -0.67529296875; -0.448974609375;0
365;2160002431; 0.9997225840241966; 0.005072072188574361; 0.02297839047136313; 0.0010112601261888512; -0.14581525716809654; 0.06464347036799528; -0.004210656508315168; 0.317626953125; -0.68017578125; -0.426513671875;0
366;2160019098; 0.9996920688507929; 0.0018498040363915946; 0.024694384670709838; -0.0015915613666373507; -0.16498866728657202; 0.0702347270445787; -0.005439697894079262; 0.344482421875; -0.6826171875; -0.406494140625;0
367;2160035765; 0.9996434142919115; -7.349029974268034E-4; 0.026496446982089753; -0.003231482278995224; -0.1767444524816558; 0.06293784670381233; 0.001933157378281855; 0.3798828125; -0.68017578125; -0.387451171875;0
368;2160052432; 0.9996426251613888; 0.001066048723895735; 0.02660423069082241; -0.0023875531229848868; -0.1942557379640288; 0.038459983939328674; 0.0014570158203780423; 0.40673828125; -0.67578125; -0.367919921875;0
369;2160069099; 0.999644753764671; 0.004700834920879748; 0.026214526177437858; -0.0010329758513131784; -0.20837748319291163; 0.05074336842490462; 0.005690839670895495; 0.438232421875; -0.681884765625; -0.340087890625;0
370;2160085766; 0.9995962630619601; 0.004389974930799234; 0.027995157476002955; -0.0020760902113071134; -0.2183686814142341; 0.07263042818726963; 0.011419924688045549; 0.462890625; -0.6845703125; -0.30810546875;0
371;2160102433; 0.9995304934920988; 0.0021905710739186512; 0.030287705905919785; -0.004080300083094069; -0.23049705068448906; 0.07511802814786955; 0.017388308672214442; 0.493896484375; -0.681884765625; -0.275634765625;0
372;2160119100; 0.9994982117558346; 4.621886821735838E-4; 0.031219532073122117; -0.005334031837746611; -0.24643037056199457; 0.07221055679997265; 0.025677355978901417; 0.52197265625; -0.67822265625; -0.2431640625;0
373;2160135767; 0.9995185859063501; -7.567631003231462E-4; 0.03051181546015619; -0.005572508834057911; -0.2602889207970912; 0.069733390998818; 0.03599661923766814; 0.552978515625; -0.668212890625; -0.211669921875;0
374;2160152434; 0.9995814783498694; -0.001202481673330577; 0.028470468153007886; -0.004985440889577919; -0.26841708917606955; 0.06559210546957087; 0.04298679714444531; 0.5810546875; -0.661376953125; -0.177490234375;0
375;2160169101; 0.9996454948360605; -0.001114885649361179; 0.026257059823753707; -0.004267141123582675; -0.2777901160844575; 0.0633006236967377; 0.04298198785339688; 0.60302734375; -0.655029296875; -0.146484375;0
376;2160185768; 0.9997138007072787; -7.352722362491404E-5; 0.02372021203442257; -0.003108506103742914; -0.27626722675014076; 0.05877978781687023; 0.04167286188218419; 0.621826171875; -0.64892578125; -0.114013671875;0
377;2160202435; 0.999767542506508; 7.768816972331671E-4; 0.021429922298650456; -0.0022396061261149573; -0.2690640788397495; 0.060836391956623326; 0.028398260273464038; 0.636474609375; -0.645263671875; -0.082763671875;0
378;2160219102; 0.9998124178734432; 0.0012126290610259757; 0.01924471747519971; -0.0018164377554445443; -0.26207897155850013; 0.06295832964668413; 0.014442414496335475; 0.6474609375; -0.642333984375; -0.05859375;0
379;2160235769; 0.9998404051629671; 0.0012876472939873478; 0.017750757492833256; -0.0015545984789030467; -0.25985083416032906; 0.0657691672452105; 0.0031782122620790804; 0.65478515625; -0.641845703125; -0.031494140625;0
380;2160252436; 0.9998526058026652; 0.001457901366112055; 0.017068628793011912; -0.00114153596234301; -0.2567402311096799; 0.06456120156796705; -0.006404819485108298; 0.663330078125; -0.640625; -0.004638671875;0
381;2160269103; 0.999863019730248; 0.002805804360341704; 0.016310329109439442; 2.059178062707168E-4; -0.2492870872232311; 0.056942079993737876; -0.015436643831725133; 0.671142578125; -0.6376953125; 0.017822265625;0
382;2160285770; 0.9998673054296046; 0.003918646561699154; 0.015729701769651164; 0.001610038603345687; -0.23727279366583046; 0.06354843760513583; -0.02691245648424711; 0.675048828125; -0.640380859375; 0.04541015625;0
383;2160302437; 0.9998551170392134; 0.002214809505809553; 0.01677421915061306; 0.001861483612942916; -0.22379928255842213; 0.07575200715001365; -0.023822535526244765; 0.6728515625; -0.64111328125; 0.072509765625;0
384;2160319104; 0.9998222409606073; -0.0010707405911491753; 0.018784646330753583; 0.0012153424719701378; -0.2199951860813325; 0.06988842143573001; -0.007636235128232988; 0.674560546875; -0.64111328125; 0.0966796875;0
385;2160335771; 0.9998147096445644; -0.002755401356846137; 0.0190372474199966; 7.330432373374719E-4; -0.21857603257799105; 0.05316165897867754; 0.003704709665548162; 0.671875; -0.642333984375; 0.12060546875;0
386;2160352438; 0.9998558939790472; -0.0014605341033063698; 0.01688536060141287; 9.709340109814169E-4; -0.21833152970772035; 0.03941329184797693; 0.00767844634525437; 0.672607421875; -0.64453125; 0.145263671875;0
387;2160369105; 0.9999099333888871; 1.886675304965113E-4; 0.013348477813167463; 0.0013811787956810042; -0.2178370721593491; 0.042221302734347814; -1.6375632236080052E-4; 0.67333984375; -0.648681640625; 0.1640625;0
388;2160385772; 0.9999373656335744; -8.06887392249607E-4; 0.011139073005828103; 7.312968578419565E-4; -0.21102509656024515; 0.05849492424274738; -0.010057047809386791; 0.67041015625; -0.648681640625; 0.178466796875;0
389;2160402439; 0.9999336209886219; -0.0035829132452748144; 0.010936311207436392; -5.598628706897092E-4; -0.20344814795050276; 0.05866502213434512; -0.01464059026933614; 0.669189453125; -0.647705078125; 0.190185546875;0
390;2160419106; 0.9999196364733459; -0.004917258400563729; 0.011602129787513698; -0.001389873817158438; -0.197594438714494; 0.04621529648462099; -0.013604283986923331; 0.67041015625; -0.645263671875; 0.20263671875;0
391;2160435773; 0.9999242977077064; -0.0034948513020965077; 0.011754394486879096; -0.0010094941174685348; -0.19372560489639043; 0.03371325082320781; -0.013186714273945034; 0.670166015625; -0.644287109375; 0.21240234375;0
392;2160452440; 0.999969209870882; 6.917844872360301E-5; 0.007831232916430038; 4.963018787045304E-4; -0.21411575658521012; 0.025130260032157885; 0.0013675584486167562; 0.67041015625; -0.641357421875; 0.22412109375;0
393;2160469107; 0.9999831425356382; 0.0031646497859485756; 0.004179222347035591; 0.0024967452524554683; -0.19377989996875294; 0.03302448815376482; -0.009801195718287165; 0.66552734375; -0.64697265625; 0.236572265625;0
394;2160485774; 0.9999877107881743; 0.0042955963109930495; 6.835888358744242E-4; 0.0023788298096690252; -0.18071341302696703; 0.05492312721966835; -0.04303148319159646; 0.66064453125; -0.64892578125; 0.244384765625;0
395;2160502441; 0.9999963100009315; -0.0014836673882471646; -0.0022725536669393064; 1.192284901030405E-4; -0.1853124289568164; 0.06739945171451028; -0.039263343539633386; 0.66064453125; -0.64697265625; 0.24267578125;0
396;2160519108; 0.999965750668991; -0.00646177254432076; -0.003686002601721958; -0.0036271709922320317; -0.14819289259987856; 0.05897708398139874; -0.03920603772085347; 0.664306640625; -0.64794921875; 0.22607421875;0
397;2160535775; 0.9999812231513521; -0.005135727320913927; -1.702594798733692E-4; -0.003338961113969641; -0.1523298314278266; 0.037598117772587994; -0.04045737291474386; 0.669921875; -0.643310546875; 0.221435546875;0
398;2160552442; 0.9999975119416868; -0.0019254492163211373; -3.045880237675103E-4; -0.0010844269856336575; -0.1570295893516939; 0.021315434859921427; -0.05171229680747109; 0.67333984375; -0.6396484375; 0.216796875;0
399;2160569109; 0.9999971251580159; 0.0017469383064325078; -0.001496549583452578; 6.769206757924474E-4; -0.14408025990106313; 0.014643887206201363; -0.064690358175963; 0.672119140625; -0.64013671875; 0.215576171875;0
400;2160585776; 0.9999841020804392; 0.004823262908891762; -0.0018484881935150745; 0.0022615951644409105; -0.14192242568412963; 0.027610218177657124; -0.07197483975578799; 0.66943359375; -0.642333984375; 0.21923828125;0
401;2160602443; 0.9999795148414435; 0.005451462314106634; -0.00205340077053609; 0.002652357702984332; -0.1446466310458397; 0.04934320323348837; -0.0727339510653715; 0.66845703125; -0.644287109375; 0.221923828125;0
402;2160619110; 0.9999838897843647; 0.004593355796187998; -0.0023942254032617853; 0.002321408835068206; -0.14486482457257913; 0.05747359104071193; -0.06933621776197689; 0.665283203125; -0.64794921875; 0.22705078125;0
403;2160635777; 0.9999886584039924; 0.003571632717609921; -0.002461269459018742; 0.0019668898708415376; -0.14308079263555767; 0.05876133992907805; -0.06394778605067711; 0.6630859375; -0.650390625; 0.228759765625;0
404;2160652444; 0.9999919413242513; 0.0028349584056848037; -0.0022155250108522877; 0.0017809397293009899; -0.14619972728552813; 0.054955365084195754; -0.05955455660709237; 0.660400390625; -0.651611328125; 0.231689453125;0
405;2160669111; 0.9999932282843821; 0.0023921077048054268; -0.0020067246004114164; 0.0019478866717992374; -0.14662223014247616; 0.05231672053973487; -0.05579922062929742; 0.658935546875; -0.654541015625; 0.228759765625;0
406;2160685778; 0.9999947413912843; 0.002200914373922107; -0.0013599608654153996; 0.001955421218481468; -0.14684074902764796; 0.04864312782196171; -0.04694409214547386; 0.65625; -0.6572265625; 0.229736328125;0
407;2160702445; 0.9999961381710297; 0.0019944064020570376; -1.9411263656157754E-4; 0.0019256963454242773; -0.15069568101674313; 0.045457551416369014; -0.03882977760950171; 0.654541015625; -0.6572265625; 0.23486328125;0
408;2160719112; 0.9999953379313364; 0.002128025930259403; 0.0010050298837649548; 0.0019456454366301723; -0.16274367089856012; 0.04696738547181755; -0.024686359798538574; 0.650390625; -0.65869140625; 0.231201171875;0
409;2160735779; 0.9999933195161935; 0.001965512603150414; 0.0029256519673300646; 9.686298348456358E-4; -0.17569066419012963; 0.04536460654342373; -0.01345962227339269; 0.647705078125; -0.663330078125; 0.2412109375;0
410;2160752446; 0.9999913017824612; 0.0029395154440640253; 0.0029578710103326665; -8.128627806880395E-5; -0.19289322280230004; 0.04072852776390237; -0.004645420859020662; 0.649169921875; -0.661376953125; 0.24853515625;0
411;2160769113; 0.9999945201648187; 0.003044258498309242; 8.179864430650983E-4; -0.0010114488165163251; -0.2186199423823309; 0.04849823932658834; 0.006628878176539638; 0.64794921875; -0.6591796875; 0.25634765625;0
412;2160785780; 0.9999884320450922; 4.219886264570441E-4; -0.0038382005288610872; -0.0028680861732648943; -0.23662831494537104; 0.050009706891932744; 0.020301414306111112; 0.651123046875; -0.65625; 0.253662109375;0
413;2160802447; 0.9999496278185142; -0.0020201710816889; -0.008419787919845566; -0.005076209786892717; -0.24721295881293562; 0.05919384963666238; 0.024025994524779527; 0.656494140625; -0.650634765625; 0.243896484375;0
414;2160819114; 0.9998922803658862; -0.004494087475887983; -0.01187237082300935; -0.007367336934595181; -0.26591713924171984; 0.06331796540709791; 0.03649606494341064; 0.6669921875; -0.644775390625; 0.2197265625;0
415;2160835781; 0.9998345415389335; -0.006455628643346187; -0.014501889691989832; -0.008883107553726956; -0.2903917738700355; 0.067475060499378; 0.04498294574490437; 0.679931640625; -0.635009765625; 0.19384765625;0
416;2160852448; 0.9997974338547071; -0.006233280274217698; -0.017005291735755854; -0.008778241711614232; -0.3196464493863858; 0.06377440265642756; 0.048055303549251506; 0.694091796875; -0.6201171875; 0.159912109375;0
417;2160869115; 0.9997587763900141; -0.004392078815674029; -0.020317850116858285; -0.0070910959271223714; -0.3414685078822982; 0.06644943089941253; 0.039181422372210215; 0.70166015625; -0.611572265625; 0.12744140625;0
418;2160885782; 0.9997117583299936; -0.0030293591026034003; -0.023306896442765433; -0.00490018554609517; -0.3564957484331165; 0.07557157403174268; 0.030918302821190066; 0.7080078125; -0.603271484375; 0.090087890625;0
419;2160902449; 0.9996479256507506; -0.002481010972206873; -0.026265356638605828; -0.0028284920636604265; -0.36193269817979695; 0.08421922510011208; 0.01820643067117684; 0.709228515625; -0.6005859375; 0.05078125;0
420;2160919116; 0.9995746590517057; -0.003046166172857575; -0.02898993680940049; -8.974503330741457E-4; -0.3709193778112677; 0.08129159102257606; 0.012935578486863624; 0.7001953125; -0.59765625; 0.00634765625;0
421;2160935783; 0.9994840379382124; -0.002119745358076033; -0.032017522548669415; 0.0014292782053010877; -0.3784618767851032; 0.06462965669446638; 0.006579734307171391; 0.691650390625; -0.596435546875; -0.042724609375;0
422;2160952450; 0.9993514158901406; 4.512529175849569E-4; -0.03582556892633563; 0.0036155968082595136; -0.374080454475271; 0.04717020086337641; -0.006987741602287883; 0.672119140625; -0.604736328125; -0.092529296875;0
423;2160969117; 0.9992153529161973; 0.0021562495132940555; -0.03928917741578509; 0.004515486971145622; -0.3583746536355514; 0.054784449879744; -0.03139136528882622; 0.6484375; -0.610107421875; -0.14111328125;0
424;2160985784; 0.9991510490432832; 0.0010886603388661487; -0.04098464252330842; 0.004031760361144887; -0.35407914089975645; 0.05985772536143111; -0.04941229999838958; 0.619384765625; -0.620849609375; -0.19189453125;0
425;2161002451; 0.9991292502660349; 1.1209432070020953E-4; -0.04159860633256521; 0.003206968799716215; -0.3366252295102652; 0.05834627615153162; -0.059264447523696494; 0.583251953125; -0.625; -0.243408203125;0
426;2161019118; 0.999146045808364; -3.2017836077315176E-4; -0.0412514962784113; 0.0023217851149673896; -0.3143899419121714; 0.0545864032585658; -0.06929164333922863; 0.54833984375; -0.63037109375; -0.2900390625;0
427;2161035785; 0.9991791403665209; -0.0013591267714711947; -0.040475581730487716; 9.620365992066283E-4; -0.2931688660473759; 0.06290908149219508; -0.08504869293471903; 0.511474609375; -0.62841796875; -0.335205078125;0
428;2161052452; 0.9992246227565166; -0.003972553154931904; -0.03915049308623037; -0.0012692476643445527; -0.2769226568754427; 0.06799903188116915; -0.08963027179330378; 0.472900390625; -0.62841796875; -0.380126953125;0
429;2161069119; 0.9992649950144792; -0.005926740428504121; -0.03779821719598109; -0.0023745027714265348; -0.2588340632054919; 0.05565674995617876; -0.08472203759531544; 0.4326171875; -0.620849609375; -0.420654296875;0
430;2161085786; 0.9992980681714398; -0.005556325062142306; -0.03698491592165593; -0.002148067713166779; -0.23462317804582816; 0.044021606716644006; -0.07601670201237859; 0.397705078125; -0.610107421875; -0.45947265625;0
431;2161102453; 0.9993288252833036; -0.003770475517586802; -0.036411775874487025; -0.001365668308905499; -0.2137922660695839; 0.033901394467316284; -0.06836734111459934; 0.3544921875; -0.605224609375; -0.489990234375;0
432;2161119120; 0.9993600744796239; -0.0023396393513736014; -0.03568406918172785; -7.841112290710717E-4; -0.18732828251123107; 0.04054740540235245; -0.06971371181168458; 0.310546875; -0.602294921875; -0.52099609375;0
433;2161135787; 0.9994198099593714; -0.002423486124901536; -0.03396997809889951; -4.5909011813383144E-4; -0.16330070355687631; 0.04344744500930876; -0.0636844106695596; 0.267333984375; -0.599365234375; -0.541015625;0
434;2161152454; 0.9994790167694243; -0.002346912015551511; -0.03218850532779278; 2.9523952798438113E-4; -0.13913534712464756; 0.03906039091230902; -0.05686934773545775; 0.219970703125; -0.597412109375; -0.560791015625;0
435;2161169121; 0.9995458925741242; -0.0017886042283030146; -0.030063220090035928; 0.0010061465747998046; -0.10674043680156636; 0.029600923574493627; -0.042636770659611065; 0.177978515625; -0.592529296875; -0.574462890625;0
436;2161185788; 0.9996208476431059; -0.0019098367554217788; -0.027454626758176174; 8.700289738716727E-4; -0.0881349776796147; 0.033381027416291245; -0.03592945721263656; 0.139892578125; -0.591064453125; -0.585205078125;0
437;2161202455; 0.999688629531247; -0.0026026764246430134; -0.024812076301457486; 4.805527819864431E-4; -0.06899115268183106; 0.02839410339797661; -0.02166255707195949; 0.102294921875; -0.58740234375; -0.598388671875;0
438;2161219122; 0.9997458870454141; -0.0028760612311918288; -0.022355513171628098; 3.4733039848566793E-4; -0.05014717812326285; 0.02337985091715705; -0.005019033519579566; 0.072021484375; -0.583984375; -0.60595703125;0
439;2161235789; 0.9998034342710516; -0.0024723899827996942; -0.019666978816150097; 4.359493423704009E-4; -0.03412893247418902; 0.018150504497445534; 0.017495478656381912; 0.03955078125; -0.57958984375; -0.615478515625;0
440;2161252456; 0.9998387549646355; -0.0028136390403873945; -0.017731060778966915; -3.962193463775132E-4; -0.032153801395242605; 0.02425995017721127; 0.027608112818527836; 0.013916015625; -0.573974609375; -0.6171875;0
441;2161269123; 0.9998469082339743; -0.0029783821354503748; -0.01718748901643735; -0.0013709690468877436; -0.030161626706105185; 0.019654360312731434; 0.035135858542999984; -0.01025390625; -0.57373046875; -0.62158203125;0
442;2161285790; 0.999855900405341; -0.0028203197879731468; -0.016656823116530942; -0.0016656724116719535; -0.01744026633747395; 0.017427934867276142; 0.04565502207966576; -0.03369140625; -0.571044921875; -0.626708984375;0
443;2161302457; 0.9998802480655531; -0.0021954063510098987; -0.01523911638295389; -0.0015617461985821814; -0.004475280635278205; 0.016916718661046163; 0.05197847747901274; -0.057861328125; -0.561767578125; -0.630615234375;0
444;2161319124; 0.9999119776534258; -0.0017348673689016048; -0.01304472110361299; -0.0016918722636057038; 0.0036793427738366705; 0.017923129577902645; 0.055872436059379124; -0.07568359375; -0.5615234375; -0.629638671875;0
445;2161335791; 0.9999399252023686; -0.0010462027574809074; -0.010786575242736629; -0.0016435451330698572; 0.009614615904847268; 0.0165190624143447; 0.0592363061953429; -0.08837890625; -0.560546875; -0.629638671875;0
446;2161352458; 0.9999641191272779; 5.093421503023499E-4; -0.008415505098686106; -8.24804531500356E-4; 0.014314102457690466; 0.009308578003777986; 0.06134678762033757; -0.1025390625; -0.5615234375; -0.62939453125;0
447;2161369125; 0.9999744111493627; 0.002104106299827657; -0.006837161389937397; -5.483878577799973E-5; 0.026987501774641893; 0.014797768443582694; 0.06378629915242406; -0.10986328125; -0.56640625; -0.625732421875;0
448;2161385792; 0.9999798447445487; -2.6850208348683235E-4; -0.00622061583710476; -0.001241752755809622; 0.0362443882915777; 0.02991958483814572; 0.05946227402351866; -0.12353515625; -0.562744140625; -0.624267578125;0
449;2161402459; 0.9999713308405661; -0.003676898320300215; -0.00565042077797534; -0.003448283735564051; 0.04151438494884963; 0.03129790055420881; 0.062373289253911966; -0.127197265625; -0.562255859375; -0.62744140625;0
450;2161419126; 0.9999621261405075; -0.005426589466702658; -0.004990519982163989; -0.004625269897318818; 0.041047853027262535; 0.018409176873431955; 0.07030219918648548; -0.127685546875; -0.55419921875; -0.62939453125;0
451;2161435793; 0.999977359224413; -0.004072378446929592; -0.004076263838056927; -0.0034757510665632822; 0.038949205082411356; 0.003457717803559957; 0.0780898499595677; -0.13134765625; -0.550048828125; -0.632568359375;0
452;2161452460; 0.9999946787124575; -0.0010003811213281089; -0.002842484377498456; -0.0012498267659148965; 0.04071482443282262; 0.002645525209846289; 0.07927849383945379; -0.134033203125; -0.544677734375; -0.638427734375;0
453;2161469127; 0.9999983949728739; 0.0012082835190980745; -0.0012275706931020314; 4.931255490326359E-4; 0.04597027868520253; 0.012944139548027169; 0.07547311342494199; -0.1376953125; -0.54736328125; -0.633056640625;0
454;2161485794; 0.9999983400417776; 0.0014743708715717063; 3.082035798680494E-4; 0.001025258394660833; 0.05102801571196889; 0.023793843786121063; 0.06937918275376427; -0.13623046875; -0.54638671875; -0.63427734375;0
455;2161502461; 0.9999975209861522; 6.199282178337984E-4; 0.001938755430346384; 9.027391295626798E-4; 0.05180219204845514; 0.026423691647840735; 0.06697400635933827; -0.13623046875; -0.54736328125; -0.633056640625;0
456;2161519128; 0.9999927531717734; 1.0766794627498077E-4; 0.003631634881629598; 0.0011372069453796096; 0.048390075951458826; 0.022821325235722865; 0.06651309412867251; -0.13134765625; -0.552001953125; -0.634033203125;0
457;2161535795; 0.9999835063504029; 2.172582191694028E-4; 0.005417869576972545; 0.0018938097229641018; 0.04563647435178135; 0.015306552935246388; 0.07140086620891575; -0.12841796875; -0.5478515625; -0.632568359375;0
458;2161552462; 0.9999686375969664; 0.001703061645220827; 0.007163480392276545; 0.0029168394143304077; 0.04009205527163556; 0.0010459211223606477; 0.07843449279522265; -0.120361328125; -0.549560546875; -0.634521484375;0
459;2161569129; 0.9999492814559856; 0.004038781556817361; 0.008651282371992143; 0.0032059433111704676; 0.026240107567960386; 0.0030066029579052175; 0.08010567393330491; -0.112060546875; -0.55615234375; -0.630859375;0
460;2161585796; 0.9999372817025254; 0.004417131908241723; 0.010064584509573262; 0.002150754685960432; 0.019639474531218386; 0.020293823176776873; 0.07255629366808186; -0.099365234375; -0.558837890625; -0.630859375;0
461;2161602463; 0.9999322664595974; 0.0019682098011697957; 0.011470645839329052; 1.1369775597736E-4; 0.014087604864348263; 0.04085037601093826; 0.06365549774446548; -0.084716796875; -0.567626953125; -0.62646484375;0
462;2161619130; 0.9999091269393233; -0.002312265587330442; 0.013089568709851897; -0.0022482175792951087; 0.00936394387889456; 0.04527815038117266; 0.0671662866752207; -0.065185546875; -0.563232421875; -0.628662109375;0
463;2161635797; 0.9998809230786162; -0.004701018799021739; 0.014343240888717303; -0.003211156569492252; 9.83989543668899E-4; 0.03469486810535251; 0.06938651893334453; -0.038330078125; -0.55615234375; -0.633544921875;0
464;2161652464; 0.9998730333110399; -0.004826056662464995; 0.014989202868997633; -0.002439309702110065; -0.019103203690750442; 0.02548239487784752; 0.06757035931501745; -0.01318359375; -0.549072265625; -0.63720703125;0
465;2161669131; 0.9998784028720246; -0.0038843074172656977; 0.015090001802427477; -6.192508218116622E-4; -0.03231940966025708; 0.020444864272830026; 0.05874802750159867; 0.010498046875; -0.5439453125; -0.640625;0
466;2161685798; 0.9998875342938549; -0.0016959420405948111; 0.014780722946793392; 0.0018901781715228716; -0.03729932688820797; 0.013251336404335153; 0.04889276114612543; 0.0283203125; -0.54150390625; -0.64208984375;0
467;2161702465; 0.9998783412371619; 4.6186679736021086E-4; 0.015039530754952237; 0.0041111942977319635; -0.040716551433903805; 0.01914519370128358; 0.04247830997750176; 0.04931640625; -0.542236328125; -0.6416015625;0
468;2161719132; 0.9998418393102724; 8.339923357137402E-4; 0.016969558034464764; 0.005256892765736515; -0.04932301867997075; 0.029006635799623336; 0.03884297887854408; 0.0712890625; -0.542236328125; -0.634033203125;0
469;2161735799; 0.9998013778665051; -4.6609190883106777E-4; 0.019339544161648847; 0.004792661702015478; -0.06590188076105336; 0.03489395389726528; 0.030082584363468418; 0.089599609375; -0.547607421875; -0.635009765625;0
470;2161752466; 0.9997849000957726; -3.912413409410398E-4; 0.020178398657733302; 0.004778357281389478; -0.0853367940741247; 0.0168816706516103; 0.018391010262123645; 0.11328125; -0.544189453125; -0.628173828125;0
471;2161769133; 0.9997855337169608; 0.0011047219830171984; 0.020012029839000915; 0.005213906534930369; -0.10150514096315869; 0.02144709386636101; 0.007218052505533746; 0.138671875; -0.54638671875; -0.621826171875;0
472;2161785800; 0.9997581390430583; 0.0011661976143748642; 0.02134061495758977; 0.005184742377099094; -0.11600395396434528; 0.03637967362363218; 0.01016348776097319; 0.16650390625; -0.548583984375; -0.61279296875;0
473;2161802467; 0.9997061357719219; 0.0012110482903631148; 0.023644812947674565; 0.005205601087256929; -0.13420313017406948; 0.03629917965921; 0.008834313252900815; 0.192626953125; -0.55224609375; -0.606201171875;0
474;2161819134; 0.9996554027029889; 0.004264692247891; 0.024936540521902865; 0.007004084062563032; -0.15713019443098275; 0.03021395094338817; 0.011136811288450437; 0.218017578125; -0.5634765625; -0.58642578125;0
475;2161835801; 0.9995772929641058; 0.0077385658471706975; 0.02654015138382149; 0.008998352832763514; -0.17618507061739797; 0.03268725339577822; 0.02051749470195796; 0.243896484375; -0.574462890625; -0.565185546875;0
476;2161852468; 0.9994642332611999; 0.011083887196340902; 0.029002600512809344; 0.010355821537417154; -0.17809202686504624; 0.032133385014952054; 0.03846591659051754; 0.27294921875; -0.59326171875; -0.5390625;0
477;2161869135; 0.9993817732950392; 0.013516527547470736; 0.031005642419444812; 0.009592957149852145; -0.18409164900470507; 0.039147895080569345; 0.03689274913247177; 0.302001953125; -0.615966796875; -0.50537109375;0
478;2161885802; 0.9993954380812167; 0.014552725540345812; 0.03065189937064128; 0.007578758920322781; -0.20853643963408297; 0.046847566716197685; 0.02853022952510586; 0.329833984375; -0.637939453125; -0.471923828125;0
479;2161902469; 0.9994657985694897; 0.014242597950934854; 0.02901634670104997; 0.004828821552375851; -0.22769225917492844; 0.056558850750626694; 0.023793682853344725; 0.354736328125; -0.660888671875; -0.428466796875;0
480;2161919136; 0.9995333796392691; 0.01303063941382672; 0.027543767517300092; 0.0021368889349537845; -0.2340326856656855; 0.059408672904305945; 0.03156532364290311; 0.382568359375; -0.6787109375; -0.392578125;0
481;2161935803; 0.9995648457845865; 0.01255243930038348; 0.026689929734996454; -4.5054410103068104E-4; -0.21437423605013833; 0.058887611745289385; 0.024249484945574523; 0.40771484375; -0.687255859375; -0.353271484375;0
482;2161952470; 0.9995723380383885; 0.012759853554278083; 0.026178545179917526; -0.002647817593011692; -0.2328444691663869; 0.07076806494866825; 8.759009389559883E-4; 0.4326171875; -0.697265625; -0.316162109375;0
483;2161969137; 0.9995567186308345; 0.009591580182299803; 0.027654446759567578; -0.00544053342858647; -0.2428993849781427; 0.09994464308424594; -0.002213258029244672; 0.466064453125; -0.702392578125; -0.273193359375;0
484;2161985804; 0.9994861772836432; 0.004078926770431937; 0.030658442322649585; -0.008414492835574938; -0.2656389542145629; 0.10076961074105634; 0.00594635515478819; 0.49853515625; -0.701171875; -0.237060546875;0
485;2162002471; 0.9994153946530961; 0.0011210265290329535; 0.03284373010828276; -0.009428765692893916; -0.2753614303138128; 0.08723526032553941; 0.026137486075083656; 0.539306640625; -0.689697265625; -0.203369140625;0
486;2162019138; 0.9994864427690525; 0.0012200864790079258; 0.03081810327847573; -0.008695206735110483; -0.280333633948245; 0.0711633110095769; 0.028466582627014896; 0.56787109375; -0.67626953125; -0.16357421875;0
487;2162035805; 0.9995954679290333; 0.0022836792105747628; 0.027519023387715644; -0.006810921874930932; -0.2787660263052564; 0.0740019008711169; 0.02548295797453622; 0.594482421875; -0.6708984375; -0.125732421875;0
488;2162052472; 0.9997043164302162; 0.0022808904263489707; 0.02370858387160674; -0.004896968496935883; -0.28444679531225664; 0.08038197301288427; 0.009854797852196354; 0.6162109375; -0.66552734375; -0.091064453125;0
489;2162069139; 0.9997529832216138; 9.031907141429443E-4; 0.02190729155945781; -0.0036369441219817893; -0.28088902970216245; 0.08379927442598345; 0.00775347046146661; 0.62890625; -0.6591796875; -0.06396484375;0
490;2162085806; 0.9997463987068859; -7.126678435736E-4; 0.022330276508127304; -0.002826504595388468; -0.2687597094918964; 0.07906794878873336; 0.012325294361057441; 0.64453125; -0.652099609375; -0.032958984375;0
491;2162102473; 0.9997329230675766; -0.0021948253631768992; 0.022830811034979307; -0.0028318446054483863; -0.2584016630068865; 0.06977337557985694; 0.012338078597815987; 0.656494140625; -0.648681640625; -0.00732421875;0
492;2162119140; 0.9997556504273849; -0.001906827777901205; 0.021900447892375694; -0.0023181519483109203; -0.258806701515761; 0.059444666412937934; 0.006120284929985028; 0.663330078125; -0.644775390625; 0.0234375;0
493;2162135807; 0.9998079763439235; -0.0016871489059344866; 0.01946365505499431; -0.0015264663566151306; -0.2643626399879846; 0.06358151807258833; -0.00893147618405931; 0.669677734375; -0.639892578125; 0.04638671875;0
494;2162152474; 0.9998177293655076; -0.003729342735975547; 0.01869904555360558; -9.724939806037836E-4; -0.25404677822348976; 0.06691644011303893; -0.0015808466841208298; 0.676513671875; -0.637451171875; 0.0732421875;0
495;2162169141; 0.9997999927015753; -0.005246855404747439; 0.019277594929260514; -9.052270627905591E-4; -0.25450890970194684; 0.04641238922045712; 0.01800194308082; 0.681396484375; -0.635498046875; 0.093505859375;0
496;2162185808; 0.9998256540965661; -0.004663427152539725; 0.018038468870241468; -0.0012359200557082173; -0.23940783802894583; 0.032462997824787815; 0.023720671922115265; 0.68408203125; -0.62939453125; 0.1103515625;0
497;2162202475; 0.9998595697385398; -0.0026034420215085632; 0.01650387479251267; -0.0012980788634529008; -0.23125172979809244; 0.02496860083126249; 0.02352966606248813; 0.685791015625; -0.630615234375; 0.13525390625;0
498;2162219142; 0.999901273156776; 4.7588287974260207E-4; 0.01402020135578855; -8.071114461365991E-4; -0.2213316152851853; 0.022115393686751392; 0.013851655584415649; 0.6865234375; -0.6259765625; 0.15087890625;0
499;2162235809; 0.9999335759515005; 0.0031046946541071277; 0.011097950128355199; -2.0014719114458404E-4; -0.21637922628588144; 0.03355426619274853; -0.0025452198738821243; 0.689697265625; -0.6298828125; 0.17236328125;0
500;2162252476; 0.999947971926969; 0.004334765778528572; 0.009229912984081214; 2.68237009084904E-4; -0.2096350788176709; 0.04220567794592945; -0.01607728809610248; 0.6884765625; -0.63037109375; 0.190185546875;0
501;2162269143; 0.9999473419179917; 0.00492638067812403; 0.008983539983875452; 5.832443013871759E-4; -0.19740859538725924; 0.04968492132960926; -0.02979657741404869; 0.685791015625; -0.62646484375; 0.20947265625;0
502;2162285810; 0.9999378219598508; 0.005180964354910028; 0.00984359651377262; 7.832178603028317E-4; -0.1848122704706804; 0.05455817337808631; -0.03887406719389253; 0.681396484375; -0.626953125; 0.228271484375;0
503;2162302477; 0.9999362762752271; 0.0033567282616287775; 0.010776081042728052; 2.276874411545893E-4; -0.1868555761280653; 0.0763020049997051; -0.04575686076489412; 0.680419921875; -0.627685546875; 0.250732421875;0
504;2162319144; 0.999956517318871; -0.002189766839856; 0.008916100716336849; -0.001634484847784723; -0.19618961532391177; 0.07248720738968441; -0.029037546657474475; 0.678955078125; -0.62255859375; 0.264892578125;0
505;2162335811; 0.9999740721986793; -0.005523060864806237; 0.003812690172568328; -0.0026103874659184627; -0.20701683918263053; 0.06789205732062649; -0.018576046707184095; 0.68212890625; -0.619873046875; 0.26318359375;0
506;2162352478; 0.9999432058660649; -0.009251584816143812; -0.003364569502805157; -0.004083245369460087; -0.2466158100783012; 0.0667104302888006; 9.341355628633297E-4; 0.685546875; -0.6162109375; 0.25439453125;0
507;2162369145; 0.9999214943933898; -0.008778804063012097; -0.007604270090022223; -0.00470241700737828; -0.17942262234306725; 0.03409197917366331; -0.01673445101233522; 0.69384765625; -0.6162109375; 0.23046875;0
508;2162385812; 0.9999685035185217; -0.006629141133456737; -0.0017928259858005365; -0.003978973956379972; -0.1620643918128636; 0.02137655004182794; -0.03302145051726202; 0.701416015625; -0.610107421875; 0.216796875;0
509;2162402479; 0.9999812853991515; -0.0050383971806848005; 0.001547688725039395; -0.0031061334357412322; -0.15461365072180544; 0.02703518706273761; -0.046558191443282264; 0.70458984375; -0.60595703125; 0.211181640625;0
510;2162419146; 0.9999881414191326; -0.003505004206526413; 0.0025623978174125765; -0.00220592022662891; -0.1526867128030912; 0.023035290139735192; -0.048687055372996196; 0.708251953125; -0.6044921875; 0.211181640625;0
511;2162435813; 0.9999957173116574; -0.0012240822855026368; 0.002252634253492217; -0.0014116018638964947; -0.1451460933445688; 0.01952432398737081; -0.05351243953571593; 0.70654296875; -0.599365234375; 0.2158203125;0
512;2162452480; 0.9999973880599556; 1.056802069666074E-4; 0.0019955289985913176; -0.0011093101352324664; -0.13470098247370443; 0.024509627511312502; -0.07012963089110069; 0.708251953125; -0.59619140625; 0.2158203125;0
513;2162469147; 0.9999987322130011; 3.686932773926399E-4; 0.0013532476395147347; -7.538955390055669E-4; -0.1235992800675926; 0.031551241066061365; -0.08539349543450075; 0.708740234375; -0.59619140625; 0.218505859375;0
514;2162485814; 0.9999996593669048; -2.0966006941060267E-4; 6.814511573652872E-4; -4.158521969600537E-4; -0.11291230454650658; 0.03642456941988822; -0.09509467047635296; 0.710693359375; -0.599853515625; 0.219482421875;0
515;2162502481; 0.9999996081128918; -6.887737857958348E-4; 5.448783582301943E-4; 1.1167949510565435E-4; -0.10892990617654624; 0.03734096066773726; -0.09434918225566429; 0.70751953125; -0.595703125; 0.220458984375;0
516;2162519148; 0.9999991646089162; -0.001047484603348553; 1.6932505098143927E-4; 7.381642788404363E-4; -0.11822546393007155; 0.03763015276446442; -0.08407887611260889; 0.709228515625; -0.599365234375; 0.219970703125;0
517;2162535815; 0.9999981739331713; -5.985976626950301E-4; -9.643373370362557E-4; 0.001537486475289396; -0.13603681705528553; 0.03328256794328808; -0.06770279140593341; 0.70703125; -0.600341796875; 0.218505859375;0
518;2162552482; 0.9999945643729007; -9.646347848625558E-5; -0.0024696674781669458; 0.002182352399915155; -0.1475975455007436; 0.027646105840362655; -0.05396695882437963; 0.70556640625; -0.602294921875; 0.21435546875;0
519;2162569149; 0.9999873982641437; 0.002410005111430233; -0.002939559462942013; 0.0032793564056918805; -0.1573335406684757; 0.015819721924790867; -0.03843860023288733; 0.700927734375; -0.60498046875; 0.21533203125;0
520;2162585816; 0.999977002023997; 0.0048166388995399545; -0.0022431793434502527; 0.004214683765572214; -0.16358833301683168; 0.0204309592021942; -0.03023571876101199; 0.700927734375; -0.613037109375; 0.21630859375;0
521;2162602483; 0.9999646930647702; 0.0066847213731106025; -0.0016083035707905174; 0.004831198988662578; -0.1669107090550657; 0.024406261127085147; -0.025483183732924866; 0.694091796875; -0.61767578125; 0.219970703125;0
522;2162619150; 0.9999589440000999; 0.007615555969113633; -0.0010956764554151956; 0.004786764522254794; -0.1733823285059624; 0.03323196479708801; -0.02724372217818047; 0.68603515625; -0.622802734375; 0.227783203125;0
523;2162635817; 0.9999599031490126; 0.007986739485021765; -0.0016604963219401388; 0.0036941627712349105; -0.188612920312018; 0.0346997703221678; -0.030018463155233346; 0.68115234375; -0.62451171875; 0.235595703125;0
524;2162652484; 0.9999750087042522; 0.006097792859604281; -0.003047654709120801; 0.0018736835234772764; -0.2041827783856594; 0.04934717133790209; -0.029270472209319703; 0.68115234375; -0.629150390625; 0.236083984375;0
525;2162669151; 0.9999871301039565; 0.0013270231045420106; -0.004719523299519815; -0.0013056553749618562; -0.22170233265686762; 0.056608414635662734; -0.009799430548770596; 0.682861328125; -0.62548828125; 0.235107421875;0
526;2162685818; 0.9999783362198252; -0.0019540175468008847; -0.005135917503298366; -0.0036237077498554315; -0.24726556743012962; 0.04837829568538136; 0.017252018086700086; 0.68603515625; -0.622314453125; 0.228271484375;0
527;2162702485; 0.9999650313982016; -0.002571656301091893; -0.0061551195459686745; -0.00504351742710868; -0.27184663401694575; 0.04046176296039241; 0.038478471013428224; 0.694091796875; -0.621337890625; 0.214111328125;0
528;2162719152; 0.999953760886441; -0.0013362381729414702; -0.00800547056783578; -0.005157809379500278; -0.29510513711367464; 0.036086029826449706; 0.05446144379146503; 0.697998046875; -0.613525390625; 0.2021484375;0
529;2162735819; 0.9999265040996438; 9.406794460703957E-4; -0.011236964451245557; -0.004453330345513374; -0.3185378723528765; 0.03566589219338891; 0.05826167052900148; 0.7060546875; -0.604736328125; 0.185546875;0
530;2162752486; 0.9998605062084144; 0.002869407523352553; -0.016110942243665136; -0.0033424788913942183; -0.3381407109475606; 0.044255616851705655; 0.047238642603025995; 0.708984375; -0.596923828125; 0.1689453125;0
531;2162769153; 0.9997639861058198; 0.00260517232799988; -0.0213681752882787; -0.0029302299897288058; -0.3556951480163677; 0.06336257684461247; 0.03273454131637127; 0.71337890625; -0.59326171875; 0.140625;0
532;2162785820; 0.9996724198874286; 2.109014050498577E-4; -0.025427588200162294; -0.0029062338744565985; -0.38262629741119364; 0.06959243262320543; 0.023096235900424256; 0.717041015625; -0.591552734375; 0.105712890625;0
533;2162802487; 0.9995606176074242; -4.3136818396141E-4; -0.029580867284091955; -0.0018324684105298086; -0.39252474485270383; 0.055042495197288765; 0.013768458280225715; 0.71630859375; -0.5888671875; 0.060791015625;0
534;2162819154; 0.9994321302371261; 0.0017353970904978103; -0.03364902718210425; 3.8524838271208894E-4; -0.3994692557852672; 0.04333449420784386; 0.003028543511600784; 0.708740234375; -0.592041015625; 0.015380859375;0
535;2162835821; 0.9992913534510128; 0.00414798885642567; -0.03732843530776301; 0.002484557096154139; -0.4080255258201933; 0.04268380858446326; -0.0112161324506743; 0.69775390625; -0.594970703125; -0.033203125;0
536;2162852488; 0.9991154950562866; 0.00631958581328565; -0.04139399713361761; 0.0038506330494992858; -0.4061553523154547; 0.04572849589864261; -0.026819420660756123; 0.676025390625; -0.602294921875; -0.08203125;0
537;2162869155; 0.9989379142499297; 0.007388880248767993; -0.04520594578863191; 0.004987021959498406; -0.3807793659173949; 0.05149910903207255; -0.05336803722080487; 0.64990234375; -0.6142578125; -0.1328125;0
538;2162885822; 0.9988982875569934; 0.006665093996364738; -0.04604654038176032; 0.006124031074111302; -0.35781021136165303; 0.062295186637589844; -0.06928956353643458; 0.611328125; -0.628173828125; -0.18212890625;0
539;2162902489; 0.998954559947221; 0.004513341824084208; -0.04497343578260094; 0.006841562697322502; -0.34937027914012; 0.06681638597735842; -0.07797395142226697; 0.5751953125; -0.637451171875; -0.2333984375;0
540;2162919156; 0.9990309627794813; 0.0027374270972065767; -0.043292213376577356; 0.007444874864434736; -0.3386478731800416; 0.07226419604026671; -0.08647670009673115; 0.533203125; -0.649169921875; -0.279052734375;0
541;2162935823; 0.9990646925095736; 3.6148251103290674E-4; -0.042612814958068235; 0.007331951479298216; -0.31873452680537695; 0.07756869309919853; -0.09284773049042373; 0.48779296875; -0.657958984375; -0.321044921875;0
542;2162952490; 0.999082734872798; -0.0021581413250825188; -0.04220209921036295; 0.0069292227089504665; -0.29309259685888234; 0.06857483278599705; -0.09352512952070877; 0.440185546875; -0.665771484375; -0.363037109375;0
543;2162969157; 0.9990870018243654; -0.003629127705483376; -0.04201446876815202; 0.006839344400447423; -0.26327507142093404; 0.059789128009236886; -0.09799620121479312; 0.386474609375; -0.669921875; -0.401611328125;0
544;2162985824; 0.9991175891627719; -0.005169033316839627; -0.04117058981669198; 0.006504356562008706; -0.23716959402186227; 0.05003708788947045; -0.0968608221119343; 0.330322265625; -0.6689453125; -0.436279296875;0
545;2163002491; 0.9991752753098125; -0.00566771823106868; -0.03973596973580701; 0.006139942081854811; -0.207056157110187; 0.03622927396013591; -0.09418013411920079; 0.27783203125; -0.66748046875; -0.467529296875;0
546;2163019158; 0.9992729140917863; -0.005079083802952189; -0.03739637017008674; 0.005418262482907554; -0.1665932318623578; 0.02424637651371976; -0.08531475607507052; 0.224853515625; -0.663330078125; -0.496337890625;0
547;2163035825; 0.9994005627198947; -0.004638686380737278; -0.034057437573791156; 0.004133856519782598; -0.1371812084720582; 0.02112158903472505; -0.07470512776414771; 0.178466796875; -0.659423828125; -0.51904296875;0
548;2163052492; 0.9995101038805809; -0.003955066598414436; -0.030950089014117114; 0.002449832412789177; -0.12242751241335315; 0.02299085007450858; -0.06386057971716326; 0.134765625; -0.65771484375; -0.539306640625;0
549;2163069159; 0.9995789831286266; -0.00417827794535075; -0.028697058578183998; 9.366482331093496E-4; -0.09525717905917414; 0.02863400122641883; -0.051698727752691576; 0.091796875; -0.65283203125; -0.545654296875;0
550;2163085826; 0.9996299649259747; -0.00472608528333146; -0.026787646977566252; 1.3895824782877986E-4; -0.07448506430124524; 0.027263598249907366; -0.04134769055702822; 0.05615234375; -0.643310546875; -0.556884765625;0
