DeviceTag:;Xsens DOT 1;;;;;;;;;;;
FirmwareVersion:;1.3.0;;;;;;;;;;;
AppVersion:;2020.1.1;;;;;;;;;;;
Measurement Mode:;Inertial Mode - High Fidelity (with mag);;;;;;;;;;;
StartTime:;2020-07-29 17:11:18.837 +0200;;;;;;;;;;;
© Xsens Technologies B. V. 2005-2020;;;;;;;;;;;;
PacketCounter;SampleTimeFine;dQ_W;dQ_X;dQ_Y;dQ_Z;dV[1];dV[2];dV[3];Mag_X;Mag_Y;Mag_Z;Status
2;2145783147; 0.9999986640372596; 1.262161692553443E-4; 9.59825777418752E-4; 0.0013170906011517047; -0.16270745978712817; -0.0218244481091325; -4.721034138620503E-4; 1.85107421875; -1.68896484375; 0.840576171875;0
3;2145799814; 0.9999988190763801; 1.3825619159754665E-4; 8.701335317942983E-4; 0.0012592055858389741; -0.1632646534463045; -0.020240679558324995; -8.609997775467001E-4; 1.84814453125; -1.689697265625; 0.84375;0
4;2145816481; 0.9999989859166115; 8.628766501289631E-6; 7.959402889210627E-4; 0.0011809192815170344; -0.1633731677609587; -0.018347940552319534; -2.9070801235425367E-4; 1.848388671875; -1.69091796875; 0.845703125;0
5;2145833148; 0.9999991445158415; -1.9126317960801997E-4; 7.21354818829914E-4; 0.0010742593758072407; -0.1637561393810641; -0.01746907038952734; 4.1166146697215605E-5; 1.849365234375; -1.692626953125; 0.8486328125;0
6;2145849815; 0.9999993619073501; -2.2490027159291492E-4; 5.189657815614369E-4; 9.77895330815104E-4; -0.1647944628601811; -0.018543359824041133; 4.94832979390819E-4; 1.84375; -1.69482421875; 0.847412109375;0
7;2145866482; 0.9999995480198379; -1.0143696389448842E-4; 3.163607231983501E-4; 8.908347518349348E-4; -0.16459026633201343; -0.019086530736939673; 3.5094739400982726E-4; 1.843505859375; -1.6962890625; 0.84765625;0
8;2145883149; 0.9999996436737816; -4.0969081093356063E-5; 1.565338966033614E-4; 8.285354449580895E-4; -0.1646038163196503; -0.01685066076290442; -5.215721942968838E-4; 1.843505859375; -1.69775390625; 0.84814453125;0
9;2145899816; 0.9999996975071619; -2.9034526065119248E-5; 6.325225934217249E-6; 7.772403569590304E-4; -0.16441895711818275; -0.016185877606765396; -9.265681442516289E-4; 1.84423828125; -1.6982421875; 0.847900390625;0
10;2145916483; 0.9999997251717253; -1.5797105626071117E-4; -9.143699725759626E-5; 7.185686431004923E-4; -0.164312273848085; -0.01466983011277603; -7.764681169483076E-4; 1.841552734375; -1.697509765625; 0.8505859375;0
11;2145933150; 0.999999727552322; -2.776150726376686E-4; -1.639151107030168E-4; 6.640459243693054E-4; -0.16400975799234724; -0.01386392658515063; -0.0013363059906275516; 1.838623046875; -1.69775390625; 0.849853515625;0
12;2145949817; 0.9999996619792995; -4.95371892358959E-4; -1.621273929462708E-4; 6.358951829256165E-4; -0.16391369006701673; -0.012922335431966595; -0.0015954028366722082; 1.839111328125; -1.69873046875; 0.8486328125;0
13;2145966484; 0.9999995164313324; -7.464887049416502E-4; -1.5114766919473166E-4; 6.221302892958082E-4; -0.16360394532238937; -0.012274511663675753; -0.0024441345496007995; 1.838134765625; -1.700439453125; 0.8486328125;0
14;2145983151; 0.9999993490359418; -9.660693294027967E-4; -1.4207773136416804E-4; 5.902979432185207E-4; -0.163414452314468; -0.011869852070799958; -0.0026320588479345625; 1.840087890625; -1.698974609375; 0.845458984375;0
15;2145999818; 0.9999992422384832; -0.0010851055753940686; -1.542511440307676E-4; 5.606022960246705E-4; -0.1629141740965442; -0.011746752911981913; -0.002534979614747605; 1.839111328125; -1.701904296875; 0.84521484375;0
16;2146016485; 0.999999116622308; -0.001193066472178525; -9.67653424462367E-5; 5.779130257330678E-4; -0.1623027450394196; -0.011543361785235151; -0.002681162227689094; 1.839111328125; -1.7021484375; 0.84375;0
17;2146033152; 0.9999989399183301; -0.0013560678818215072; -9.137239545380094E-5; 5.223918084208413E-4; -0.16223191920622954; -0.010888610663206812; -0.002973912785644576; 1.839599609375; -1.70458984375; 0.842041015625;0
18;2146049819; 0.9999986298007407; -0.0015866425278100865; -1.3495602740519477E-4; 4.5249198990215955E-4; -0.16239171467817753; -0.011038906535160362; -0.002965560724977178; 1.837890625; -1.704345703125; 0.84228515625;0
19;2146066486; 0.9999983075122219; -0.0017876986417085794; -1.7768636268054863E-4; 3.969052969947651E-4; -0.16328053656920818; -0.012165564025733233; -0.003198337061316836; 1.84033203125; -1.705322265625; 0.83837890625;0
20;2146083153; 0.999998165718128; -0.001870034633458112; -1.839177807611975E-4; 3.710863766850925E-4; -0.1646057250467741; -0.013227425416497351; -0.0029176636246367894; 1.838623046875; -1.70361328125; 0.837646484375;0
21;2146099820; 0.9999982901257256; -0.0017952393411036494; -1.7923024971029655E-4; 4.058791085820857E-4; -0.16396987603868451; -0.014540869964762108; -0.0019115706512313237; 1.840087890625; -1.703369140625; 0.836669921875;0
22;2146116487; 0.9999984484593919; -0.0017156690949151482; -7.435107541116372E-5; 3.924669198917541E-4; -0.1640912478398192; -0.014563020800837705; -0.00136718154814198; 1.840087890625; -1.705078125; 0.8349609375;0
23;2146133154; 0.9999985947966865; -0.0016367939730814324; -8.173425515421719E-5; 3.5302925315966466E-4; -0.1645307386328197; -0.014721367380095197; -0.002025834877039315; 1.843994140625; -1.703857421875; 0.83251953125;0
24;2146149821; 0.9999988084061558; -0.0014907164670783235; -1.5626867991841434E-4; 3.695007210188783E-4; -0.1641085304009689; -0.015736895979953265; -0.0020563556942340827; 1.843017578125; -1.705322265625; 0.83154296875;0
25;2146166488; 0.9999990386307085; -0.0013220530811854647; -2.0535351041263417E-4; 3.643394643461085E-4; -0.16379300248128909; -0.01602130983559334; -0.0019766935551402895; 1.842041015625; -1.706298828125; 0.829345703125;0
26;2146183155; 0.9999992256323436; -0.0011510881643087; -2.5323279315696284E-4; 3.9950457272597273E-4; -0.16417169869931814; -0.015472626459595776; -0.0017936109451337345; 1.84228515625; -1.70703125; 0.830810546875;0
27;2146199822; 0.999999293158357; -0.0010769260133633857; -2.5665150461318126E-4; 4.336394277341116E-4; -0.16444701774936796; -0.013945423358508395; -0.002054639429087294; 1.83935546875; -1.7060546875; 0.829833984375;0
28;2146216489; 0.9999991961014705; -0.0011658036273703848; -2.5652145538217214E-4; 4.276623177871808E-4; -0.16476839975797303; -0.013320000336997906; -0.002312683274505742; 1.84130859375; -1.70556640625; 0.823974609375;0
29;2146233156; 0.9999990999088698; -0.0012654084790143516; -2.4241557678003622E-4; 3.743761738325136E-4; -0.16482180092767124; -0.013980664270793626; -0.0021995222053002098; 1.839599609375; -1.707275390625; 0.823486328125;0
30;2146249823; 0.9999991674771501; -0.0012241568304359463; -2.3269299775902089E-4; 3.3517015059875144E-4; -0.1650891766802939; -0.014719694812987162; -0.002361888644306089; 1.84033203125; -1.70703125; 0.826904296875;0
31;2146266490; 0.9999993760085998; -0.0010421032677814107; -2.3709773288563277E-4; 3.252504502807008E-4; -0.16502055367396348; -0.014899317418267362; -0.00186767180903279; 1.842041015625; -1.7041015625; 0.822998046875;0
32;2146283157; 0.9999995979879879; -8.043285982040904E-4; -2.772283804230655E-4; 2.8323805178731565E-4; -0.16337923273597074; -0.01519409685316541; -0.0016003790845356275; 1.842041015625; -1.706298828125; 0.819580078125;0
33;2146299824; 0.9999998033511511; -5.713700154570261E-4; -2.0417953966214708E-4; 1.5857074163161403E-4; -0.16212554962976697; -0.015399886098668216; -8.275250076196748E-4; 1.83935546875; -1.7080078125; 0.820068359375;0
34;2146316491; 0.9999998743955244; -4.375518234864262E-4; -2.4035658651379302E-4; 4.456510615857834E-5; -0.16180468690014677; -0.014082624023665431; -4.4276175726530066E-4; 1.840087890625; -1.70556640625; 0.81787109375;0
35;2146333158; 0.9999998439243971; -4.727097273691666E-4; -2.941337382238799E-4; -4.671230393693549E-5; -0.16047983037785823; -0.01344588352027366; -4.6924517733214384E-4; 1.84423828125; -1.708984375; 0.82080078125;0
36;2146349825; 0.999999798224725; -5.826504764877699E-4; -2.283176718763519E-4; -1.092701806454377E-4; -0.15973019323474566; -0.013370626937281842; -8.038237674253875E-4; 1.84423828125; -1.70849609375; 0.81884765625;0
37;2146366492; 0.999999718950874; -7.26187097989564E-4; -1.5548808122197583E-4; -1.0282960739055326E-4; -0.15997419097859691; -0.013898915334884928; -9.386181144202324E-4; 1.8447265625; -1.706787109375; 0.815185546875;0
38;2146383159; 0.9999997595916829; -6.75212348446419E-4; -1.524492936971281E-4; -4.0793060519961344E-5; -0.16056602140915266; -0.015366144594634479; -0.0015506634224290595; 1.84765625; -1.706787109375; 0.817626953125;0
39;2146399826; 0.9999998933580263; -4.4649405111249485E-4; -1.0825170288980558E-4; 4.6995395042437334E-5; -0.16049956077129765; -0.01640019929422277; -0.002129068113125727; 1.841796875; -1.7060546875; 0.814453125;0
40;2146416493; 0.9999999807198537; -1.109439695254344E-4; -9.974457257130866E-5; 1.2768221463232976E-4; -0.16089469008632487; -0.016720481664734835; -0.002089182455353035; 1.841064453125; -1.705810546875; 0.81298828125;0
41;2146433160; 0.9999999531449586; 2.2230777857956685E-4; -4.8513238293808325E-5; 2.0478231795051374E-4; -0.1607836849740585; -0.015654160883949147; -0.0016916918798886415; 1.84130859375; -1.70556640625; 0.817626953125;0
42;2146449827; 0.9999998876273554; 3.8791405376531474E-4; 3.093677918003524E-5; 2.7075981816765404E-4; -0.16151072705569414; -0.014672903479633978; -0.0012980087779254513; 1.84375; -1.705322265625; 0.81591796875;0
43;2146466494; 0.9999999106514718; 3.5689387376167114E-4; 8.088478217262164E-5; 2.1161631146754403E-4; -0.1619283148885562; -0.014461538245407045; -7.767548881666038E-4; 1.842041015625; -1.705810546875; 0.819580078125;0
44;2146483161; 0.9999999399982802; 2.687306722874705E-4; 1.8469315228095143E-4; 1.1694315421933998E-4; -0.16272339644776937; -0.01446701196432079; -0.00106019479282847; 1.839599609375; -1.706787109375; 0.817626953125;0
45;2146499828; 0.9999999135305899; 3.5637849370363794E-4; 1.88321899462017E-4; 1.023134601284559E-4; -0.16410909542684618; -0.015583724725378617; -0.001038039852809319; 1.84130859375; -1.7080078125; 0.81640625;0
46;2146516495; 0.9999997607658402; 6.599030636206954E-4; 1.766078412122757E-4; 1.0865486319383555E-4; -0.16364721289189546; -0.01651694986856044; -0.0010060612753843134; 1.841552734375; -1.708984375; 0.815673828125;0
47;2146533162; 0.9999994788095475; 0.0010029567196496864; 1.657113406628927E-4; 9.485885984378274E-5; -0.1634138041580388; -0.015564907367908205; -6.956902394865596E-4; 1.843017578125; -1.708251953125; 0.818603515625;0
48;2146549829; 0.9999991823397966; 0.0012729455110596782; 7.537027466850145E-5; 9.617060845262815E-5; -0.16368229516827862; -0.012852453184648253; -5.688872429324525E-4; 1.84033203125; -1.708984375; 0.821044921875;0
49;2146566496; 0.9999991453435354; 0.0013055220109393778; -2.4373721867892995E-6; 7.013228161945052E-5; -0.16305181909103839; -0.009487954587004084; -7.244201081719366E-4; 1.83984375; -1.709228515625; 0.82275390625;0
50;2146583163; 0.999999508045989; 9.91600172948151E-4; -2.091323753201924E-5; -1.4124914407664946E-5; -0.1627838209052102; -0.006727266932112586; -9.971844024782624E-4; 1.837158203125; -1.7060546875; 0.8232421875;0
51;2146599830; 0.9999998724512078; 4.937452776382217E-4; -3.399725248162678E-5; -1.0078370727195642E-4; -0.16266651414027308; -0.006111148350345426; -0.0011580780635979306; 1.83837890625; -1.707763671875; 0.825439453125;0
52;2146616497; 0.9999999849066954; 3.019777299795301E-5; -6.709826161355182E-7; -1.7109720350205748E-4; -0.16242814207816325; -0.00644310049995995; -0.0015428938355661875; 1.838134765625; -1.70751953125; 0.822021484375;0
53;2146633164; 0.9999999205918262; -3.484824280905602E-4; 1.3698432586264908E-5; -1.9284369684596794E-4; -0.16246097940642876; -0.006923560042233334; -0.0021552499754946865; 1.838134765625; -1.71044921875; 0.824462890625;0
54;2146649831; 0.9999997564757093; -6.745641134949104E-4; -7.15830887719482E-6; -1.7877510313207834E-4; -0.16267988828856844; -0.0075296872600821504; -0.002690567181776375; 1.841796875; -1.707763671875; 0.822265625;0
55;2146666498; 0.9999996117129516; -8.671906663713091E-4; 8.0011286341386E-6; -1.5649369352560563E-4; -0.16241818266698765; -0.00965357347082114; -0.0025187000090911953; 1.84326171875; -1.7060546875; 0.821533203125;0
56;2146683165; 0.9999995870336585; -9.020769791831806E-4; 5.419816908851933E-5; -9.618832783003795E-5; -0.16244986744662934; -0.011824417140469175; -0.0024224754892249074; 1.840576171875; -1.704833984375; 0.82177734375;0
57;2146699832; 0.9999996539862734; -8.29113322734068E-4; 6.605309424242978E-5; -1.534341236453241E-5; -0.16269142638994363; -0.013732670899895733; -0.002767836710642863; 1.840576171875; -1.70654296875; 0.820556640625;0
58;2146716499; 0.9999997396039986; -7.169635461002494E-4; 7.778551389392431E-5; 2.6544723063348652E-5; -0.1621432543714423; -0.014727288520681106; -0.0025621267373373557; 1.84375; -1.7060546875; 0.8193359375;0
59;2146733166; 0.9999998084062983; -6.104534777292558E-4; 1.0051260220591414E-4; 2.0763789792432877E-5; -0.1621840107012539; -0.014539463680482747; -0.002845683177354133; 1.842529296875; -1.706298828125; 0.81982421875;0
60;2146749833; 0.9999998647864042; -5.096453719184019E-4; 1.029454403134178E-4; 9.539625496823856E-6; -0.1622967554248004; -0.014262176852316082; -0.0028310429983569845; 1.84375; -1.70654296875; 0.820068359375;0
61;2146766500; 0.9999998804032821; -4.7021936189746427E-4; 1.278808543588167E-4; -4.163724455102936E-5; -0.16290161411228032; -0.013629682633871678; -0.002887489677659172; 1.840576171875; -1.705810546875; 0.8203125;0
62;2146783167; 0.9999998388299576; -5.487793672951796E-4; 1.0538655843220225E-4; -1.0037399256052071E-4; -0.16366957434792406; -0.012906237947512358; -0.0025742021187427667; 1.8447265625; -1.7041015625; 0.818115234375;0
63;2146799834; 0.9999997567879706; -6.720928169103996E-4; 7.017464097461985E-5; -1.7260001458707655E-4; -0.16351675057466522; -0.012781077710072876; -0.002181069119433811; 1.840087890625; -1.70361328125; 0.819091796875;0
64;2146816501; 0.9999996878435864; -7.543397432016458E-4; 7.441398136862067E-5; -2.2303999837158806E-4; -0.1640261097649485; -0.01281913037221381; -0.0022354592665624253; 1.842529296875; -1.704345703125; 0.8193359375;0
65;2146833168; 0.9999995990929177; -8.460797961128558E-4; 1.54185718864025E-6; -2.9319039069686253E-4; -0.163964276691681; -0.012583356106724643; -0.0027056089499395367; 1.842041015625; -1.706298828125; 0.819580078125;0
66;2146849835; 0.9999994019694257; -0.0010220064424857067; -6.703637807567443E-6; -3.892540093307084E-4; -0.16280983489325915; -0.01259730232137073; -0.0029188984208835117; 1.84375; -1.702880859375; 0.81689453125;0
67;2146866502; 0.9999992599617936; -0.0011403411517285078; 2.9860791444569216E-5; -4.2285488762910944E-4; -0.16314928040855456; -0.013351175044928968; -0.0032445036570068284; 1.844970703125; -1.70166015625; 0.81689453125;0
68;2146883169; 0.9999994731128323; -9.79642252455254E-4; 2.272986795553295E-5; -3.0587328768122424E-4; -0.163140579891358; -0.015677242284938213; -0.0024232293509793886; 1.842529296875; -1.70068359375; 0.81103515625;0
69;2146899836; 0.9999998086562714; -6.035253937531904E-4; 9.475859364207334E-5; -9.72899209905065E-5; -0.16225828749349153; -0.01753185979839502; -0.0018182562181211226; 1.846435546875; -1.7001953125; 0.81396484375;0
70;2146916503; 0.9999999341605902; -3.4794592038053795E-4; 8.609510667670352E-5; 5.656928880781731E-5; -0.16205693539835592; -0.0170269758629883; -0.0024507284253654452; 1.84619140625; -1.701171875; 0.81298828125;0
71;2146933170; 0.9999999691212622; -1.7442897879399455E-4; 2.7751365883385563E-5; 1.7481952837705708E-4; -0.16187562152475593; -0.015503508504095025; -0.0030915541519641234; 1.845703125; -1.69677734375; 0.8134765625;0
72;2146949837; 0.9999999653466629; -8.699408007528664E-5; -1.8269205887509746E-5; 2.4780019978931644E-4; -0.16185506222720425; -0.015082367561035629; -0.0035268032924566425; 1.843017578125; -1.699951171875; 0.8154296875;0
73;2146966504; 0.999999963930071; -1.5572688459028483E-4; -8.629860559648816E-5; 2.0110083255503455E-4; -0.16153534965507135; -0.01464403894207134; -0.004005064089621669; 1.842041015625; -1.7001953125; 0.814208984375;0
74;2146983171; 0.9999999560748013; -2.4300722797718222E-4; 3.1979100821658006E-6; 1.696692549222334E-4; -0.16142492044449414; -0.014031376438175975; -0.0038552489813890867; 1.844482421875; -1.701416015625; 0.812744140625;0
75;2146999838; 0.9999999134102145; -3.413963870383119E-4; 1.7243530385663983E-4; 1.639943183536219E-4; -0.16231555453612248; -0.014449022806718285; -0.003338048242842409; 1.843994140625; -1.701171875; 0.8125;0
76;2147016505; 0.9999998928592774; -3.657629741762036E-4; 2.1517644693757473E-4; 1.8492695086058664E-4; -0.16380614688475417; -0.015223498105151521; -0.0038497519127309223; 1.849853515625; -1.7021484375; 0.815185546875;0
77;2147033172; 0.9999999219091356; -2.7735584234753197E-4; 1.629255066481622E-4; 2.2958819372248532E-4; -0.16359851776074755; -0.016162219505187665; -0.004234724770976134; 1.84326171875; -1.69970703125; 0.81201171875;0
78;2147049839; 0.9999999489525354; -8.215641403672147E-5; 1.0912021268028733E-4; 2.8885641632186987E-4; -0.1630860229323802; -0.016744177594534095; -0.0038452192714643427; 1.8447265625; -1.70458984375; 0.81640625;0
79;2147066506; 0.9999999228776388; 1.6430355679894482E-4; 8.610081007656008E-5; 3.4617294527117265E-4; -0.16252377493465123; -0.017053316018468878; -0.0034456964794117115; 1.845703125; -1.70361328125; 0.815185546875;0
80;2147083173; 0.9999998567486411; 3.8161957207102915E-4; 9.214572928949867E-5; 3.638383763490127E-4; -0.16144486725490886; -0.015901213618884774; -0.0029451436298170153; 1.843017578125; -1.704345703125; 0.81591796875;0
81;2147099840; 0.99999984235482; 3.9854161113489495E-4; 1.4195421377603823E-4; 3.6919360862619493E-4; -0.16270025423605583; -0.01432589567493151; -0.003334636702484956; 1.845458984375; -1.703125; 0.816162109375;0
82;2147116507; 0.9999998987868706; 2.666545694815503E-4; 1.026784606867129E-4; 3.4753233367429415E-4; -0.16335612792267692; -0.013794549197911798; -0.004184242709421457; 1.840576171875; -1.701416015625; 0.813720703125;0
83;2147133174; 0.9999999269699144; 1.6708757219605075E-4; 5.197761711367433E-5; 3.397649722138852E-4; -0.1630387947243665; -0.01454675833149676; -0.0042559837055124745; 1.843994140625; -1.706787109375; 0.8173828125;0
84;2147149841; 0.999999903447427; 2.6492853205570266E-4; 7.106298437770804E-5; 3.4331918376273585E-4; -0.16306280477647248; -0.015898164587966716; -0.0039963249499921725; 1.841796875; -1.704833984375; 0.818115234375;0
85;2147166508; 0.9999997516485534; 5.68306857368861E-4; 8.756811794256164E-5; 4.0750702098801833E-4; -0.16332171900483333; -0.016550776362214466; -0.003101997669588307; 1.844482421875; -1.70556640625; 0.817626953125;0
86;2147183175; 0.9999994664510982; 9.372535752143474E-4; 7.712144208035095E-5; 4.2744068364075627E-4; -0.1634923865844778; -0.016430721621338622; -0.002836065994092493; 1.841064453125; -1.70556640625; 0.818115234375;0
87;2147199842; 0.9999992398094155; 0.001162310518294296; 7.74338275992756E-5; 4.042509771837178E-4; -0.1616077435162888; -0.01512142546080748; -0.002732262498115737; 1.842529296875; -1.7060546875; 0.821533203125;0
88;2147216509; 0.9999992013961697; 0.0012044983653207997; 9.45398273039383E-5; 3.7074645231743864E-4; -0.16074511216001455; -0.013727245903606227; -0.002791415198838151; 1.840087890625; -1.709228515625; 0.824462890625;0
89;2147233176; 0.9999992865455414; 0.0011249509031605598; 1.1282641014005723E-4; 3.8556980531762047E-4; -0.1602528573444528; -0.012673681142525395; -0.003192409220220004; 1.8369140625; -1.708251953125; 0.822509765625;0
90;2147249843; 0.9999993612951507; 0.0010532941464870688; 1.329915873008042E-4; 3.8767766169134354E-4; -0.16071194308151268; -0.01262755848432892; -0.0036826552364165495; 1.839599609375; -1.708251953125; 0.82373046875;0
91;2147266510; 0.9999993449055841; 0.0010551596094979243; 1.5926424594245317E-4; 4.1407909992735586E-4; -0.16148805501147168; -0.012862594081141683; -0.0039217476611740215; 1.835205078125; -1.708740234375; 0.826171875;0
92;2147283177; 0.9999992284840284; 0.0011402271783563372; 2.0799530600022767E-4; 4.468235473282234E-4; -0.16239389784539993; -0.01229423141795786; -0.0041101821318126255; 1.835693359375; -1.711669921875; 0.82666015625;0
93;2147299844; 0.9999990538660419; 0.0012603451308418473; 2.6474099085901925E-4; 4.83434980055042E-4; -0.1634448078151113; -0.011787976021405622; -0.003790180554396871; 1.83642578125; -1.71337890625; 0.8271484375;0
94;2147316511; 0.9999988852409364; 0.0013838273981821442; 2.6615440204717794E-4; 4.936602586211314E-4; -0.16446721532808609; -0.010862369018316876; -0.0031193330527381994; 1.83935546875; -1.71240234375; 0.830810546875;0
95;2147333178; 0.9999988678788181; 0.001386809474359152; 2.303044815589739E-4; 5.366194274604165E-4; -0.1646769757209749; -0.009253080517250939; -0.0026456837977898266; 1.839599609375; -1.715087890625; 0.828857421875;0
96;2147349845; 0.9999990690868483; 0.001230568527143025; 2.817566281247131E-4; 5.178221116978188E-4; -0.16408498220082196; -0.008117819635763466; -0.0022113109496218336; 1.83447265625; -1.71630859375; 0.831787109375;0
97;2147366512; 0.9999993781759787; 9.487042144863261E-4; 3.450398535038285E-4; 4.7387284026939597E-4; -0.1638578125376069; -0.007749705942400403; -0.0017947320594534546; 1.832275390625; -1.714599609375; 0.832763671875;0
98;2147383179; 0.9999996046144394; 7.076960680144906E-4; 3.233741549649311E-4; 4.305419794188303E-4; -0.1640849892134787; -0.008161683927556526; -0.0019706932096743048; 1.830322265625; -1.716064453125; 0.837158203125;0
99;2147399846; 0.9999997596269258; 5.568397780577605E-4; 1.6311982322293753E-4; 3.7956221563983933E-4; -0.16461271054768262; -0.008603212244498535; -0.0025716176086091527; 1.832275390625; -1.71484375; 0.836181640625;0
100;2147416513; 0.9999997962381441; 5.12722789599282E-4; -2.1706421952774616E-5; 3.7969440690277523E-4; -0.16409835740107645; -0.008775507354482277; -0.00286397062054807; 1.83056640625; -1.717041015625; 0.83642578125;0
101;2147433180; 0.9999998212718303; 4.386957378258727E-4; -6.148242902988266E-5; 4.015249281809075E-4; -0.16373297880888246; -0.008855095487912915; -0.0028829111415008424; 1.830810546875; -1.71875; 0.837890625;0
102;2147449847; 0.9999998602700085; 3.5242028567648853E-4; -2.1623079398638837E-5; 3.934365871869905E-4; -0.1638492734204875; -0.009247620441635112; -0.0028576294010138562; 1.830078125; -1.719970703125; 0.838134765625;0
103;2147466514; 0.9999998992983331; 2.9742887344944013E-4; -9.844526763475027E-6; 3.359203390389532E-4; -0.1635041429593482; -0.010036026417209389; -0.0033354289229697957; 1.8291015625; -1.718505859375; 0.8369140625;0
104;2147483181; 0.9999999291961642; 2.531670725900437E-4; -5.649945394162193E-5; 2.7262045364495613E-4; -0.16397139076084774; -0.010284376329975966; -0.004258720437814646; 1.830322265625; -1.7236328125; 0.84033203125;0
105;2147499848; 0.9999999373513018; 2.4595252377390686E-4; -1.6139202828442667E-4; 1.9686889484310524E-4; -0.16282175041442123; -0.010852638954715346; -0.004092798653768319; 1.82861328125; -1.719970703125; 0.8408203125;0
106;2147516515; 0.9999999567571082; 2.6315418501132726E-4; -1.0329661681496295E-4; 8.102756044486847E-5; -0.1622735558526116; -0.010402404028270393; -0.0032960210842025214; 1.8310546875; -1.720458984375; 0.83740234375;0
107;2147533182; 0.999999957226012; 2.9123505772017666E-4; 1.252051620136141E-5; -2.3944768840988843E-5; -0.1628243373353388; -0.009666166107068571; -0.002922041454218361; 1.83154296875; -1.72021484375; 0.839599609375;0
108;2147549849; 0.9999999270268087; 3.49309360211672E-4; 3.0105353511833414E-5; -1.5173337043716817E-4; -0.16253554338355497; -0.01004278054768526; -0.002458098571978722; 1.82861328125; -1.7236328125; 0.84326171875;0
109;2147566516; 0.9999998582279879; 4.1138760400107055E-4; 2.994277710637039E-5; -3.367605581854894E-4; -0.1615812184110605; -0.010375330337178575; -0.001323147538334608; 1.830322265625; -1.72119140625; 0.84130859375;0
110;2147583183; 0.9999997665822785; 4.814240703017725E-4; -3.124606706066125E-5; -4.8382841616056993E-4; -0.16050267124363898; -0.009773656438494252; -0.0010596762033202988; 1.828857421875; -1.72216796875; 0.842529296875;0
111;2147599850; 0.9999997365403047; 3.999381448576145E-4; -4.339357943672351E-5; -6.042233019561417E-4; -0.15938937889198557; -0.008081923447315174; -0.0016700952414762191; 1.83154296875; -1.720458984375; 0.84326171875;0
112;2147616517; 0.999999691911383; 1.4393200765680514E-4; 2.7919691294855945E-5; -7.711557606077113E-4; -0.16043209761623495; -0.00793152502142602; -0.002421363279735904; 1.830078125; -1.718017578125; 0.837646484375;0
113;2147633184; 0.9999996341117103; 1.7738905445596753E-5; 4.229456586653246E-5; -8.542089594635872E-4; -0.16213862744070365; -0.009252867983521509; -0.0019080189417332617; 1.83056640625; -1.717529296875; 0.84228515625;0
114;2147649851; 0.9999996995543504; 1.5715869733315402E-4; 1.2858698479795153E-4; -7.481027604184232E-4; -0.16240275101001728; -0.011108186528061934; -0.001425765562297534; 1.8310546875; -1.715087890625; 0.84228515625;0
115;2147666518; 0.999999665847186; 4.2195630096579506E-4; 2.9675974981939473E-4; -6.341861298980179E-4; -0.1615948665468904; -0.012072307284364541; -0.0012455818725178626; 1.8349609375; -1.714111328125; 0.843017578125;0
116;2147683185; 0.9999995598232994; 6.490809627791305E-4; 4.306941322940045E-4; -5.23019766183741E-4; -0.16097071534996327; -0.01128310429226984; -0.001546680560463561; 1.83251953125; -1.713134765625; 0.844970703125;0
117;2147699852; 0.9999995123797819; 7.969754305095778E-4; 4.597513700811129E-4; -3.587464832520149E-4; -0.1617325142533642; -0.010674961663667083; -0.002022224151722367; 1.832763671875; -1.713623046875; 0.844482421875;0
118;2147716519; 0.9999994768658385; 8.831439726470491E-4; 4.145999793103428E-4; -3.072972993170553E-4; -0.16257793727543907; -0.010063846172926964; -0.0031490571034283876; 1.832275390625; -1.713623046875; 0.84619140625;0
119;2147733186; 0.9999994510496085; 8.866160536569051E-4; 3.895236942268316E-4; -4.0010466950990425E-4; -0.16412648578039002; -0.009057245958649169; -0.004494926005020392; 1.833251953125; -1.713623046875; 0.846923828125;0
120;2147749853; 0.9999994659420778; 8.061867420746799E-4; 4.221455270445457E-4; -4.898690130711314E-4; -0.16548696222338033; -0.007919411103831002; -0.004343785316440878; 1.835205078125; -1.712158203125; 0.849853515625;0
121;2147766520; 0.9999995169666878; 5.922557630421293E-4; 5.383277116232515E-4; -5.705285069247391E-4; -0.16651653717148604; -0.006604867288942303; -0.00456416427138249; 1.835693359375; -1.711669921875; 0.8486328125;0
122;2147783187; 0.9999995712778108; 2.175303543394541E-4; 5.865721037329742E-4; -6.826843389505788E-4; -0.16665976339564886; -0.0059492645751580975; -0.00477104533410528; 1.832275390625; -1.709716796875; 0.8525390625;0
123;2147799854; 0.9999995051777897; -2.6569666252271307E-4; 6.039168175778349E-4; -7.445360545793035E-4; -0.16638564459302643; -0.005185908625173982; -0.003696132062653944; 1.833251953125; -1.707275390625; 0.849365234375;0
124;2147816521; 0.9999994218340649; -6.730476902498256E-4; 4.966728723901499E-4; -6.75762088712839E-4; -0.16669102915835016; -0.006204044131027667; -0.0034971814429332407; 1.8330078125; -1.706298828125; 0.85205078125;0
125;2147833188; 0.9999994385157656; -8.87206274573768E-4; 2.4246015692568068E-4; -5.263518332316864E-4; -0.16610355010724548; -0.008174587499064447; -0.0034346730881998876; 1.836181640625; -1.706787109375; 0.853271484375;0
126;2147849855; 0.9999994126577582; -0.0010182841003256171; 1.8233171765427717E-5; -3.7074139421000574E-4; -0.16368077769101017; -0.010033649669039479; -0.0033277825733444757; 1.834716796875; -1.706298828125; 0.85400390625;0
127;2147866522; 0.9999993146939219; -0.0011405259799145973; -2.7158679947236756E-5; -2.628204365268117E-4; -0.162508901650323; -0.010224827657698686; -0.004640920622064764; 1.8359375; -1.707275390625; 0.852783203125;0
128;2147883189; 0.9999991929375022; -0.001250409088380089; -1.2019400869056619E-4; -1.9014430366481871E-4; -0.16306760553380267; -0.010358933433057348; -0.005915109518009857; 1.8359375; -1.705078125; 0.8505859375;0
129;2147899856; 0.9999990724986447; -0.0013273143088513017; -2.2759374743143435E-4; -2.0356733959442377E-4; -0.16384157140077055; -0.010265296812309642; -0.007130103082343164; 1.835693359375; -1.705810546875; 0.84716796875;0
130;2147916523; 0.9999988347771357; -0.0014707551778177091; -2.9325094052644335E-4; -2.8517970435565365E-4; -0.16374307680020392; -0.011303904219319311; -0.0072608601275138025; 1.838134765625; -1.70458984375; 0.847412109375;0
131;2147933190; 0.9999986894989675; -0.0015689205690455482; -2.265736668099622E-4; -3.2886618726685196E-4; -0.16286445653060383; -0.011643637556742675; -0.006477841994468575; 1.840576171875; -1.700927734375; 0.8447265625;0
132;2147949857; 0.9999984200677638; -0.001751880067180675; 8.271181922689387E-6; -3.011806667736483E-4; -0.16185184331570768; -0.011997595443754056; -0.005730256573995118; 1.842041015625; -1.701904296875; 0.842041015625;0
133;2147966524; 0.9999980575539733; -0.0019475081140195166; 1.437745044833294E-4; -2.6726263885468177E-4; -0.16184041425197096; -0.013414950867868956; -0.005421624823958254; 1.83935546875; -1.701171875; 0.84228515625;0
134;2147983191; 0.9999980080966052; -0.0019818539609440244; 1.6768270039406455E-4; -1.6715325704380612E-4; -0.1608130201184445; -0.015669445279269546; -0.005726155562446052; 1.840576171875; -1.701171875; 0.8408203125;0
135;2147999858; 0.999998390927462; -0.0017838386227716774; 1.8988673644680656E-4; 2.298290528390812E-6; -0.15974181728897255; -0.018104330413472307; -0.00499792181532286; 1.8408203125; -1.700927734375; 0.841552734375;0
136;2148016525; 0.9999990398236495; -0.0013513828492684454; 2.2594062106212623E-4; 2.075259253489503E-4; -0.15940744859452405; -0.019723269827100223; -0.004561604528902094; 1.84423828125; -1.699462890625; 0.83837890625;0
137;2148033192; 0.9999995352138903; -8.329758757332495E-4; 2.636925008539792E-4; 4.076634136108704E-4; -0.1591678712436462; -0.01980957505322345; -0.004481030496121828; 1.842529296875; -1.7001953125; 0.83642578125;0
138;2148049859; 0.9999996800874258; -5.148810010321136E-4; 3.1772476624741813E-4; 5.232337658323538E-4; -0.1593940966151578; -0.017993485449213587; -0.004720848779927955; 1.8408203125; -1.70068359375; 0.839599609375;0
139;2148066526; 0.9999996856613317; -4.375835584272958E-4; 3.434327401520138E-4; 5.650237341868759E-4; -0.1599404773907713; -0.016092451227540588; -0.00492046901369987; 1.843994140625; -1.699462890625; 0.8388671875;0
140;2148083193; 0.9999995796931032; -5.660265993386038E-4; 4.083806722380707E-4; 5.945189084846647E-4; -0.1605969894160815; -0.015352235102811453; -0.005103645070870437; 1.8388671875; -1.699951171875; 0.839599609375;0
141;2148099860; 0.9999993913412156; -8.095189090664701E-4; 4.7012504881846495E-4; 5.839338769457748E-4; -0.1620592013510115; -0.014606731300851251; -0.005982434437739419; 1.840576171875; -1.70263671875; 0.8408203125;0
142;2148116527; 0.9999991752801756; -0.001015362273208198; 4.888642572921377E-4; 6.160277272861947E-4; -0.16433748274766175; -0.01571656689358824; -0.006507063072670662; 1.841064453125; -1.70361328125; 0.83935546875;0
143;2148133194; 0.999999179348496; -0.0010144501827139274; 4.411904431026043E-4; 6.461765658221653E-4; -0.1661172194913773; -0.01687491660067352; -0.007333233860159605; 1.839599609375; -1.705322265625; 0.8388671875;0
144;2148149861; 0.9999994098721618; -8.033721665630655E-4; 3.124173958120175E-4; 6.612441763569343E-4; -0.16714718741769033; -0.01691979729936401; -0.007996953776836417; 1.83984375; -1.706787109375; 0.83984375;0
145;2148166528; 0.9999996579890505; -4.99806119624302E-4; 1.4314471661801276E-4; 6.432147501271858E-4; -0.16710732964190042; -0.015658002904413083; -0.008462397489723118; 1.8388671875; -1.706787109375; 0.839599609375;0
146;2148183195; 0.9999998154239728; -2.9330099830912615E-4; 6.470382446131796E-5; 5.2814766868442E-4; -0.16569008117412248; -0.013364627833211627; -0.00858125812185357; 1.837890625; -1.7080078125; 0.84033203125;0
147;2148199862; 0.9999998851499894; -3.353469919033514E-4; 3.0225928474625355E-5; 3.4107007551870133E-4; -0.16460834685485654; -0.009370685292286102; -0.008314807157934964; 1.83837890625; -1.7080078125; 0.83935546875;0
148;2148216529; 0.9999997972615231; -6.252956719543235E-4; -5.1612014682844716E-5; 1.0871262717321306E-4; -0.16424965530705088; -0.007305526153187; -0.007328440951171567; 1.8359375; -1.708251953125; 0.83935546875;0
149;2148233196; 0.9999993113400866; -0.0011598830422892559; -1.2349655561622042E-4; -1.2938037616311296E-4; -0.16324634460005782; -0.005342389839487626; -0.006673576854773598; 1.83740234375; -1.708251953125; 0.838134765625;0
150;2148249863; 0.9999984369955477; -0.0017231154878868393; -1.683811468747576E-4; -3.585069962150911E-4; -0.1623190357986624; -0.005522854644445104; -0.005864754944191156; 1.838623046875; -1.7060546875; 0.8359375;0
151;2148266530; 0.9999973513978875; -0.002238551696086527; -1.9960961369698552E-4; -4.962252671427693E-4; -0.16125902277899692; -0.0067209579014294125; -0.005674510072712229; 1.839599609375; -1.705810546875; 0.833251953125;0
152;2148283197; 0.9999967990022015; -0.0024687412911298667; -1.8299999661748614E-4; -5.232712387155392E-4; -0.16162742564905488; -0.008098960117284325; -0.005968775356029089; 1.842041015625; -1.703857421875; 0.83447265625;0
153;2148299864; 0.9999967887212763; -0.0024831912259072886; -2.271491168154005E-4; -4.5245082539280285E-4; -0.1625443890125043; -0.009826050237767262; -0.006726683055676775; 1.841552734375; -1.704833984375; 0.828369140625;0
154;2148316531; 0.9999972214918473; -0.002324355497267755; -1.8262629078683037E-4; -3.4789042137184367E-4; -0.16267800115363587; -0.012238543850078788; -0.006990885230253013; 1.841064453125; -1.700927734375; 0.8291015625;0
155;2148333198; 0.9999977451040342; -0.002103491538594321; -1.2643037511480412E-4; -2.629173909147187E-4; -0.16359016277420163; -0.013878491461906676; -0.0066128957029928034; 1.842041015625; -1.700439453125; 0.826171875;0
156;2148349865; 0.9999981284643754; -0.0019252023749689595; -1.0749859005898534E-4; -1.584538263465496E-4; -0.16410504936237147; -0.01362767491629936; -0.0063448769090534395; 1.845703125; -1.701904296875; 0.821044921875;0
157;2148366532; 0.9999981612407274; -0.0019115361463969416; -1.3564453091684942E-4; -7.173065225096754E-5; -0.16494535461837675; -0.01340221588570891; -0.006582167876901541; 1.8466796875; -1.697265625; 0.81884765625;0
158;2148383199; 0.9999979695422154; -0.0020051430668808767; -1.9642756497302574E-4; -4.158051791097739E-5; -0.16606041565234045; -0.013710009442736875; -0.006829723886990824; 1.8466796875; -1.700439453125; 0.8173828125;0
159;2148399866; 0.9999978976053516; -0.002035568493640394; -2.473578218661899E-4; 7.739014467600393E-6; -0.16521866001744112; -0.014864056790088738; -0.006249265570161809; 1.8427734375; -1.699951171875; 0.817626953125;0
160;2148416533; 0.9999978791843891; -0.0020469477650238987; -2.2513003922616795E-4; 3.079020480672989E-5; -0.16398350939574471; -0.015617101874540396; -0.005673897485523598; 1.846923828125; -1.698486328125; 0.81591796875;0
161;2148433200; 0.9999978749598294; -0.0020509263100607356; -2.0771856530187038E-4; 2.5101666691396133E-5; -0.16281913275485846; -0.016005116728018406; -0.005537729594982754; 1.849853515625; -1.699462890625; 0.812744140625;0
162;2148449867; 0.9999981375694517; -0.0019195535145949127; -1.946657267669766E-4; 4.771988583834874E-5; -0.16187090161744838; -0.016528218054079124; -0.005644397877081715; 1.85009765625; -1.698486328125; 0.810302734375;0
163;2148466534; 0.9999984804078793; -0.001726476152671158; -2.3664261399213712E-4; 4.962156616505898E-5; -0.16107146046383705; -0.017546829420497106; -0.006096906919530385; 1.848388671875; -1.6962890625; 0.808837890625;0
164;2148483201; 0.9999988090104691; -0.0015114839511403966; -3.0562225311134983E-4; 6.31581132307657E-5; -0.16028918948285542; -0.017963270652291138; -0.006351339364677605; 1.848876953125; -1.693603515625; 0.805419921875;0
165;2148499868; 0.9999991487751758; -0.0012692379213928018; -2.6822566561893885E-4; 1.3978202721148805E-4; -0.1598820873150352; -0.018210139892913584; -0.006255541906326304; 1.848876953125; -1.697509765625; 0.80419921875;0
166;2148516535; 0.9999994488022176; -0.0010118788968614123; -1.555702736166162E-4; 2.3301126384978055E-4; -0.16053912004157309; -0.018308979711257223; -0.006393913820022289; 1.850830078125; -1.695556640625; 0.80126953125;0
167;2148533202; 0.9999996415891838; -7.940827145285767E-4; -1.0393289364427767E-4; 2.7468545655851E-4; -0.16123209766460345; -0.01810936372320617; -0.0068262505818736; 1.84716796875; -1.694091796875; 0.799072265625;0
168;2148549869; 0.9999997815303995; -5.862506202228279E-4; -5.681625888280529E-5; 3.0003545853696245E-4; -0.16184364083263159; -0.01776964491206077; -0.006892579893736194; 1.850830078125; -1.696044921875; 0.80126953125;0
169;2148566536; 0.999999871531826; -3.9714741796023634E-4; -1.9100142027231315E-6; 3.149708108837191E-4; -0.16193629633537937; -0.01685806711715426; -0.006864829915858791; 1.85107421875; -1.696533203125; 0.800537109375;0
170;2148583203; 0.9999999126382044; -2.087618896116361E-4; 2.1579893736252412E-5; 3.614918604316619E-4; -0.16250929760050675; -0.01604746987328767; -0.007008117195133045; 1.847900390625; -1.697265625; 0.80322265625;0
171;2148599870; 0.9999999132639181; -1.1630213030852654E-4; 3.8500765346782824E-5; 3.9807494473975696E-4; -0.16268030866943026; -0.014865575442472799; -0.006846385511786679; 1.849365234375; -1.69775390625; 0.805908203125;0
172;2148616537; 0.9999999085752267; -2.84107872571826E-5; 5.84302576019033E-5; 4.22644377949144E-4; -0.16240912548698902; -0.014615333157591129; -0.0063949191710247315; 1.849609375; -1.697265625; 0.7998046875;0
173;2148633204; 0.9999998933183497; 6.455539625180307E-5; 4.9928219273971675E-5; 4.5464608529993683E-4; -0.16266337992087546; -0.014285865142712422; -0.007148095877422971; 1.848388671875; -1.698486328125; 0.805419921875;0
174;2148649871; 0.9999998915447488; 1.3955724612038645E-4; 3.964007887567734E-6; 4.443180757690013E-4; -0.16269661557160328; -0.0134444048108083; -0.0072598348258826155; 1.845947265625; -1.699462890625; 0.80224609375;0
175;2148666538; 0.9999999163995377; 1.1391438485383598E-4; -5.393207745158641E-5; 3.8899326688329744E-4; -0.16273176352920674; -0.01263977566290983; -0.00690214986374682; 1.84814453125; -1.69970703125; 0.802734375;0
176;2148683205; 0.9999999277807934; 1.2406610353674075E-4; -7.987330350289064E-5; 3.502374413695275E-4; -0.16349671513072941; -0.012161297492278811; -0.006310601519684711; 1.848876953125; -1.69970703125; 0.80078125;0
177;2148699872; 0.9999999199138918; 2.0504960668779604E-4; -6.069977839641416E-5; 3.382933721726156E-4; -0.1637007078555521; -0.012443272438842336; -0.006152378696419209; 1.84716796875; -1.700439453125; 0.800537109375;0
178;2148716539; 0.99999990421493; 2.993177509011957E-4; -5.9450039759538505E-5; 3.137589959965048E-4; -0.16382923290030685; -0.012869996724325143; -0.006755744734491691; 1.84033203125; -1.70166015625; 0.800537109375;0
179;2148733206; 0.9999998910655264; 3.6851228520154433E-4; -1.1710604685650357E-4; 2.614456058622761E-4; -0.16358603271077096; -0.012430026910649351; -0.006722693013547982; 1.845947265625; -1.702392578125; 0.802490234375;0
180;2148749873; 0.9999998773697533; 4.247621917625455E-4; -1.6300674201701756E-4; 1.956178947704612E-4; -0.1632102368719534; -0.011693733659808823; -0.007022417282697584; 1.845703125; -1.703857421875; 0.8056640625;0
181;2148766540; 0.9999998965192681; 3.9346710251250694E-4; -1.8138974728654916E-4; 1.387186063390167E-4; -0.16282288182318386; -0.010393478445790616; -0.006898805574264746; 1.84716796875; -1.703125; 0.8046875;0
182;2148783207; 0.9999999476378717; 2.6408323687124313E-4; -1.7222706664419415E-4; 7.295296664744377E-5; -0.16308362763195797; -0.010070352460883841; -0.006686774082017798; 1.8466796875; -1.704345703125; 0.80419921875;0
183;2148799874; 0.999999984547291; 8.329186145850098E-5; -1.5442664704305722E-4; 1.0967867204281225E-5; -0.16289040885739525; -0.01034521929918581; -0.006956161967393102; 1.8447265625; -1.704833984375; 0.804443359375;0
184;2148816541; 0.9999999947698623; -5.143048635816716E-5; -5.7075431628847435E-5; -6.750981694625402E-5; -0.1626886020668124; -0.011967764721751557; -0.00724122700522317; 1.845458984375; -1.70166015625; 0.8017578125;0
185;2148833208; 0.9999999914458912; -5.865435069737912E-5; -1.8448912575963483E-6; -1.1689517043478316E-4; -0.16359980732340693; -0.012904764600690597; -0.006712606843992653; 1.84423828125; -1.7021484375; 0.802001953125;0
186;2148849875; 0.9999999844601609; 1.6763577297651544E-4; -3.5037959598985264E-5; -4.183618900077679E-5; -0.16423744084364877; -0.013338906637556287; -0.005814612781121501; 1.847900390625; -1.700439453125; 0.800048828125;0
187;2148866542; 0.9999999118484494; 4.075881160620076E-4; -9.989114258913274E-5; 1.4027850715248038E-5; -0.16409419330399053; -0.012862389391620217; -0.004963677418106107; 1.848876953125; -1.7041015625; 0.803466796875;0
188;2148883209; 0.9999998636051585; 4.981003402270978E-4; -1.570957002090326E-4; 2.580028938548029E-6; -0.16407500268131106; -0.012407276883632691; -0.004513016788286795; 1.84619140625; -1.701416015625; 0.803466796875;0
189;2148899876; 0.9999998180068123; 5.557584121831105E-4; -2.3325266766221348E-4; 2.6685625433453545E-5; -0.16376451076031892; -0.011381253980868193; -0.004261191994605533; 1.8466796875; -1.703857421875; 0.80419921875;0
190;2148916543; 0.9999998311439555; 4.90810485730242E-4; -3.0960244194652714E-4; 3.1039579142799756E-5; -0.1633537813196419; -0.009471059448073044; -0.00510669089326846; 1.845458984375; -1.701904296875; 0.803955078125;0
191;2148933210; 0.999999877341776; 3.226570252293781E-4; -3.729819781735991E-4; 4.575282586866126E-5; -0.16297178032933754; -0.008838516732693171; -0.005074926291558085; 1.845947265625; -1.702880859375; 0.804931640625;0
192;2148949877; 0.9999998968320534; 1.9168652949605458E-4; -4.0667936555871537E-4; 6.483865047862691E-5; -0.16401511616601788; -0.008280006233740018; -0.004465593740753976; 1.84619140625; -1.704345703125; 0.8017578125;0
193;2148966544; 0.9999998379026481; -7.365524970215365E-7; -5.614271879536142E-4; 9.483484339906091E-5; -0.16362905865388913; -0.007351438194805472; -0.0047779578995647; 1.847900390625; -1.705078125; 0.799072265625;0
194;2148983211; 0.999999801915592; -3.2470276099477724E-4; -5.377911810399012E-4; 3.895560652306118E-5; -0.1626988973888037; -0.009292033886283772; -0.0038362593101207796; 1.84765625; -1.70361328125; 0.802978515625;0
195;2148999878; 0.99999983409758; -2.5675901040603244E-4; -5.040069786443961E-4; -1.0888796326796736E-4; -0.16477410327667838; -0.01397653426373571; -0.0017283226233767747; 1.8466796875; -1.70361328125; 0.800048828125;0
196;2149016545; 0.9999994148971248; 3.3982696605946994E-4; -0.0010262765965367365; -3.846281816582975E-5; -0.16812754132575422; -0.01471711179201739; 7.304569526110742E-4; 1.84375; -1.701416015625; 0.797607421875;0
197;2149033212; 0.9999981299249623; 0.0010110666114962197; -0.0016458917049539737; 9.450598264615363E-5; -0.16794565397794883; -0.012767207664397236; -2.369203172466871E-4; 1.84521484375; -1.701904296875; 0.79638671875;0
198;2149049879; 0.9999978860883946; 0.0011797066625530983; -0.001683793751169685; -3.081454201575573E-5; -0.16407976712931704; -0.011377072922740579; -0.004193234220613578; 1.846435546875; -1.702392578125; 0.79345703125;0
199;2149066546; 0.9999986770708714; 8.436803894116274E-4; -0.0013601010001786722; -2.901468194285162E-4; -0.1608618026242402; -0.008139146024981796; -0.00649954061860244; 1.846435546875; -1.702392578125; 0.795166015625;0
200;2149083213; 0.9999994456652778; 1.495705189608898E-4; -9.275397795590474E-4; -4.7536065715003684E-4; -0.16126248970117982; -0.006900658473801542; -0.007471222687241482; 1.845703125; -1.702880859375; 0.78955078125;0
201;2149099880; 0.9999995275809592; -2.0953109752239185E-4; -8.460633479582466E-4; -4.3024573086536405E-4; -0.16361781506610532; -0.008401941867673571; -0.005278063084711227; 1.8466796875; -1.7001953125; 0.788330078125;0
202;2149116547; 0.9999994028540515; -2.066238844148638E-4; -0.0010439999669981939; -2.4831870593489125E-4; -0.16489578376772493; -0.010005462404612446; -0.0015598629517810571; 1.848876953125; -1.700439453125; 0.788818359375;0
203;2149133214; 0.9999991973117356; 3.7361091646787026E-4; -0.0012014456640164972; -1.4939572996930386E-4; -0.165462852140655; -0.015317774652881488; 0.001808501743093693; 1.8505859375; -1.697265625; 0.780517578125;0
204;2149149881; 0.9999982047862257; 0.0011929442773057908; -0.001468490973458088; -1.0412750780258717E-4; -0.16642990786026376; -0.017051071419480247; 0.0017927351305569144; 1.850341796875; -1.700439453125; 0.785888671875;0
205;2149166548; 0.9999973964274975; 0.001599102426433352; -0.0016258647065742204; -8.107781519384184E-5; -0.16518618263302481; -0.013124948013876248; -0.0015709273976419972; 1.84814453125; -1.701416015625; 0.783935546875;0
206;2149183215; 0.9999981985566926; 0.0012495025909403934; -0.001415642568697008; -1.9386274172306095E-4; -0.1622190275030754; -0.009355298064441617; -0.0041337479382085075; 1.849365234375; -1.698974609375; 0.779541015625;0
207;2149199882; 0.9999991213004469; 6.37660288766495E-4; -0.0010879297426910769; -4.0889676598393493E-4; -0.16132161191128555; -0.009195758008590542; -0.003447167058669435; 1.849853515625; -1.7001953125; 0.7783203125;0
208;2149216549; 0.9999993732183095; -1.2409365282878282E-5; -9.92102788712049E-4; -5.187880611955964E-4; -0.16205554539585604; -0.008950148839318932; -7.860421895465493E-4; 1.85107421875; -1.697998046875; 0.779052734375;0
209;2149233216; 0.9999993216116312; -3.422970330880515E-4; -0.0010256089030321186; -4.332844290778071E-4; -0.16133045836425747; -0.009043037156509656; 4.735345004674464E-4; 1.848388671875; -1.69873046875; 0.7724609375;0
210;2149249883; 0.9999992533592277; -7.331609902364311E-4; -9.042793798090116E-4; -3.7153028502379115E-4; -0.15997461056257595; -0.008637318919655568; 1.0212126486713533E-4; 1.852783203125; -1.69580078125; 0.771484375;0
211;2149266550; 0.9999990077945834; -0.0011401098517013764; -7.318045800043667E-4; -3.86032940704828E-4; -0.16017751751514386; -0.009860795352596523; -2.3995303590130385E-4; 1.85107421875; -1.697509765625; 0.769287109375;0
212;2149283217; 0.9999989606316512; -0.0012347746950611138; -6.359677096746537E-4; -3.8679728783447276E-4; -0.15992828380160917; -0.013101377336861633; 5.717038890574195E-4; 1.8544921875; -1.69580078125; 0.7685546875;0
213;2149299884; 0.999999306671016; -0.0010407092460158751; -4.5121688822255535E-4; -3.1620416247635236E-4; -0.15977962837317936; -0.015570765502252852; 9.016509584400447E-4; 1.8525390625; -1.6923828125; 0.768310546875;0
214;2149316551; 0.9999995740713228; -8.425401830218504E-4; -3.272563382007224E-4; -1.8677928745353123E-4; -0.160332207002065; -0.015299264483855225; 7.367270938109117E-4; 1.85693359375; -1.693603515625; 0.765625;0
215;2149333218; 0.9999996360553652; -7.980202990595653E-4; -2.846332443362868E-4; -1.0018310933901377E-4; -0.1608473552904005; -0.014564828251964704; 0.0015837270189795073; 1.855712890625; -1.69140625; 0.763671875;0
216;2149349885; 0.9999996290773643; -8.35391340442998E-4; -2.0441205253995956E-4; -4.671353999274874E-5; -0.16163170216200143; -0.015271940822582125; 0.0019916743161821106; 1.85546875; -1.6923828125; 0.7626953125;0
217;2149366552; 0.9999996979192525; -7.664049378109383E-4; -1.2616300866611502E-4; -2.9457938075905247E-5; -0.16260757758726735; -0.017460103156301626; 0.0028111514286837617; 1.853271484375; -1.69189453125; 0.761474609375;0
218;2149383219; 0.9999998350967187; -5.64879687608516E-4; -1.032877857000611E-4; -7.007648354095952E-6; -0.16321770387452222; -0.018036811602229568; 0.0031722229484026643; 1.8544921875; -1.694580078125; 0.762451171875;0
219;2149399886; 0.9999999132742015; -3.853587256788249E-4; -1.558468888940984E-4; -2.5729153318165835E-5; -0.16321357355246302; -0.017308176315429354; 0.003037798497034479; 1.858642578125; -1.692626953125; 0.76220703125;0
220;2149416553; 0.9999999372980776; -3.263384655599888E-4; -1.324843094675163E-4; -3.680970541597439E-5; -0.16251341261909805; -0.016073248086836738; 0.0025245369457326285; 1.85888671875; -1.69189453125; 0.760009765625;0
221;2149433220; 0.9999999249638871; -3.5946344155179943E-4; -1.2843124677292678E-4; -6.605807291404366E-5; -0.1622154900793735; -0.015219239838198331; 0.0026011880852113266; 1.85693359375; -1.69189453125; 0.760009765625;0
222;2149449887; 0.9999998942758511; -3.794967824806983E-4; -2.585837864336541E-4; -2.3767707583055575E-5; -0.16335608130678594; -0.014479729824944151; 0.0027708408002997936; 1.85791015625; -1.6904296875; 0.75830078125;0
223;2149466554; 0.9999998810234703; -3.378916300952328E-4; -3.474701565042288E-4; 5.5197662555961376E-5; -0.1627739688010532; -0.014039497020899766; 0.0024443613506309643; 1.8544921875; -1.690185546875; 0.761474609375;0
224;2149483221; 0.9999999242217245; -2.165158632148334E-4; -2.902490248031312E-4; 1.4294379995527517E-4; -0.16211860373355008; -0.01407131867282008; 0.0025383024873200325; 1.8603515625; -1.690673828125; 0.75830078125;0
225;2149499888; 0.9999999526871958; -8.417425119655597E-5; -2.2997839923560165E-4; 1.8614574231068384E-4; -0.16187714721884627; -0.014557356060035996; 0.0027576941972947706; 1.8564453125; -1.689453125; 0.75537109375;0
226;2149516555; 0.9999999575560837; 7.898424944963178E-5; -1.7635575867563927E-4; 2.180549594007486E-4; -0.16165714283743546; -0.014874927509250326; 0.0027694001270545596; 1.857666015625; -1.691650390625; 0.75732421875;0
227;2149533222; 0.9999999060538541; 2.627192912158516E-4; -1.744019848736421E-4; 2.974135243830612E-4; -0.16193703033455698; -0.014155806923998244; 0.002347169878930579; 1.85498046875; -1.6923828125; 0.758544921875;0
228;2149549889; 0.9999998319724951; 4.177884458508585E-4; -2.2994570799694458E-4; 3.2959485350808615E-4; -0.1622209086514211; -0.013462980312744689; 0.0021908584990022253; 1.8525390625; -1.69091796875; 0.75439453125;0
229;2149566556; 0.9999998605702117; 4.030763900013945E-4; -1.7853007125476217E-4; 2.9071634698657483E-4; -0.16220671959532978; -0.01292856588867983; 0.0025732978455192644; 1.854736328125; -1.69189453125; 0.7568359375;0
230;2149583223; 0.9999999365684544; 2.1668527726087516E-4; -1.2831391282589619E-4; 2.5188512761270543E-4; -0.1624545009229737; -0.011939349528102924; 0.002280318829129631; 1.85400390625; -1.694580078125; 0.756103515625;0
231;2149599890; 0.9999999759307427; -1.1496751879502831E-5; -6.858827562952753E-5; 2.0809129498300385E-4; -0.16246996804627734; -0.011923450061732196; 0.0025343259027584743; 1.85693359375; -1.695068359375; 0.7568359375;0
232;2149616557; 0.9999999761602281; -1.1617140698536033E-4; 2.6616595315900886E-6; 1.848693133428836E-4; -0.16244144922910098; -0.012883899538738475; 0.0029765405738047587; 1.85498046875; -1.695068359375; 0.760986328125;0
233;2149633224; 0.9999999791665275; -7.780996803302687E-5; 6.457589249725046E-5; 1.773203527458134E-4; -0.1625791635942636; -0.013419448039592101; 0.002994136889880388; 1.85546875; -1.69287109375; 0.757080078125;0
234;2149649891; 0.9999999759979082; 3.144212882638664E-5; 8.688202326058438E-5; 1.9866325641781923E-4; -0.163163038578308; -0.013760465247787032; 0.0027374525146198463; 1.85400390625; -1.693359375; 0.757568359375;0
235;2149666558; 0.9999999622577084; 1.791925460328525E-4; 1.2633978402371017E-5; 2.078821682643395E-4; -0.16374650276703; -0.013404114688469426; 0.003063508456178114; 1.853759765625; -1.695556640625; 0.7568359375;0
236;2149683225; 0.9999999228119414; 3.086399953615704E-4; -3.329564747350106E-5; 2.4085029448933648E-4; -0.16360148734445465; -0.013541017086420727; 0.0032590430616474177; 1.85498046875; -1.69580078125; 0.759033203125;0
237;2149699892; 0.9999999187982147; 3.215338403885215E-4; -3.9158049282863455E-5; 2.3976280089560434E-4; -0.1632502002568626; -0.012985389978857826; 0.003622055985010671; 1.853271484375; -1.6943359375; 0.760498046875;0
238;2149716559; 0.9999999556733122; 2.0968466162307742E-4; -8.594556936167981E-6; 2.112151738022372E-4; -0.16319712310974982; -0.012231577886545419; 0.0031031203452085397; 1.855712890625; -1.69677734375; 0.7587890625;0
239;2149733226; 0.9999999836384553; 1.0323335074322038E-4; -4.74288154070704E-6; 1.4847043274990315E-4; -0.1628702834903389; -0.01220944732081078; 0.00295481467332458; 1.85205078125; -1.695068359375; 0.760498046875;0
240;2149749893; 0.9999999925200992; 4.157160966331008E-5; 1.544964470272248E-5; 1.1398645287269416E-4; -0.16237397010218282; -0.01183464664089945; 0.0028771229452875507; 1.855712890625; -1.697265625; 0.756591796875;0
241;2149766560; 0.9999999945532633; -3.469830831140386E-5; 5.3230727819448403E-5; 8.280090900819605E-5; -0.16185944471017222; -0.011903830228783517; 0.002440164515173293; 1.854248046875; -1.695556640625; 0.757080078125;0
242;2149783227; 0.9999999891259765; -7.139441497122645E-5; 1.1204932541665145E-4; 6.399869578593842E-5; -0.1619733851448869; -0.01225249015981846; 0.0028644722742463165; 1.855712890625; -1.6982421875; 0.75732421875;0
243;2149799894; 0.9999999897025765; -1.1554478616560004E-5; 1.311313494253147E-4; 5.714814033863647E-5; -0.1626692501026696; -0.012457587549299433; 0.002820287242045078; 1.8515625; -1.697509765625; 0.76025390625;0
244;2149816561; 0.9999999882579581; 5.92591531217157E-5; 9.340817471288622E-5; 1.0605352111447974E-4; -0.16366031282619348; -0.012649095310340273; 0.0032035819210263633; 1.854248046875; -1.697021484375; 0.7578125;0
245;2149833228; 0.9999999909513768; 7.922583249514448E-5; 5.7244962230855456E-5; 9.243120695578978E-5; -0.16351747355974408; -0.012426575869485743; 0.003260044311025622; 1.851318359375; -1.695068359375; 0.758544921875;0
246;2149849895; 0.9999999934868219; 5.0404464820935635E-5; 8.682162970154868E-5; 5.4293193103571724E-5; -0.16320553314977687; -0.011997308539290489; 0.003182707960324044; 1.85546875; -1.6953125; 0.759033203125;0
247;2149866562; 0.9999999894801943; -7.387860936719504E-5; 1.2475871887204784E-4; -4.1017650746488785E-6; -0.16395435707645628; -0.011456959471281036; 0.0030533763229267496; 1.8544921875; -1.697265625; 0.759033203125;0
248;2149883229; 0.9999999683327392; -2.3830586608314386E-4; 5.820686779073326E-5; -5.618536376433836E-5; -0.1640643053975712; -0.011041638147477065; 0.0029614560529723187; 1.856201171875; -1.69775390625; 0.75732421875;0
249;2149899896; 0.9999999146840151; -3.8483858452728614E-4; 8.699030489101034E-5; -1.2232707519294064E-4; -0.16287727660458906; -0.011677331985271055; 0.003272234422903905; 1.851318359375; -1.696533203125; 0.76123046875;0
250;2149916563; 0.9999998732206493; -4.4931465832143136E-4; 1.0663379831583193E-4; -2.0075919945938825E-4; -0.1622300927142579; -0.012174399530084153; 0.003474584951964411; 1.852294921875; -1.694580078125; 0.75927734375;0
251;2149933230; 0.9999998747461875; -4.344127915912044E-4; 3.883676332797765E-5; -2.455297166223947E-4; -0.16218667810647208; -0.012923134537382058; 0.003618061930798777; 1.85546875; -1.6962890625; 0.75927734375;0
252;2149949897; 0.9999998956075523; -3.981942391518556E-4; -6.348808963070955E-5; -2.1493137216060942E-4; -0.16327466279749298; -0.012343309948493546; 0.0030035637752496742; 1.85595703125; -1.69482421875; 0.7578125;0
253;2149966564; 0.999999917325024; -3.647978721200429E-4; -8.124632135773219E-5; -1.602232597560094E-4; -0.163645298341872; -0.011880427978014044; 0.0017767572982682594; 1.85498046875; -1.697509765625; 0.760986328125;0
254;2149983231; 0.9999999293943167; -3.447788156749343E-4; 3.22052772566972E-5; -1.459511906359845E-4; -0.16282980968201613; -0.013022737573041631; 0.0019719465104475857; 1.855712890625; -1.694580078125; 0.7587890625;0
255;2149999898; 0.9999999254705986; -2.8495283523855E-4; 1.962100598165151E-4; -1.7135428598413774E-4; -0.1625365295320539; -0.014168013082606014; 0.002336035736766438; 1.854248046875; -1.69287109375; 0.759033203125;0
256;2150016565; 0.9999999009717224; -2.5860077957134964E-4; 3.139694311524028E-4; -1.8056959402512618E-4; -0.1617297225313223; -0.01449943513437651; 0.0024272447767793737; 1.855712890625; -1.69482421875; 0.75830078125;0
257;2150033232; 0.9999998972718299; -2.110434908700054E-4; 3.468718373769719E-4; -2.0148673118014496E-4; -0.16198490759518913; -0.014824151671966143; 0.0019701493184176994; 1.85693359375; -1.69287109375; 0.76025390625;0
258;2150049899; 0.9999999585502607; -1.4550174703190089E-4; 1.629654301701124E-4; -1.875392951591337E-4; -0.162651470368442; -0.01394860511274321; 0.001769689067525223; 1.85595703125; -1.69189453125; 0.757080078125;0
259;2150066566; 0.9999999731266092; -1.502723602918865E-4; 7.582187098668232E-5; -1.5942409718217035E-4; -0.16198575504108279; -0.012296942412967748; 0.0016733731668943843; 1.855224609375; -1.692138671875; 0.759765625;0
260;2150083233; 0.9999999418864044; -2.39933732016806E-4; 1.7129931736585213E-4; -1.7121780244050422E-4; -0.16232283492505759; -0.012781082352402962; 0.0020930412769398915; 1.85595703125; -1.691650390625; 0.7568359375;0
261;2150099900; 0.99999988423937; -3.6497397583040714E-4; 2.1281150104025814E-4; -2.3027485470528133E-4; -0.1629687702629146; -0.013943248425509269; 0.0027721823079356455; 1.85693359375; -1.69287109375; 0.76025390625;0
262;2150116567; 0.9999998756567706; -3.9822908316058947E-4; 1.9572703441698983E-4; -2.275762920863067E-4; -0.16322247669441925; -0.014273122180242638; 0.0017277577856185146; 1.85986328125; -1.691162109375; 0.760498046875;0
263;2150133234; 0.9999998855952293; -4.0638023914341126E-4; 1.5882192476230839E-4; -1.9606179095910117E-4; -0.16329168101045008; -0.014498246771593493; 0.0014298633401780367; 1.85888671875; -1.68994140625; 0.7587890625;0
264;2150149901; 0.9999999235194612; -3.3793190891270863E-4; 1.1967690697811674E-4; -1.5633468778303294E-4; -0.16314256889424153; -0.015096937930070636; 0.0012417023210943377; 1.85595703125; -1.68896484375; 0.76025390625;0
265;2150166568; 0.9999999873763226; -8.560039609986636E-5; 6.682555594889408E-5; -1.1599255110839037E-4; -0.1630789761533305; -0.016569402976200916; 0.001879225969875123; 1.859130859375; -1.690673828125; 0.76025390625;0
266;2150183235; 0.999999975208431; 2.0428032424416043E-4; 6.11921307392821E-5; -6.409531636947241E-5; -0.16182905162398867; -0.01590117903871739; 0.0022047011888283938; 1.85791015625; -1.689453125; 0.76025390625;0
267;2150199902; 0.9999999607164937; 2.6409722355699716E-4; 8.411337814099794E-5; -4.1768496403971074E-5; -0.16244529884963294; -0.014118809357488972; 0.0014974038733679383; 1.856201171875; -1.692138671875; 0.760009765625;0
268;2150216569; 0.9999999931898663; 9.375002829101198E-5; 3.1957546999354665E-5; -6.172450545260943E-5; -0.16306932512912747; -0.012995057353942203; 5.182167086218558E-4; 1.855224609375; -1.688232421875; 0.760986328125;0
269;2150233236; 0.9999999876484335; -5.386416950192707E-5; 1.7565709137964264E-5; -1.4660569646435254E-4; -0.16237739928581452; -0.013841813519384526; 5.932412171031822E-4; 1.858642578125; -1.690673828125; 0.760009765625;0
270;2150249903; 0.9999999734611359; -8.097441586796261E-5; 9.353356323603403E-5; -1.9435108456633543E-4; -0.16208416533950645; -0.015534843279672052; 0.0010109644345682109; 1.85595703125; -1.68896484375; 0.76025390625;0
271;2150266570; 0.9999999786097786; 4.890141991448216E-5; 1.2871750013052424E-4; -1.543402039843045E-4; -0.16206041326470405; -0.01593044241524651; 0.0015765269160215555; 1.858642578125; -1.689697265625; 0.759765625;0
272;2150283237; 0.9999999630824156; 1.9448393856935642E-4; 1.6966001457704996E-4; -8.500967207286658E-5; -0.16226978714285145; -0.015728471103010466; 0.0014032695520620302; 1.856689453125; -1.6884765625; 0.759765625;0
273;2150299904; 0.9999999505425129; 2.610050984863943E-4; 1.7358610217889717E-4; -2.56744085858629E-5; -0.16288372555369182; -0.01548635345805015; 0.0011710422077342124; 1.86083984375; -1.68798828125; 0.760498046875;0
274;2150316571; 0.999999933131905; 3.428739873696518E-4; 1.26707087747896E-4; 1.0905418325823923E-5; -0.16330939950379147; -0.01570463587382983; 0.0015094926246424778; 1.856689453125; -1.68896484375; 0.76220703125;0
275;2150333238; 0.9999998933338964; 4.48430145363804E-4; 1.0697651284997946E-4; 2.825997974975625E-5; -0.16347996853218155; -0.015994100880046023; 0.0019581878708538926; 1.857666015625; -1.687744140625; 0.7607421875;0
276;2150349905; 0.9999998594434568; 5.242050430906697E-4; 7.707427131051216E-5; 1.953704947876833E-5; -0.1636819414003996; -0.015283675765921108; 0.0017649699129658487; 1.8583984375; -1.68798828125; 0.764404296875;0
277;2150366572; 0.9999998818794061; 4.8165553042939235E-4; 6.391855957874754E-5; -1.2788341057334842E-5; -0.16354299883564344; -0.014249340769838293; 0.0015465335143271496; 1.855712890625; -1.689208984375; 0.764892578125;0
278;2150383239; 0.9999999488099184; 3.135210798104471E-4; 3.4357516713552645E-5; -5.3891133291184E-5; -0.16339210315871888; -0.013801152983608633; 0.0013734122733914302; 1.857666015625; -1.68896484375; 0.76513671875;0
279;2150399906; 0.9999999842681355; 1.670700154272342E-4; 2.420330231947543E-5; -5.44567623376735E-5; -0.16266148323426188; -0.014079603102882098; 0.0011639111437364603; 1.859619140625; -1.688232421875; 0.7666015625;0
280;2150416573; 0.9999999907571807; 1.2660427978827826E-4; 4.624015211691924E-5; -1.785617773042425E-5; -0.1624697368050791; -0.014613500359558315; 0.0013651363398017608; 1.85595703125; -1.687744140625; 0.76611328125;0
281;2150433240; 0.9999999814917638; 1.6967779778551129E-4; 7.977988653398715E-5; 4.314031183683121E-5; -0.16266281470708194; -0.01492635589854866; 0.0011730201058896654; 1.858154296875; -1.68994140625; 0.765625;0
282;2150449907; 0.9999999542214125; 2.7549670329568565E-4; 5.073321883251187E-5; 1.1438915899175672E-4; -0.16284742215578316; -0.015168091445370398; 0.0012969797106093355; 1.857666015625; -1.6875; 0.76416015625;0
283;2150466574; 0.9999999394645089; 3.18981940144597E-4; 2.881488780828029E-5; 1.3598236109108044E-4; -0.1626122764363013; -0.014831069215840502; 0.0010394334360135163; 1.859375; -1.690185546875; 0.767578125;0
284;2150483241; 0.9999999240498343; 3.44326407030221E-4; 5.218598353018412E-5; 1.749750675129058E-4; -0.16246754932244004; -0.013807321521930822; 8.165032780858335E-4; 1.85498046875; -1.68994140625; 0.765380859375;0
285;2150499908; 0.9999999498727965; 2.3288041079938537E-4; 1.1091104276979985E-4; 1.8362968023688533E-4; -0.1623225308564373; -0.013507632282880851; 4.888322549126377E-4; 1.859130859375; -1.69140625; 0.7666015625;0
286;2150516575; 0.9999999721851843; 8.081817020899607E-5; 1.0729598666732455E-4; 1.9387012476196341E-4; -0.16304648506779498; -0.01365596856952423; 9.98617815025686E-4; 1.854248046875; -1.689453125; 0.766357421875;0
287;2150533242; 0.9999999776938561; 4.963743987673741E-6; 6.4657573650255E-5; 2.0101504106334603E-4; -0.1631564796051001; -0.01458692599169755; 9.536504456328105E-4; 1.85595703125; -1.6884765625; 0.76806640625;0
288;2150549909; 0.9999999776500668; 4.466749846016027E-5; 9.743776125655663E-5; 1.8223765585556606E-4; -0.1630273054760149; -0.015175666909652098; 6.168033437312318E-4; 1.85546875; -1.69140625; 0.769775390625;0
289;2150566576; 0.9999999629011078; 1.564145135144468E-4; 1.0483561052247042E-4; 1.9682931116332683E-4; -0.16301300347656558; -0.01513701697767261; 6.999893981142653E-4; 1.85498046875; -1.689697265625; 0.769287109375;0
290;2150583243; 0.9999999588139826; 1.86947388410158E-4; 1.734334407851729E-4; 1.3169490707382048E-4; -0.1621221650767048; -0.015387697550375445; -8.941298493121003E-5; 1.85693359375; -1.693359375; 0.77001953125;0
291;2150599910; 0.9999997407653812; 1.711715647103318E-4; 6.047400525327208E-4; -3.513672360403453E-4; -0.16241223590604886; -0.015880639932388016; 5.724456337122263E-4; 1.857177734375; -1.6923828125; 0.7705078125;0
292;2150616577; 0.9999986197316133; -8.119918325519282E-4; 7.409775940357897E-4; -0.0012458556646229857; -0.1677368652744229; -0.011793963562077918; 0.004492598139892497; 1.8564453125; -1.688720703125; 0.772216796875;0
293;2150633244; 0.9999968969447643; -0.0018300685695409324; 5.01590294448219E-4; -0.001614111845451516; -0.1690575068768141; -0.005844089373350002; 0.004888138967886873; 1.85791015625; -1.68994140625; 0.767822265625;0
294;2150649911; 0.9999962728258682; -0.002250464867463081; -1.4000665733110432E-4; -0.0015395260270170685; -0.16614655788363758; -0.0033061680535277447; 0.0011417184207880345; 1.85888671875; -1.683837890625; 0.76806640625;0
295;2150666578; 0.9999908543628332; -0.0037833115393094974; -0.001080775749149811; -0.0016762065110115245; -0.16439025251600764; -0.0071718303536386085; 0.004481599032198337; 1.863525390625; -1.68115234375; 0.760498046875;0
296;2150683245; 0.9999833605439142; -0.005082044960403209; -0.0023591442393517234; -0.0013732781139729755; -0.16534320411976156; -0.016932970777432603; 0.01212312633203929; 1.864501953125; -1.676025390625; 0.756103515625;0
297;2150699912; 0.9999875565443992; -0.0039625756612717555; -0.003015082015391291; -3.066446333555573E-4; -0.16797131280568794; -0.026789435241069172; 0.015222663668362325; 1.86572265625; -1.674072265625; 0.744384765625;0
298;2150716579; 0.9999934765857759; -0.0012058570513177047; -0.0033520536046062204; 5.970186739199801E-4; -0.17274310052856875; -0.03179683536493498; 0.011683607179198368; 1.869384765625; -1.671630859375; 0.73828125;0
299;2150733246; 0.9999894635007827; 0.0017301474540394324; -0.003994782891489337; 0.0014564294881123099; -0.1721831961663069; -0.030795561384186414; 0.009407822772252713; 1.86474609375; -1.671875; 0.731201171875;0
300;2150749913; 0.9999743415283912; 0.004727504635994417; -0.004911962879145277; 0.0021999103279382037; -0.17532391130749225; -0.033336519873181245; 0.01442269297600561; 1.866455078125; -1.678955078125; 0.7275390625;0
301;2150766580; 0.999946864641993; 0.007564976673232332; -0.006417972333878141; 0.002801544520921851; -0.18376150738109784; -0.03703382362180063; 0.02869279158313282; 1.863037109375; -1.68603515625; 0.72412109375;0
302;2150783247; 0.9999057981300095; 0.010301617081834635; -0.008557859342571623; 0.0030057602966522268; -0.19148085580997024; -0.03602462689773425; 0.04349106593446039; 1.8583984375; -1.69287109375; 0.7177734375;0
303;2150799914; 0.9998562550794083; 0.012666570202932131; -0.010757439507824365; 0.0033622422742640716; -0.19717230031495597; -0.02077261232661945; 0.05165992932795707; 1.849609375; -1.700439453125; 0.71044921875;0
304;2150816581; 0.9998227350618555; 0.013288309791161038; -0.012704873237798663; 0.004062692744501772; -0.20034708084737285; -0.002408542658891022; 0.0522151212860508; 1.843505859375; -1.7099609375; 0.698486328125;0
305;2150833248; 0.9998107173729714; 0.012313511722327308; -0.014319544090288325; 0.004675201841050692; -0.20612849690529747; 0.004856646055061426; 0.05222110237008405; 1.839599609375; -1.7197265625; 0.692626953125;0
306;2150849915; 0.999795273868087; 0.010671253988384047; -0.0165494090595335; 0.004653144005140497; -0.21214519411293073; 0.003259594881445314; 0.06271971210811372; 1.831298828125; -1.730224609375; 0.674072265625;0
307;2150866582; 0.9997608345275476; 0.009680074057571028; -0.019005660019579585; 0.00483268023376976; -0.21307430053002896; 0.002403655030355986; 0.07019893628021902; 1.82275390625; -1.740234375; 0.65087890625;0
308;2150883249; 0.999705562558059; 0.009966821570219705; -0.021273947623950306; 0.006072051610098161; -0.20974881944565665; 0.002960025139850252; 0.06729886277496436; 1.810302734375; -1.752685546875; 0.630126953125;0
309;2150899916; 0.9996656423435629; 0.010360487247743931; -0.022597598931238104; 0.007114235332345454; -0.2039744892070538; -3.4945358559706867E-4; 0.06660883777634989; 1.794189453125; -1.765380859375; 0.600830078125;0
310;2150916583; 0.9996328631880363; 0.010700058380575788; -0.023782816661988834; 0.007350184811503069; -0.20451529256797352; -0.003911295956609001; 0.07204659226376182; 1.7763671875; -1.77880859375; 0.578125;0
311;2150933250; 0.9995896286850584; 0.011281433075881147; -0.02512355403460307; 0.00788102313736977; -0.20169468576097577; 0.0010382042441824811; 0.0773943287297503; 1.755859375; -1.791259765625; 0.5517578125;0
312;2150949917; 0.9995498690603609; 0.011541099392052865; -0.026131049179865546; 0.009166818150124767; -0.19416997301261238; 0.009963051426492857; 0.07576698501707524; 1.73193359375; -1.808349609375; 0.521240234375;0
313;2150966584; 0.9995326974583594; 0.01095661634474808; -0.026606200703626216; 0.010317429622160703; -0.18655859595552524; 0.014098887138782766; 0.0760780488669496; 1.700927734375; -1.8232421875; 0.49560546875;0
314;2150983251; 0.9995323159633499; 0.00998482115731545; -0.026786313729216627; 0.010860298715898109; -0.18462476565824404; 0.01343644624874863; 0.08220804482015859; 1.66796875; -1.83935546875; 0.471923828125;0
315;2150999918; 0.9995101586864018; 0.010104288422469354; -0.027239318478688674; 0.011634670901064405; -0.18258632192795415; 0.015197083769663063; 0.08626476509618752; 1.632568359375; -1.8544921875; 0.44482421875;0
316;2151016585; 0.9994869766888135; 0.009855137711581669; -0.027850094483824073; 0.012370607397504507; -0.17407775216227414; 0.015615735493159264; 0.09116859095267513; 1.596923828125; -1.872314453125; 0.42236328125;0
317;2151033252; 0.9994646845582453; 0.0094703284118718; -0.028581759078929583; 0.012796102868161298; -0.1639054871209662; 0.020038487427554603; 0.0959808856367705; 1.551513671875; -1.88623046875; 0.4013671875;0
318;2151049919; 0.9994645341299286; 0.009591903499324872; -0.028275799536182995; 0.01338355574180361; -0.151041735857967; 0.029882775894654934; 0.09390420734030418; 1.50732421875; -1.900634765625; 0.380126953125;0
319;2151066586; 0.9994816359550502; 0.009090110278004493; -0.027662958264137453; 0.013732808300807533; -0.13975509049323048; 0.03287868674837397; 0.08902895023272978; 1.460205078125; -1.912353515625; 0.36376953125;0
320;2151083253; 0.9995078933486949; 0.009039859026757247; -0.02689198866554027; 0.013381817068047752; -0.1282888472596345; 0.03179338343153938; 0.09124123034742666; 1.411865234375; -1.92578125; 0.345458984375;0
321;2151099920; 0.9995249734864822; 0.009529249458963301; -0.026277242838852466; 0.012981806129493347; -0.11632453616470825; 0.03485515481046958; 0.09685323253094014; 1.3583984375; -1.939208984375; 0.337890625;0
322;2151116587; 0.9995353112011571; 0.010335827601882092; -0.025306374744682784; 0.013487762122451674; -0.10083004464216638; 0.03951260353839812; 0.0927157149478415; 1.308349609375; -1.9453125; 0.330078125;0
323;2151133254; 0.9995507740562932; 0.010748820639358392; -0.024285455760832107; 0.013889909172359773; -0.09131562563847095; 0.0418324320219797; 0.09419065497263447; 1.25537109375; -1.957275390625; 0.326171875;0
324;2151149921; 0.9995786628992613; 0.010819781270249462; -0.02316675036616295; 0.013737928783505216; -0.08116293959502946; 0.04692620790110757; 0.09626514297556395; 1.203369140625; -1.966552734375; 0.3271484375;0
325;2151166588; 0.9996091325919749; 0.010893072945666021; -0.02188710690316384; 0.013560145719320295; -0.06661758100422457; 0.0529092023609566; 0.09376027900981027; 1.15234375; -1.978271484375; 0.3310546875;0
326;2151183255; 0.9996516400792073; 0.010126700751884515; -0.020448056045797584; 0.013263688128896445; -0.05731147114626112; 0.05589186493488757; 0.0904211537199199; 1.1025390625; -1.983154296875; 0.333740234375;0
327;2151199922; 0.999688228129286; 0.009166214188588873; -0.01946198292362922; 0.012675104648792625; -0.046127099388009234; 0.054418487127020104; 0.09307818974905592; 1.0537109375; -1.98828125; 0.33935546875;0
328;2151216589; 0.9997285177094104; 0.008665529973588826; -0.01822467736846437; 0.011647343200807736; -0.03430883350452517; 0.05598087592644615; 0.09720961993132868; 1.009521484375; -1.992919921875; 0.345458984375;0
329;2151233256; 0.9997653427068407; 0.008489821952271354; -0.0167093468736626; 0.010861867820400608; -0.024574830792061096; 0.058989345927658074; 0.09482684595896163; 0.967529296875; -1.99365234375; 0.35205078125;0
330;2151249923; 0.9997998686063936; 0.008335193546799263; -0.015074371632511909; 0.010174016073331293; -0.015561528825449594; 0.06265438011031213; 0.09309302184183582; 0.92919921875; -1.9951171875; 0.3623046875;0
331;2151266590; 0.9998331175370377; 0.007811209962477111; -0.013698591365208514; 0.009223376263564844; -0.010675220025743708; 0.06633467802699251; 0.09325939895524658; 0.891845703125; -1.9990234375; 0.37255859375;0
332;2151283257; 0.999870630489162; 0.006729253453943929; -0.01212686604127078; 0.00814730342967418; -0.0036044088101917157; 0.07252109990414321; 0.09349889287178857; 0.862060546875; -1.99853515625; 0.380859375;0
333;2151299924; 0.9999091213097033; 0.005153703540302812; -0.010244891862685512; 0.0070873586192306; -3.6187995843478017E-4; 0.082369538084621; 0.0905370597981779; 0.834716796875; -2.001220703125; 0.39208984375;0
334;2151316591; 0.9999390363734939; 0.002893158268814311; -0.009007183935768272; 0.005694190831662449; 0.0028282857624932593; 0.08032986611576255; 0.09082476337163864; 0.814697265625; -1.998046875; 0.392822265625;0
335;2151333258; 0.999957975855903; 0.0018408563376542675; -0.007861470795936134; 0.004342239863726117; 0.009567563446607218; 0.07422118861016551; 0.09564560918384392; 0.7978515625; -1.99755859375; 0.395263671875;0
336;2151349925; 0.9999728968526966; 0.0017816726526680149; -0.006301148919006795; 0.0033655200022434384; 0.018743083550320536; 0.07050782332870154; 0.09386082164927761; 0.78125; -1.996826171875; 0.399169921875;0
337;2151366592; 0.9999839121153131; 0.0017855414969799033; -0.004784276374619978; 0.002469423351171674; 0.02272910809608425; 0.06821858883071558; 0.09394559932157456; 0.771240234375; -1.99658203125; 0.4013671875;0
338;2151383259; 0.999991807219562; 0.0019820605702028093; -0.003166723723224685; 0.0015584577347348971; 0.025247720297147568; 0.06765143028208162; 0.09212761470915032; 0.760498046875; -1.99267578125; 0.405517578125;0
339;2151399926; 0.9999960352242419; 0.0020452692208720036; -0.0018774196501872844; 4.7085567653482047E-4; 0.0248539804906054; 0.06412864165840519; 0.09412067206681675; 0.75830078125; -1.994873046875; 0.405029296875;0
340;2151416593; 0.9999965701472109; 0.0024255262666441624; -7.753169673196393E-4; -6.126987386555482E-4; 0.02367006535387885; 0.0664758030018178; 0.10143169881602004; 0.75830078125; -1.996826171875; 0.415283203125;0
341;2151433260; 0.9999947633816066; 0.0028471516371604833; 4.7924579388569644E-4; -0.001461937204009445; 0.025918765400404793; 0.08231948318597529; 0.10175159075864826; 0.757080078125; -1.99853515625; 0.4189453125;0
342;2151449927; 0.9999939945837342; 0.0015353181080895728; 0.0019607600842918575; -0.0024101897571175424; 0.025023771346629534; 0.09456541816257022; 0.09592586740200602; 0.759521484375; -2.002685546875; 0.423828125;0
343;2151466594; 0.9999879921419277; -9.594440499522128E-4; 0.0031012118178643804; -0.0036711747890691986; 0.022574561483290175; 0.09456753064096299; 0.09635308877141177; 0.768798828125; -2.00341796875; 0.42431640625;0
344;2151483261; 0.9999761509864025; -0.002467560637168964; 0.004163108919641335; -0.004927182465127022; 0.017176364963722244; 0.09138888866994005; 0.10287978091171487; 0.781494140625; -2.004150390625; 0.422607421875;0
345;2151499928; 0.9999648793167901; -0.0031573651558102767; 0.005330825845703768; -0.005643888201667392; 0.012441390932321248; 0.09347241227062236; 0.10158220879934876; 0.798095703125; -2.00634765625; 0.4208984375;0
346;2151516595; 0.999952606866989; -0.0037318922193806947; 0.006610320525858971; -0.006095954635765011; 0.010474345115273235; 0.0906282529015409; 0.09466904315178874; 0.816650390625; -2.01025390625; 0.413818359375;0
347;2151533262; 0.9999385688049189; -0.004275477083671347; 0.0077686769592026925; -0.0066503060366275854; 0.005954970745882266; 0.08015751526742318; 0.09459506244322091; 0.840087890625; -2.008056640625; 0.4091796875;0
348;2151549929; 0.9999283798154088; -0.003971201920187101; 0.008651949436498886; -0.007253176268975703; 0.0015506707241990554; 0.06741863135125975; 0.09555747598497781; 0.862548828125; -2.009521484375; 0.402587890625;0
349;2151566596; 0.999919864867384; -0.0030966638418828407; 0.009495131036014126; -0.0077792675266878395; -0.004038665465893543; 0.05890019877372038; 0.09881383918992516; 0.886962890625; -2.01171875; 0.404296875;0
350;2151583263; 0.9999103272370848; -0.0020973373963358577; 0.010245570234582781; -0.00836462497905116; -0.012558136729032231; 0.06111756587284241; 0.1085408065344723; 0.912109375; -2.013916015625; 0.402587890625;0
351;2151599930; 0.9998951650552694; -0.0012608125357013722; 0.011186494313228214; -0.009106678638523715; -0.01831271682966228; 0.07191906230658739; 0.11368871962266922; 0.939697265625; -2.015869140625; 0.4033203125;0
352;2151616597; 0.9998810650116368; -2.506421945699666E-4; 0.01192915461251909; -0.00977181047278386; -0.027182980327002004; 0.07664828996192372; 0.11716169445480148; 0.967529296875; -2.018798828125; 0.408935546875;0
353;2151633264; 0.9998658306067854; 1.3626995187282498E-4; 0.012723068846340668; -0.010316284924080267; -0.03162581589570615; 0.07514884966258165; 0.11563916777292196; 0.996337890625; -2.023681640625; 0.41796875;0
354;2151649931; 0.999840491091428; 8.928313338760208E-5; 0.014062286961876282; -0.011010744206278511; -0.037660023164574036; 0.07192810305759659; 0.11022272755224884; 1.030029296875; -2.02587890625; 0.425048828125;0
355;2151666598; 0.9998158052446767; -2.753416164605338E-5; 0.014866023251980056; -0.012139035277986656; -0.04537348144982711; 0.076739976960891; 0.10563982252348963; 1.06103515625; -2.0283203125; 0.43408203125;0
356;2151683265; 0.9997824688872463; -4.92653527780107E-4; 0.015898952104721063; -0.013490571529619244; -0.053236229144312454; 0.08597274802925237; 0.10239736282656246; 1.099853515625; -2.030029296875; 0.44775390625;0
357;2151699932; 0.9997542054960471; -0.0012208713889243772; 0.016574555237371613; -0.014673860592992973; -0.06303441391040313; 0.08643273572085813; 0.10158882456929763; 1.138427734375; -2.03125; 0.45849609375;0
358;2151716599; 0.9997237606255875; -0.0021551467206472608; 0.017624072311170167; -0.015399670724275949; -0.0667159525981671; 0.08938797692308073; 0.09747391534895773; 1.182373046875; -2.029052734375; 0.4697265625;0
359;2151733266; 0.9996813941501674; -0.003578849698338271; 0.01960452371506347; -0.015490793224354706; -0.06873493034837161; 0.09006779732680822; 0.08673482749946818; 1.22119140625; -2.02734375; 0.478759765625;0
360;2151749933; 0.9996429138810827; -0.004537543172374564; 0.021304192625634964; -0.015478591856710078; -0.08129016293899972; 0.08058907195519079; 0.08529903945678234; 1.26953125; -2.020751953125; 0.490234375;0
361;2151766600; 0.9996288754735321; -0.0036671758362297746; 0.021904765855363745; -0.01577480186023356; -0.09358450949850902; 0.06571262089712311; 0.09258268616099524; 1.313232421875; -2.018310546875; 0.50732421875;0
362;2151783267; 0.9996296530779245; -0.0023582114954341094; 0.021933005823777735; -0.015935456736010045; -0.10749055764924009; 0.05736429957200338; 0.0947244740408686; 1.355712890625; -2.009765625; 0.525146484375;0
363;2151799934; 0.9996369663016529; -0.0016904182670229306; 0.021574345528569284; -0.016050722859873193; -0.116555524755706; 0.05214975747389437; 0.09579451207039424; 1.3974609375; -2.0048828125; 0.5458984375;0
364;2151816601; 0.9996263439040881; -0.0015523018956640766; 0.021647923050612975; -0.01661717061852863; -0.1190192138767802; 0.051915798913097985; 0.09480219788677412; 1.436767578125; -1.99658203125; 0.568115234375;0
365;2151833268; 0.9996128766258788; -0.002701547503435653; 0.022537134954614887; -0.01608962624984978; -0.1326677589108554; 0.06267426758420254; 0.08182425489560159; 1.47607421875; -1.98486328125; 0.591796875;0
366;2151849935; 0.9996224072975528; -0.005148495364662775; 0.022343248976389927; -0.015143151894656093; -0.14814979521745245; 0.07235572309398687; 0.08672206798565237; 1.51123046875; -1.97802734375; 0.615478515625;0
367;2151866602; 0.9996268424815484; -0.007397720584215839; 0.02129964620697056; -0.01541994137424785; -0.14636922127279556; 0.06926933563443916; 0.0924494096529381; 1.54638671875; -1.96337890625; 0.63232421875;0
368;2151883269; 0.9996177029193873; -0.009322749068535419; 0.020940629756314524; -0.0154604134932263; -0.1449063842225438; 0.0640720377614933; 0.09276020519546505; 1.577392578125; -1.9462890625; 0.6455078125;0
369;2151899936; 0.999617864758538; -0.011000279563456977; 0.020595796098292457; -0.01479633360615479; -0.14932057636865598; 0.05316263735534588; 0.09181749691819496; 1.614013671875; -1.92626953125; 0.6591796875;0
370;2151916603; 0.9996339625109363; -0.012036712140985423; 0.019946944624307215; -0.013754197747373964; -0.15608215832298813; 0.042306351220225726; 0.09131722529773281; 1.64208984375; -1.9091796875; 0.670166015625;0
371;2151933270; 0.9996547156234656; -0.012810789558363317; 0.01934293246267871; -0.012336294678856165; -0.1609331242495279; 0.03559630781594386; 0.0866821798425474; 1.671875; -1.89306640625; 0.680419921875;0
372;2151949937; 0.9996758168213188; -0.013219533840871198; 0.01901887528823121; -0.010572964126955076; -0.17125524014027976; 0.029589588916889623; 0.08177624785223388; 1.691650390625; -1.877685546875; 0.694580078125;0
373;2151966604; 0.9997056880380609; -0.012630875594470029; 0.018512062009055676; -0.009289878698732714; -0.1815009098132242; 0.018493167093798675; 0.07878137797169167; 1.712158203125; -1.862060546875; 0.705078125;0
374;2151983271; 0.9997395311538402; -0.011548428098290403; 0.01801753423320465; -0.00792919396369035; -0.1942203171206449; 0.014934753998896669; 0.07231092556468685; 1.728271484375; -1.8466796875; 0.71728515625;0
375;2151999938; 0.9997716099943847; -0.010420293783130863; 0.01734497578274218; -0.006877291749315951; -0.20121408390470502; 0.01323481884052654; 0.06712132627961145; 1.740478515625; -1.83544921875; 0.7314453125;0
376;2152016605; 0.9997855792358052; -0.009777480169539214; 0.0170479614496357; -0.006524066528736938; -0.2036742991436759; 0.010530890328024883; 0.06414165126017637; 1.75146484375; -1.82470703125; 0.745361328125;0
377;2152033272; 0.9997907103387378; -0.009367348791994655; 0.016856581023017576; -0.0068296393159292266; -0.20684545834106965; 0.009377535700569425; 0.059213708776150245; 1.764404296875; -1.8115234375; 0.7607421875;0
378;2152049939; 0.9997864681174004; -0.010235956491129319; 0.016322099003894048; -0.007472111358466371; -0.20708385133872323; 0.012069813948069186; 0.05519022815487095; 1.771728515625; -1.801513671875; 0.780517578125;0
379;2152066606; 0.9997713158355851; -0.012116809581161583; 0.015438216549398693; -0.008494729408900949; -0.1943182661290691; 0.014705390706667893; 0.05334947673582089; 1.7861328125; -1.78759765625; 0.790771484375;0
380;2152083273; 0.9997535696125575; -0.014402532363161736; 0.014120541561394898; -0.00927240068645857; -0.17677737517313483; 0.015725428995583556; 0.04833285429256701; 1.79541015625; -1.775146484375; 0.800048828125;0
381;2152099940; 0.9997457764452249; -0.01623761783762383; 0.013093129807908667; -0.008561086305315435; -0.167773521853415; 0.009228051039939147; 0.03651336139766571; 1.8076171875; -1.75732421875; 0.807373046875;0
382;2152116607; 0.9997682551924343; -0.016148385486652858; 0.01233926607431256; -0.0070998639703447886; -0.16864169152671682; -0.003843483569065764; 0.025293236137024555; 1.818359375; -1.742919921875; 0.811279296875;0
383;2152133274; 0.9998174144869191; -0.014237905452348945; 0.011653418408238804; -0.005159222463203717; -0.17907377809345468; -0.016613068868236935; 0.015531378425272434; 1.8232421875; -1.73388671875; 0.81787109375;0
384;2152149941; 0.9998793717470353; -0.010882431932756037; 0.010310495949803935; -0.004063041133433698; -0.18396955052867145; -0.027490611022846723; 0.01559194101744489; 1.830078125; -1.72509765625; 0.82568359375;0
385;2152166608; 0.9999310970831143; -0.007411505429885418; 0.008383816499247347; -0.003547152989244518; -0.18417691104509418; -0.03296717361309878; 0.019408133760932304; 1.82763671875; -1.716064453125; 0.83203125;0
386;2152183275; 0.9999669099465618; -0.004311258372230509; 0.006401341442274653; -0.002571943022690315; -0.18680228122289988; -0.03151497858004253; 0.02548267888391329; 1.832275390625; -1.711181640625; 0.837646484375;0
387;2152199942; 0.9999862987171753; -0.0015648946634026495; 0.0048749041081040815; -0.0010903176387747073; -0.18440896403716897; -0.016718790512378002; 0.02554758382863282; 1.8330078125; -1.7060546875; 0.84619140625;0
388;2152216609; 0.9999873399412227; -4.113690661649849E-4; 0.005009902306371662; -2.2718197425225517E-4; -0.17782678829848625; -0.003802273093571973; 0.02018221561328644; 1.83251953125; -1.70849609375; 0.855712890625;0
389;2152233276; 0.9999837912171529; 5.290285974353659E-4; 0.005659335485334746; -3.306865238174584E-4; -0.17972479315591042; -0.007874341972935892; 0.016625963719046313; 1.83203125; -1.71044921875; 0.865234375;0
390;2152249943; 0.9999827533591141; 0.001366260234395289; 0.005680813063923707; -5.955503586372313E-4; -0.18590797391055167; -0.00750337644291503; 0.004278293821276428; 1.829833984375; -1.71240234375; 0.876708984375;0
391;2152266610; 0.999992442734362; 0.0018975498587863598; 0.003393143600932139; -1.8846764240243455E-5; -0.1776224448145425; 0.0016133408154848108; -0.01816691812869419; 1.829345703125; -1.708251953125; 0.8818359375;0
392;2152283277; 0.9999975516659803; -0.0013273048579949126; 0.0014978911070644837; -9.440583088040633E-4; -0.1422032504455056; 0.01338045010355559; -0.027563406614611922; 1.824951171875; -1.708740234375; 0.8876953125;0
393;2152299944; 0.999984675794621; -0.005265294987811586; 6.720151524492873E-4; -0.0015726538884380805; -0.146000840690644; -7.474074163940012E-4; -0.02097342361948846; 1.83056640625; -1.705322265625; 0.886474609375;0
394;2152316611; 0.9999773606398389; -0.006532245837756329; 0.001014772622339247; -0.0012562677349559626; -0.16851153970754354; -0.016687448515778323; -0.0029594588819696326; 1.830078125; -1.7021484375; 0.882080078125;0
395;2152333278; 0.9999864468696603; -0.004978398406296117; 0.0012012423568623922; -9.373596429687604E-4; -0.16758636043080624; -0.03378427909118354; -0.0016190196982012461; 1.8330078125; -1.701171875; 0.8779296875;0
396;2152349945; 0.9999962667299084; -0.0016949468570105763; 0.0020911626604548793; -4.698086050366479E-4; -0.15858333698263846; -0.04905313907212757; -0.011114319377672674; 1.834716796875; -1.699951171875; 0.878662109375;0
397;2152366612; 0.9999967595466643; 0.0012473766373932438; 0.002179847584635214; 4.1618770155898993E-4; -0.16399152678688086; -0.05188279468725579; -0.012196910792170336; 1.83203125; -1.69873046875; 0.884521484375;0
398;2152383279; 0.9999894045238727; 0.004186696323786349; 0.0014180999494122772; 0.0012850705879645097; -0.1665083320611939; -0.04086311530225753; -0.006731053271723693; 1.83251953125; -1.701171875; 0.8916015625;0
399;2152399946; 0.9999818142962227; 0.0057950183874388855; 5.83707697426536E-4; 0.0015646482185613932; -0.1682781734392976; -0.018853009630164078; -0.00333435853536683; 1.830810546875; -1.7001953125; 0.896728515625;0
400;2152416613; 0.9999879329174616; 0.004762045637320508; -2.7516843634348146E-5; 0.0012067243404357275; -0.1698779913798194; 0.00335076512816112; -0.0015728955701068414; 1.8232421875; -1.7080078125; 0.904296875;0
401;2152433280; 0.9999957917888558; 0.002683252227296873; -9.196059367283099E-4; 6.090049140003996E-4; -0.1704953228462608; 0.010375107020874009; -0.001988358476823049; 1.82421875; -1.707275390625; 0.905517578125;0
402;2152449947; 0.999997896344359; 7.045441820790616E-4; -0.001919201256753725; 1.6610505227770966E-4; -0.1679922376280023; 0.008846246375453793; -0.004221570755366314; 1.824462890625; -1.70849609375; 0.903076171875;0
403;2152466614; 0.9999945435611094; -9.722717726155655E-4; -0.0031456138130759735; 2.6953542960966864E-4; -0.17044426033948157; 0.009043131100632915; -0.0039881887659996736; 1.823974609375; -1.70849609375; 0.89453125;0
404;2152483281; 0.9999881589115843; -0.002427653657450818; -0.004191373232841828; 4.700263424829987E-4; -0.17092674178406156; 0.0045749251319958; -0.001569971561371522; 1.826416015625; -1.707275390625; 0.888427734375;0
405;2152499948; 0.9999828368875523; -0.002503410466698122; -0.005242488173174381; 7.584089347904001E-4; -0.1750774440992266; 0.0029428232905916135; 0.0026255552639503753; 1.829833984375; -1.708984375; 0.87646484375;0
406;2152516615; 0.9999780697583869; -0.002549993672192552; -0.005981018058155722; 0.001258950972320927; -0.177737683187642; 0.0032215228848170184; 0.0018851357611686503; 1.828369140625; -1.71044921875; 0.86328125;0
407;2152533282; 0.9999668477277649; -0.003528209701708404; -0.007251361609704813; 0.001128244877244833; -0.1788651112755222; 5.323071228172833E-4; 0.008411170097361163; 1.831298828125; -1.71044921875; 0.850341796875;0
408;2152549949; 0.9999600787433459; -0.003413654635603308; -0.008117967536400395; 0.0015121126638264482; -0.18094320826810062; -0.008322616159318166; 0.020893116978852107; 1.833740234375; -1.7109375; 0.832763671875;0
409;2152566616; 0.9999485837206589; -0.0010329349731143245; -0.009855099760334614; 0.0021540587511730274; -0.19298374640563; -0.02388774072868595; 0.04058926546900923; 1.8369140625; -1.71533203125; 0.81396484375;0
410;2152583283; 0.9999118923684562; 0.0018875318422501841; -0.012786245012876523; 0.0030259977111675718; -0.20182734436717675; -0.026970709486581427; 0.04686034538356776; 1.8369140625; -1.717041015625; 0.79443359375;0
411;2152599950; 0.9998564556312752; 0.005036614219864469; -0.015466984877040605; 0.004740572589617021; -0.20432175649380827; -0.027459251902512468; 0.0467441688685052; 1.835693359375; -1.722412109375; 0.77392578125;0
412;2152616617; 0.9997892878086532; 0.008210266811123162; -0.017690518863658956; 0.0064044550346341045; -0.20890379345384932; -0.03451921530555797; 0.046965836714189926; 1.828857421875; -1.7314453125; 0.75244140625;0
413;2152633284; 0.9997007552991721; 0.011995293771472779; -0.019737713993739574; 0.008058252161736614; -0.22123877487191645; -0.04499304487892305; 0.05230338428642442; 1.820556640625; -1.744873046875; 0.728271484375;0
414;2152649951; 0.9995367874403475; 0.017493412422353735; -0.022881790735536697; 0.009829279118329537; -0.22710449085918089; -0.05200135407100634; 0.060919829308401084; 1.808837890625; -1.761962890625; 0.70849609375;0
415;2152666618; 0.999301834676191; 0.024219961356140955; -0.025826711700543525; 0.01192550407499088; -0.22057508992625258; -0.05004043231463201; 0.06485717181107004; 1.787841796875; -1.786376953125; 0.69189453125;0
416;2152683285; 0.9990717269899622; 0.029745079759066168; -0.0279186543101861; 0.013837026448249747; -0.21065198676711544; -0.03912190827014609; 0.06628524448002691; 1.7626953125; -1.8134765625; 0.678466796875;0
417;2152699952; 0.9989397645094807; 0.032368629796887025; -0.028579992217939013; 0.015962541515610832; -0.20375680942229532; -0.005581208219980233; 0.0694704689147813; 1.7265625; -1.844970703125; 0.67724609375;0
418;2152716619; 0.9989425621273824; 0.031069361403924738; -0.02857526347784826; 0.0182183058900805; -0.19744029341814273; 0.038815266355681895; 0.07135317782615044; 1.688720703125; -1.879150390625; 0.673095703125;0
419;2152733286; 0.9990670581714239; 0.026162980168449423; -0.0279638984237732; 0.01996326953048583; -0.1883964659251999; 0.08029105655501806; 0.07587068694343144; 1.646484375; -1.91015625; 0.670166015625;0
420;2152749953; 0.9992019576046525; 0.01870689610573112; -0.02735504992668464; 0.022298008893806343; -0.18724172292287314; 0.10788321963759766; 0.07660669598499725; 1.59912109375; -1.94384765625; 0.66259765625;0
421;2152766620; 0.9992843995682451; 0.010799506442741441; -0.027193931270211434; 0.023969763081768795; -0.1879325927949957; 0.1100713175151956; 0.07630124515861564; 1.5517578125; -1.967041015625; 0.64453125;0
422;2152783287; 0.999346077647096; 0.0034543437714432967; -0.027515950709343078; 0.023202522643754386; -0.1858910831741843; 0.09145001491038655; 0.08058737059800468; 1.499267578125; -1.98779296875; 0.620361328125;0
423;2152799954; 0.9993515491193273; -0.0016636236287916328; -0.028453934618597878; 0.022001982500284737; -0.18815109183768722; 0.08033755470559596; 0.08648050262954311; 1.456787109375; -1.99755859375; 0.581298828125;0
424;2152816621; 0.9993311183069901; -0.0036755383538074893; -0.02926894587994697; 0.02161331090293711; -0.17977408753809254; 0.06676192460660214; 0.08343684517064179; 1.40234375; -2.00146484375; 0.543701171875;0
425;2152833288; 0.9993476219246623; -0.0036130164816361443; -0.02941306140608646; 0.020643364167387216; -0.16466102898553955; 0.04579624041613436; 0.07784346368834048; 1.353759765625; -2.006103515625; 0.5009765625;0
426;2152849955; 0.9993806010828976; -0.0013597947773254515; -0.02954578657296642; 0.019068603334657652; -0.14408530506785; 0.026446190570763223; 0.07605430862055232; 1.299560546875; -2.011474609375; 0.471435546875;0
427;2152866622; 0.9994213278245389; 0.0023190220292502173; -0.028879826134190243; 0.017820978332360463; -0.121103036189366; 0.019687472314894747; 0.07730413171899077; 1.24609375; -2.010986328125; 0.445556640625;0
428;2152883289; 0.9994514828254288; 0.00652546687321065; -0.027395540953746886; 0.017425156986082435; -0.0996824501278031; 0.021477664406499015; 0.07288572104087675; 1.187255859375; -2.015869140625; 0.433837890625;0
429;2152899956; 0.9994709187613315; 0.008817239666628424; -0.026060747329750472; 0.017348668065764298; -0.0854494240465006; 0.0325189587932427; 0.06869400711724993; 1.129638671875; -2.021484375; 0.43212890625;0
430;2152916623; 0.999485012717422; 0.01019071012806183; -0.025146166022720243; 0.01713269140264989; -0.07141256155829762; 0.04175236016760919; 0.07556901948759001; 1.07177734375; -2.02587890625; 0.429443359375;0
431;2152933290; 0.9995021501490429; 0.011481597629012158; -0.024300132575367065; 0.0165265943299045; -0.06019270194494; 0.05063935995591345; 0.08488205622335374; 1.013671875; -2.030029296875; 0.436279296875;0
432;2152949957; 0.9995355668432715; 0.01174554350017415; -0.02311608183318448; 0.016010608478976507; -0.03849242167703999; 0.06693506466935487; 0.08616782524695553; 0.95654296875; -2.033935546875; 0.448486328125;0
433;2152966624; 0.9996230499731202; 0.009861242926294173; -0.020450234499786224; 0.01543702559721072; -0.02314496493251103; 0.08624081891926023; 0.08208273952320205; 0.904541015625; -2.033935546875; 0.461181640625;0
434;2152983291; 0.9997042204221049; 0.007183584172883423; -0.018308945477113762; 0.01430560394315411; -0.013914153723110955; 0.09330803073222695; 0.0780371085924029; 0.85986328125; -2.033203125; 0.46630859375;0
435;2152999958; 0.9997613328839541; 0.004795270854577788; -0.017123472516828334; 0.012691309487056214; -0.0030057632031324326; 0.08901032144154644; 0.08253273412606449; 0.818603515625; -2.0283203125; 0.47119140625;0
436;2153016625; 0.9997973735589972; 0.0037625911302566206; -0.016019760172503787; 0.011594050911259979; 0.014413265188425346; 0.08194081989238867; 0.08279141775957764; 0.780029296875; -2.026123046875; 0.474365234375;0
437;2153033292; 0.9998278310163082; 0.0031412615174121195; -0.014049912035659418; 0.011706441521400048; 0.014358505633006152; 0.07858283609349682; 0.08488444188020887; 0.7431640625; -2.020263671875; 0.478759765625;0
438;2153049959; 0.9998427551056; 0.0037920711418642228; -0.012538999125221719; 0.011952353752966549; 0.013485446696735879; 0.07933956306338054; 0.08712830379085099; 0.7109375; -2.01318359375; 0.482177734375;0
439;2153066626; 0.9998562629151422; 0.005648277989162037; -0.011373326995929191; 0.011233783786724795; 0.02160332996652881; 0.08234021664683071; 0.08919939229909905; 0.677978515625; -2.008056640625; 0.48876953125;0
440;2153083293; 0.9998743299694606; 0.006655243228339297; -0.010005959901499663; 0.010339863255557857; 0.02918319368561059; 0.08547331664629991; 0.08739387202978238; 0.647216796875; -2.003173828125; 0.4990234375;0
441;2153099960; 0.9998955121963571; 0.006271302994167199; -0.00864919038234313; 0.009737913229749819; 0.03185093604191557; 0.08753673044002255; 0.08597289378215359; 0.616943359375; -2.00146484375; 0.510498046875;0
442;2153116627; 0.9999110379211176; 0.00569054936461541; -0.007846697718990993; 0.0091631450031609; 0.03355708005067208; 0.09112513836886729; 0.08885394162765273; 0.59033203125; -1.995849609375; 0.52001953125;0
443;2153133294; 0.9999270548464133; 0.005347394873501776; -0.007011783567050401; 0.008253801878743196; 0.03784779217982896; 0.09695198541519867; 0.08887580253250002; 0.56884765625; -1.9873046875; 0.5263671875;0
444;2153149961; 0.9999502579761714; 0.004307538949294476; -0.006072712295390304; 0.0066369305379915255; 0.0471474075549318; 0.10249615770877694; 0.08559263906833137; 0.54638671875; -1.983154296875; 0.535888671875;0
445;2153166628; 0.9999745720006005; 0.0020582089987673524; -0.004736416805673993; 0.004917873908131477; 0.050389793872407405; 0.1033156866380158; 0.08265732087606054; 0.533935546875; -1.981689453125; 0.540283203125;0
446;2153183295; 0.999987955331156; -3.394620351460653E-4; -0.003617491902124404; 0.003299653084594484; 0.05147011332251191; 0.09702164446400449; 0.08324685667106688; 0.523193359375; -1.977783203125; 0.542236328125;0
447;2153199962; 0.999993715342981; -0.0010570812574113297; -0.002541947329606387; 0.002233910815100077; 0.05348578582595369; 0.09080399549087545; 0.08145512299557973; 0.516845703125; -1.9736328125; 0.54052734375;0
448;2153216629; 0.9999975824076988; -8.110957770124938E-4; -0.0013992577308491463; 0.0014897584370746342; 0.05378310054103724; 0.08787742890457795; 0.0812822523975166; 0.513916015625; -1.972412109375; 0.5400390625;0
449;2153233296; 0.9999997534071481; -1.652291080238566E-4; -2.2974217652149687E-4; 6.427312947927811E-4; 0.05786918851830494; 0.08052555214837205; 0.0812260947485611; 0.513916015625; -1.97216796875; 0.53955078125;0
450;2153249963; 0.9999986165958075; 0.0011460505390840092; 0.0010964047296899706; -5.012696897134239E-4; 0.059035428044717814; 0.07686855872701182; 0.08051296909602651; 0.5126953125; -1.9736328125; 0.5400390625;0
451;2153266630; 0.9999941785208684; 0.0018281279171117326; 0.0022502241003805605; -0.0017992676816996624; 0.05542794863206085; 0.0793016401061927; 0.08084504385798152; 0.5107421875; -1.97314453125; 0.541748046875;0
452;2153283297; 0.9999888691939564; 0.0018854103263680755; 0.0031278688104538492; -0.002987164675463505; 0.053798307229849684; 0.09062892477886786; 0.08202091665847375; 0.51904296875; -1.978515625; 0.546142578125;0
453;2153299964; 0.9999828153883379; 4.557596849936729E-4; 0.003965586065592941; -0.004293639281451545; 0.04931225636519204; 0.10059121979967253; 0.08280428274390962; 0.52734375; -1.981689453125; 0.545166015625;0
454;2153316631; 0.9999760535904907; -0.0013019620179520186; 0.003854807749808509; -0.005597999437644996; 0.05374396577263972; 0.10833937430195002; 0.08072528461817875; 0.54248046875; -1.98583984375; 0.548828125;0
455;2153333298; 0.9999584856145409; -0.003275519888457451; 0.005479413801141698; -0.0065018490700739515; 0.057710571636281086; 0.11463113063261528; 0.0710850993345365; 0.5595703125; -1.98876953125; 0.54248046875;0
456;2153349965; 0.9999320350091032; -0.005162386884282361; 0.007551347972318324; -0.007228573027332097; 0.04518052543256397; 0.10185394644500119; 0.07444791571888282; 0.58056640625; -1.994384765625; 0.532958984375;0
457;2153366632; 0.9999201232645751; -0.004932220944907639; 0.008677534527741504; -0.007753752744779353; 0.03468798485939295; 0.07951207505370067; 0.08415862769211499; 0.60107421875; -1.997314453125; 0.523193359375;0
458;2153383299; 0.999919422184842; -0.0037659569851107577; 0.008847742934286586; -0.00828759014955549; 0.02768662978191496; 0.06663814692639825; 0.09215617659265021; 0.622802734375; -2.0029296875; 0.51611328125;0
459;2153399966; 0.9999151441973658; -0.0028170230386067585; 0.008754247027846109; -0.009226697401376606; 0.033704558990901995; 0.07405688792064435; 0.09565087620619062; 0.6455078125; -2.008056640625; 0.51318359375;0
460;2153416633; 0.9998935402405724; -0.003625874050653871; 0.010143715090059792; -0.009842066181197984; 0.032118440661885836; 0.09362921089232965; 0.09260337588218931; 0.67529296875; -2.01318359375; 0.507568359375;0
461;2153433300; 0.9998657998609672; -0.005690848655447944; 0.01168830571170526; -0.009968952781451991; 0.016363139839310318; 0.1021702071198075; 0.08964090061038091; 0.70361328125; -2.017822265625; 0.5029296875;0
462;2153449967; 0.9998268262790269; -0.00811427309381052; 0.012445965466081345; -0.011205979144410183; 0.006127815460670087; 0.09699386633839861; 0.08646976261751936; 0.739501953125; -2.02294921875; 0.49072265625;0
463;2153466634; 0.9997675160765795; -0.010415106609355462; 0.013702299270669406; -0.012987930823613715; 0.0012819713945124885; 0.08703171770356281; 0.08639012727125818; 0.77685546875; -2.02490234375; 0.472412109375;0
464;2153483301; 0.9997265869300507; -0.010706276369739698; 0.015046729705486041; -0.014343045585111847; -0.00417871584068891; 0.07282141672452308; 0.09187851149707899; 0.820556640625; -2.025390625; 0.460693359375;0
465;2153499968; 0.9997297816368054; -0.007602091705525199; 0.01653900461795821; -0.014457981753115636; -0.010171460662860014; 0.05748267928393041; 0.09965115120332102; 0.867919921875; -2.02734375; 0.449462890625;0
466;2153516635; 0.9997434988036622; -0.0041809318862140454; 0.01711382569705661; -0.014232827490892441; -0.023744740283117623; 0.057696570661107886; 0.10487986326740159; 0.909423828125; -2.03173828125; 0.44921875;0
467;2153533302; 0.9997273953787938; -0.0025633164046872936; 0.01847867156665695; -0.014039338847458895; -0.03565253759933524; 0.07607081691577829; 0.09394864294369032; 0.953125; -2.034423828125; 0.4501953125;0
468;2153549969; 0.9996815113081713; -0.0017257804150060951; 0.020841043334129897; -0.014126165202017926; -0.05164123029634522; 0.08423597050909983; 0.08656987023887522; 0.9970703125; -2.038818359375; 0.457763671875;0
469;2153566636; 0.9996377164317927; 2.3307123161298016E-4; 0.022367041293966994; -0.014969870693694544; -0.06343312609043239; 0.07639263193713859; 0.09083668745403756; 1.04150390625; -2.042724609375; 0.46923828125;0
470;2153583303; 0.9995900779733922; 0.0030742358667761593; 0.023547704417206026; -0.015991582400221915; -0.07009695899823434; 0.06171177686432474; 0.08762544057848877; 1.084716796875; -2.048095703125; 0.489501953125;0
471;2153599970; 0.9995530061788535; 0.005002972812853113; 0.024524055915434443; -0.016350192148942348; -0.0900373627535316; 0.05630913007413316; 0.08313805419543607; 1.130859375; -2.052734375; 0.515869140625;0
472;2153616637; 0.9995471884407768; 0.007151747306241574; 0.02418590667736967; -0.0164107437003726; -0.10619573324525804; 0.0634031662898943; 0.0846636426329559; 1.169189453125; -2.0546875; 0.544921875;0
473;2153633304; 0.9995265559642406; 0.009619611716200405; 0.023635128519731097; -0.017190337185445662; -0.10563486412286431; 0.07741187274537625; 0.09296404872854315; 1.2099609375; -2.060546875; 0.584228515625;0
474;2153649971; 0.9994803762292052; 0.011427284004438487; 0.02424520804991998; -0.017904317904477662; -0.10998414543036521; 0.10132561364723956; 0.08754163271728828; 1.250732421875; -2.061279296875; 0.623291015625;0
475;2153666638; 0.9994994165173814; 0.009649303255516994; 0.024684398995172555; -0.017276798729635782; -0.13182753874569528; 0.12287120121763345; 0.07890569961431196; 1.287109375; -2.068115234375; 0.670654296875;0
476;2153683305; 0.9995622644938056; 0.004248447316770376; 0.023985617561709253; -0.01679048080298312; -0.14718801904145734; 0.12779754157349735; 0.07192022116523066; 1.318603515625; -2.060546875; 0.70458984375;0
477;2153699972; 0.9995626647210482; 7.736707742701243E-4; 0.02312528280159054; -0.01841472303991654; -0.1387742506200424; 0.1165430260194227; 0.09012008986485921; 1.356201171875; -2.055419921875; 0.732421875;0
478;2153716639; 0.9995219812786393; -1.0622808517771198E-4; 0.023843898671887975; -0.01967907905726035; -0.13939307327524877; 0.1122585949379785; 0.08663918975277772; 1.39501953125; -2.044677734375; 0.758056640625;0
479;2153733306; 0.9995731265631018; -0.0035311449149912633; 0.02311819851467271; -0.017511269682430834; -0.1715570706211824; 0.10762966566090688; 0.07240844736068629; 1.43017578125; -2.03369140625; 0.781005859375;0
480;2153749973; 0.999621691597349; -0.008260646509707953; 0.020199127617423308; -0.016740091122545486; -0.1648861644816118; 0.10214546973221234; 0.06743627465768037; 1.463134765625; -2.0224609375; 0.797119140625;0
481;2153766640; 0.9995567541842441; -0.01317925320712951; 0.020523792319383907; -0.017069750976269785; -0.1508259439957017; 0.08765810704872273; 0.06620070805826762; 1.49462890625; -2.00732421875; 0.802490234375;0
482;2153783307; 0.9995038106050109; -0.014779300768738513; 0.021914161375866704; -0.01713109412857522; -0.166502388740719; 0.06087543690710355; 0.07224641491191999; 1.531494140625; -1.98974609375; 0.809326171875;0
483;2153799974; 0.999519109203644; -0.014300029691796529; 0.020995994845355696; -0.017782791907389354; -0.16749183635762677; 0.04336274453994747; 0.07413731968893292; 1.5615234375; -1.9697265625; 0.813720703125;0
484;2153816641; 0.9995219139515091; -0.014548900365040196; 0.02102223594135901; -0.017387887304268823; -0.17046300354374583; 0.03931421008626548; 0.07004083944799716; 1.59619140625; -1.94921875; 0.824462890625;0
485;2153833308; 0.9995219673128503; -0.015696335591353805; 0.021413807081625873; -0.01584016333009664; -0.19444168486779115; 0.03296153804364751; 0.06493034553698729; 1.623046875; -1.93408203125; 0.83447265625;0
486;2153849975; 0.9995565039583988; -0.017074547560833722; 0.019135943644728103; -0.015135087739490238; -0.19755903769660196; 0.037995956190346326; 0.0653262065555617; 1.650146484375; -1.912353515625; 0.838134765625;0
487;2153866642; 0.9995708770837807; -0.01835526541458158; 0.017547712437780322; -0.014602181539849548; -0.18075605493161662; 0.04486954420811242; 0.06400734589322851; 1.677001953125; -1.88916015625; 0.836669921875;0
488;2153883309; 0.9995713303217408; -0.018556768595655127; 0.018575510526013243; -0.012951924444286613; -0.1798805029983268; 0.040436963753954426; 0.05124055359315202; 1.69482421875; -1.873291015625; 0.841552734375;0
489;2153899976; 0.9995761281481309; -0.018665835556025624; 0.019470270315524677; -0.0109571526058162; -0.19885643106783887; 0.026548899346401998; 0.038594004564106534; 1.7119140625; -1.853759765625; 0.8466796875;0
490;2153916643; 0.9996034698321861; -0.018722253705494636; 0.017956412018280774; -0.010952058394231301; -0.20540205239104176; 0.017326309728984718; 0.02762772982864012; 1.72900390625; -1.840576171875; 0.856689453125;0
491;2153933310; 0.9996229505542789; -0.019457713733371365; 0.015336042021422568; -0.01183891534495807; -0.18765602001950582; 0.019646023028457464; 0.024908309691776143; 1.746826171875; -1.822021484375; 0.858642578125;0
492;2153949977; 0.9996866584248366; -0.01716989159692104; 0.015150904101574896; -0.010110880022977276; -0.1764677373194464; 0.007972385290480114; 0.02259181225052035; 1.76025390625; -1.806884765625; 0.86474609375;0
493;2153966644; 0.9997830871880654; -0.012770442381088556; 0.014553515958359034; -0.00767395252410863; -0.17826251023047776; -0.009679617107647878; 0.02214161748524221; 1.77294921875; -1.7919921875; 0.872314453125;0
494;2153983311; 0.9998678231066362; -0.008483705592511992; 0.013018055183654427; -0.0047846937886665275; -0.18141558193315965; -0.011822765579855827; 0.021104134909679363; 1.774658203125; -1.783203125; 0.880615234375;0
495;2153999978; 0.9999016293897018; -0.00540712066774561; 0.01265331509077858; -0.002718125662513782; -0.18753265506973407; 0.003021616931436968; 0.011201042227023545; 1.775390625; -1.779541015625; 0.8994140625;0
496;2154016645; 0.9999227675204861; -0.0036245012078572197; 0.011832700744577153; -0.0011441932770721586; -0.19356521472044214; 0.008283851347364743; 0.006438732025874316; 1.771484375; -1.776123046875; 0.9130859375;0
497;2154033312; 0.9999484068289474; -0.002054536007710772; 0.009925361693349774; -6.706394702850061E-4; -0.19302615386410035; 9.208041522629825E-4; 1.5654864188742804E-4; 1.7705078125; -1.775634765625; 0.927978515625;0
498;2154049979; 0.9999655005724698; -0.0022400846117287543; 0.007846404771776424; -0.0015535822925908382; -0.1882781298666263; 0.0037660429436051175; -0.004033712800266412; 1.770751953125; -1.77490234375; 0.941162109375;0
499;2154066646; 0.9999688515318286; -0.00317568143617028; 0.006848415335701103; -0.0023043916597688123; -0.18036321964471116; 0.0132664000741365; -0.003752486202661375; 1.767333984375; -1.769775390625; 0.94873046875;0
500;2154083313; 0.9999688357858649; -0.004527397615828863; 0.006019846397764595; -0.0023646516101752946; -0.17658221331636947; 0.014884835347037956; -0.008262063402882974; 1.767822265625; -1.769775390625; 0.95458984375;0
501;2154099980; 0.9999696509081736; -0.004927954541864954; 0.005515512077617024; -0.002447785354228072; -0.17713066297314115; 0.004411142462044843; -0.015455900237692517; 1.767822265625; -1.766357421875; 0.96044921875;0
502;2154116647; 0.9999756081674852; -0.004686534264170122; 0.004906131548972071; -0.0016581133504719459; -0.18240034014349582; -0.004498335137410251; -0.013825516908101625; 1.766845703125; -1.7626953125; 0.96630859375;0
503;2154133314; 0.9999890860363323; -0.0033184660135609223; 0.0031944231929640775; -7.81826068733893E-4; -0.19016067180864052; -0.01244559669639815; -0.003201381008968395; 1.772705078125; -1.7626953125; 0.96533203125;0
504;2154149981; 0.9999994558233866; -8.87414536210912E-4; 5.471316581148468E-4; -3.8669371022648225E-5; -0.19012070867832936; -0.004730071654759069; 0.0023918420877062953; 1.770751953125; -1.76123046875; 0.965576171875;0
505;2154166648; 0.9999975701720638; 0.0011517273335225897; -0.0017234121555086135; 7.503496916471121E-4; -0.1791010300381054; 3.890377754111902E-4; -0.0045213769677392626; 1.7685546875; -1.762451171875; 0.967041015625;0
506;2154183315; 0.9999929422551365; 0.00267598873453026; -0.0024853796610636446; 8.817097868235035E-4; -0.16162084061156562; -0.007476352743095944; -0.01783515246311828; 1.7685546875; -1.7626953125; 0.962646484375;0
507;2154199982; 0.9999919395526444; 0.003086745706675137; -0.002526409075433875; 4.5835342928957084E-4; -0.14927115647167755; -0.007854491690641192; -0.031068897165710825; 1.767333984375; -1.764892578125; 0.963623046875;0
508;2154216649; 0.9999955604990247; 0.0023334214473211268; -0.0018354856601723315; 2.551842116109704E-4; -0.14121754672220355; -0.003701371723875955; -0.037580807757811266; 1.769287109375; -1.763671875; 0.960693359375;0
509;2154233316; 0.9999988719143964; 8.107717423274097E-4; -0.0012577748743377581; -1.296976564351682E-4; -0.14302979077626865; -7.894250957487196E-4; -0.03477799573872265; 1.769287109375; -1.76416015625; 0.963134765625;0
510;2154249983; 0.9999993976348354; -2.2789865623704109E-4; -7.824412589723108E-4; -7.352399916266128E-4; -0.14450079997377274; -0.006308060674388619; -0.02562834979027239; 1.773193359375; -1.761474609375; 0.958251953125;0
511;2154266650; 0.9999990176736652; 1.1571893958967072E-4; -6.218171346219771E-4; -0.0012508414299947648; -0.1473538236947503; -0.018102566608201618; -0.016951218781318327; 1.77197265625; -1.761474609375; 0.959716796875;0
512;2154283317; 0.9999978377462345; 0.0015129124951063777; -5.749394776792817E-4; -0.0013057730410844237; -0.1463517669630802; -0.02310060948281594; -0.02093134121831625; 1.7724609375; -1.760498046875; 0.957763671875;0
513;2154299984; 0.9999931654491927; 0.0035038043019368637; -1.13500455773477E-4; -0.0011745330833692338; -0.14550615930989536; -0.01967954345855631; -0.026056107428892184; 1.7724609375; -1.756591796875; 0.959228515625;0
514;2154316651; 0.9999906798077449; 0.004236570157338332; 3.35550878759916E-4; -7.610364997833741E-4; -0.14959354414010087; -0.013369304998419467; -0.029991554365647547; 1.771240234375; -1.755859375; 0.962646484375;0
515;2154333318; 0.9999880532984781; 0.004881187130938755; -2.460742572861219E-4; 8.197544116106405E-5; -0.1589357583804011; -0.011713500877460849; -0.02762368723350987; 1.773193359375; -1.755859375; 0.96875;0
516;2154349985; 0.999983977084981; 0.005407250934359842; -0.0013432330721691867; 0.0010014666999760835; -0.16158458091118405; -0.005691981869767314; -0.023774723142070152; 1.773681640625; -1.758056640625; 0.973388671875;0
517;2154366652; 0.9999824660832298; 0.005307960582599108; -0.0020719880825372516; 0.001612434786814554; -0.16534016429979445; 0.003751353885396859; -0.01782290308536509; 1.767822265625; -1.759033203125; 0.976318359375;0
518;2154383319; 0.9999853207864375; 0.004231655371458393; -0.0024576430525457137; 0.0023262190544039996; -0.1716996298374256; 0.01462438534238472; -0.013399680216013425; 1.765625; -1.76025390625; 0.973876953125;0
519;2154399986; 0.9999875528420098; 0.0023869655940878254; -0.0032547293576080526; 0.0029331370765706137; -0.18307702020823619; 0.020169475447042225; -0.010143896450188062; 1.76708984375; -1.764404296875; 0.971923828125;0
520;2154416653; 0.9999812675476498; 2.5068448669600396E-4; -0.005387972571339426; 0.002893348000868101; -0.1993002405705241; 0.016361412146664943; 4.3584614398723374E-4; 1.76513671875; -1.766845703125; 0.964599609375;0
521;2154433320; 0.9999587202807118; 3.7418247004841754E-4; -0.008501523475253361; 0.003184622527087622; -0.20919544988778707; 0.009146076017078295; 0.012887381719168776; 1.7666015625; -1.77392578125; 0.95361328125;0
522;2154449987; 0.9999212378646333; 0.002256231540692502; -0.011680092606868255; 0.004000365381962245; -0.2063773378760966; 0.011224936343326702; 0.020397608188039443; 1.770263671875; -1.775146484375; 0.9365234375;0
523;2154466654; 0.9998838670927044; 0.003794101890139581; -0.013900803227163557; 0.004962336972225313; -0.20504467874515214; 0.006075761516656996; 0.024485945645138212; 1.77001953125; -1.78369140625; 0.92138671875;0
524;2154483321; 0.9998286401784964; 0.006489243213545784; -0.016137930885920988; 0.0063361808730064695; -0.21018464764998296; -9.96261404500761E-4; 0.03344216808388638; 1.764892578125; -1.79296875; 0.900390625;0
525;2154499988; 0.9997157591501997; 0.01140646653843299; -0.019082866083655156; 0.008610322286688067; -0.21488141780800438; -0.007122658851428056; 0.04273265698718007; 1.760009765625; -1.80126953125; 0.882080078125;0
526;2154516655; 0.9995618464689924; 0.017279959774676674; -0.021304345019591917; 0.011119485463377432; -0.21618745923310026; -0.01139327909844161; 0.05245442433030385; 1.748779296875; -1.814453125; 0.865234375;0
527;2154533322; 0.9993761816000511; 0.02297345429915773; -0.023137939733831717; 0.013568485285384459; -0.22354778280850973; -0.012804953893949462; 0.057438040515666165; 1.733154296875; -1.83740234375; 0.852783203125;0
528;2154549989; 0.9991796796527207; 0.027125974291190156; -0.025470745221450333; 0.015980939449988966; -0.22991065297290803; -0.0045166196919562505; 0.05489495139188998; 1.71484375; -1.85888671875; 0.847900390625;0
529;2154566656; 0.9990143859192633; 0.029503094945419864; -0.027782596319504017; 0.018109430050287423; -0.22533506089877978; 0.013001805005905668; 0.05084690423444309; 1.683349609375; -1.88525390625; 0.845458984375;0
530;2154583323; 0.9989513783746293; 0.030463996127411103; -0.027919674853165096; 0.019712441235692935; -0.2159033399760689; 0.04281738827936001; 0.04775624913368558; 1.6513671875; -1.91357421875; 0.84228515625;0
531;2154599990; 0.9989434649098774; 0.029962205900417233; -0.026785299447761004; 0.022288289860897263; -0.20917396602935168; 0.07319366957780778; 0.048450436692894575; 1.61083984375; -1.939697265625; 0.8486328125;0
532;2154616657; 0.9990171049340895; 0.025783178403967794; -0.025306485829724546; 0.025683331860369085; -0.1972233950472112; 0.08975909233971717; 0.05515494602454738; 1.56884765625; -1.96875; 0.846923828125;0
533;2154633324; 0.9991094293487279; 0.019820268440281175; -0.023838015305283317; 0.02862261643734643; -0.19235288938115913; 0.08900246583114492; 0.06401815751748008; 1.513671875; -1.999267578125; 0.849609375;0
534;2154649991; 0.9990915932082147; 0.01620525036062137; -0.023986526677952456; 0.03127338771781174; -0.18737896054508069; 0.08547204045266345; 0.06426873948340826; 1.458251953125; -2.026611328125; 0.8427734375;0
535;2154666658; 0.999048344356165; 0.014115248399411445; -0.024580794978012663; 0.033150413573248945; -0.1804763762243584; 0.09121458990771457; 0.05923184435126467; 1.395263671875; -2.051025390625; 0.8359375;0
536;2154683325; 0.999096292284031; 0.010065105560432136; -0.024674415340727927; 0.03311292228047674; -0.17786477962488711; 0.09827604929316452; 0.056107352721582515; 1.3310546875; -2.071044921875; 0.828857421875;0
537;2154699992; 0.9992356832821578; 0.004271373847608395; -0.024919525846942264; 0.02981311544700638; -0.18148611665692352; 0.09606591704607655; 0.056735091997615096; 1.27099609375; -2.08544921875; 0.809326171875;0
538;2154716659; 0.9993648932298779; -1.6473189254456733E-4; -0.02583322346099354; 0.02454440075970088; -0.16990405793428623; 0.08909597546699956; 0.05917365202191062; 1.21923828125; -2.09326171875; 0.78369140625;0
539;2154733326; 0.9994146602666432; -0.00493523398492568; -0.026726112832976243; 0.020777276107882273; -0.15121575190707912; 0.09888383494415874; 0.06335528782043787; 1.17138671875; -2.09912109375; 0.754638671875;0
540;2154749993; 0.9993362009528256; -0.010391456499525664; -0.028228335424286325; 0.0205508193551015; -0.12736254658101104; 0.1201359666510641; 0.06666574930390709; 1.1337890625; -2.097412109375; 0.713623046875;0
541;2154766660; 0.9993271843026116; -0.009218896243733288; -0.027415900109046654; 0.022551254667357915; -0.10522698483335949; 0.10878359369410705; 0.04796125559367166; 1.0908203125; -2.095703125; 0.671630859375;0
542;2154783327; 0.9993852998806868; -0.006111656245121111; -0.02573260043437287; 0.023010939033773548; -0.09294272446648022; 0.08157313193097954; 0.03992413522165499; 1.038330078125; -2.093994140625; 0.640625;0
543;2154799994; 0.9994622149651885; -0.0038770456084414318; -0.024394024748711222; 0.021568053477043495; -0.08209318782998376; 0.05705315810373812; 0.04903972546774246; 0.98583984375; -2.0849609375; 0.61474609375;0
544;2154816661; 0.9995244158616674; 1.454145528361761E-4; -0.023077969460422013; 0.02045307499091814; -0.07291103471678706; 0.0472492855673831; 0.05684116920544554; 0.933837890625; -2.0791015625; 0.602783203125;0
545;2154833328; 0.9995429918649625; 0.004881326784339751; -0.022146055811525678; 0.019988303441183745; -0.05605109669319626; 0.04674373261727101; 0.05674266503302235; 0.883056640625; -2.07421875; 0.595458984375;0
546;2154849995; 0.999570106849405; 0.008426848965832678; -0.02112667831232701; 0.018500085758278828; -0.03150416955358997; 0.05571535688883457; 0.05960386470600383; 0.829833984375; -2.0712890625; 0.603271484375;0
547;2154866662; 0.9996143094298369; 0.00989712210730953; -0.019343005124317473; 0.017295303115700048; -0.013648277027418027; 0.07362853774818064; 0.061750549699702895; 0.780029296875; -2.06689453125; 0.6142578125;0
548;2154883329; 0.9996468529270724; 0.010833481801646394; -0.017139925734227738; 0.0171763806105521; 0.002824354940867378; 0.08657721131836764; 0.06265691750192696; 0.73046875; -2.060791015625; 0.6279296875;0
549;2154899996; 0.999706311454175; 0.009019644249012665; -0.015126438514643903; 0.01664715333539152; 0.010107294334635987; 0.09691110189349866; 0.06141223600416905; 0.685791015625; -2.05517578125; 0.643798828125;0
