DeviceTag:,Xsens DOT 5,,,,,,,,,,,,,,,,,
FirmwareVersion:,1.3.0,,,,,,,,,,,,,,,,,
AppVersion:,2020.1.1,,,,,,,,,,,,,,,,,
Measurement Mode:,Sensor fusion Mode - Orientation (Quaternion),,,,,,,,,,,,,,,,,
StartTime:,2020-08-23 17:35:07.557 +0200,,,,,,,,,,,,,,,,,
© Xsens Technologies B. V. 2005-2020,,,,,,,,,,,,,,,,,,,
PacketCounter,SampleTimeFine,Quat_W,Quat_X,Quat_Y,Quat_Z
1, 125906518, 0.98919016, 0.01876814, 0.14497149, -0.011570242
2, 125923185, 0.9893442, 0.015054446, 0.14429645, -0.012255041
3, 125939852, 0.9896834, 0.012486197, 0.14215228, -0.012798607
4, 125956519, 0.99006706, 0.011434997, 0.13951923, -0.013069031
5, 125973186, 0.9902153, 0.011372773, 0.13847515, -0.013012184
6, 125989853, 0.99016625, 0.011485147, 0.13882343, -0.012927167
7, 126006520, 0.9901041, 0.011505341, 0.13926935, -0.012868751
8, 126023187, 0.99004674, 0.011504315, 0.13967748, -0.012860984
9, 126039854, 0.9899874, 0.011767092, 0.14008254, -0.012792159
10, 126056521, 0.98994434, 0.012119593, 0.14035785, -0.012769971
11, 126073188, 0.98992556, 0.01220556, 0.14047816, -0.01282533
12, 126089855, 0.9898825, 0.012053426, 0.14077786, -0.012995472
13, 126106522, 0.9898065, 0.012040473, 0.14130507, -0.013081548
14, 126123189, 0.98972565, 0.012095787, 0.14187114, -0.013023321
15, 126139856, 0.98969823, 0.012075165, 0.14207117, -0.01294036
16, 126156523, 0.9897195, 0.01208385, 0.14191842, -0.012982796
17, 126173190, 0.98975575, 0.012112799, 0.14169472, -0.012626425
18, 126189857, 0.9897824, 0.012131365, 0.1415454, -0.0121895345
19, 126206524, 0.98979473, 0.0120834485, 0.14144881, -0.012361487
20, 126223191, 0.9897787, 0.011875146, 0.14159456, -0.012179005
21, 126239858, 0.98972887, 0.011749021, 0.14196365, -0.012040634
22, 126256525, 0.9897008, 0.011668079, 0.14218555, -0.011809752
23, 126273192, 0.9896886, 0.011541433, 0.14228188, -0.01180017
24, 126289859, 0.98968595, 0.011356311, 0.14229567, -0.012028098
25, 126306526, 0.9896793, 0.011152583, 0.14238071, -0.011758422
26, 126323193, 0.98964405, 0.011136389, 0.14257246, -0.012398944
27, 126339860, 0.98960036, 0.010935781, 0.14290676, -0.012218448
28, 126356527, 0.9895229, 0.010697319, 0.14341067, -0.0127857225
29, 126373194, 0.98942375, 0.010331162, 0.14408669, -0.013159837
30, 126389861, 0.98936164, 0.0100437, 0.14446776, -0.013859092
31, 126406528, 0.98940533, 0.009712964, 0.14420395, -0.013718389
32, 126423195, 0.9895275, 0.009470569, 0.14330779, -0.014439545
33, 126439862, 0.9896706, 0.009022572, 0.14234647, -0.014435316
34, 126456529, 0.9897484, 0.008613098, 0.14184538, -0.014276802
35, 126473196, 0.98974574, 0.008353199, 0.14186148, -0.014455498
36, 126489863, 0.98974055, 0.008001118, 0.1419702, -0.013935077
37, 126506530, 0.98975337, 0.00773454, 0.14185451, -0.014351232
38, 126523197, 0.9897697, 0.007353967, 0.14180094, -0.013945819
39, 126539864, 0.989725, 0.007196578, 0.14206778, -0.014473495
40, 126556531, 0.98965394, 0.007031644, 0.14254504, -0.014719464
41, 126573198, 0.9896055, 0.006813254, 0.14289227, -0.014716743
42, 126589865, 0.9895835, 0.006683522, 0.14297023, -0.015467469
43, 126606532, 0.98955745, 0.006460573, 0.14313348, -0.015722403
44, 126623199, 0.989493, 0.006426465, 0.14343446, -0.016996624
45, 126639866, 0.98947126, 0.00595251, 0.14377359, -0.015507278
46, 126656533, 0.9894537, 0.0054476405, 0.14404503, -0.014237759
47, 126673200, 0.9893991, 0.0052068555, 0.1443273, -0.0152323805
48, 126689867, 0.9893895, 0.0047270986, 0.14451969, -0.014143129
49, 126706534, 0.98937875, 0.004818937, 0.14436527, -0.016287463
50, 126723201, 0.98948795, 0.004416669, 0.14378615, -0.014830985
51, 126739868, 0.98957336, 0.0043041506, 0.14316559, -0.015155643
52, 126756535, 0.98965645, 0.0037644731, 0.14286903, -0.01242812
53, 126773202, 0.98965263, 0.0036940817, 0.1428951, -0.012453021
54, 126789869, 0.989613, 0.0036141053, 0.14321618, -0.0119228065
55, 126806536, 0.98956025, 0.0035641633, 0.14362422, -0.011403662
56, 126823203, 0.9895363, 0.003633703, 0.14375408, -0.01181128
57, 126839870, 0.98955685, 0.003584018, 0.14363405, -0.011565721
58, 126856537, 0.989569, 0.0035487548, 0.14358886, -0.011090369
59, 126873204, 0.98957473, 0.003567144, 0.14357792, -0.010704173
60, 126889871, 0.98956335, 0.0036794883, 0.14363793, -0.010915281
61, 126906538, 0.9895532, 0.0037032142, 0.14372468, -0.01068146
62, 126923205, 0.98952156, 0.0038781562, 0.14391018, -0.0110539645
63, 126939872, 0.98946124, 0.004105222, 0.1442173, -0.012289288
64, 126956539, 0.9894412, 0.00417612, 0.14432126, -0.012661399
65, 126973206, 0.98944825, 0.0042249695, 0.14423269, -0.01308881
66, 126989873, 0.9894728, 0.0043844436, 0.1440259, -0.013445573
67, 127006540, 0.98947114, 0.0045470167, 0.14398517, -0.013939039
68, 127023207, 0.98944646, 0.0045044394, 0.1442191, -0.013284517
69, 127039874, 0.9894156, 0.0045380876, 0.14436604, -0.013962329
70, 127056541, 0.9894129, 0.0044521596, 0.14437607, -0.014066564
71, 127073208, 0.9894289, 0.004293441, 0.14430115, -0.013760203
72, 127089875, 0.98943555, 0.0042170375, 0.14424825, -0.013860247
73, 127106542, 0.9894413, 0.0041027595, 0.14422014, -0.013769348
74, 127123209, 0.9894404, 0.003965478, 0.14424103, -0.013654708
75, 127139876, 0.9894062, 0.0040556584, 0.14433317, -0.015057528
76, 127156543, 0.9894137, 0.00401536, 0.14424765, -0.015395014
77, 127173210, 0.98942506, 0.004014819, 0.14415048, -0.015577477
78, 127189877, 0.98941696, 0.004020635, 0.14421345, -0.015505792
79, 127206544, 0.9893925, 0.0040597008, 0.14436589, -0.015637113
80, 127223211, 0.98937684, 0.004090002, 0.14445144, -0.015831525
81, 127239878, 0.9893996, 0.00414096, 0.14428309, -0.015931282
82, 127256545, 0.9894423, 0.0042202543, 0.14397109, -0.016080149
83, 127273212, 0.98946565, 0.004312867, 0.14376974, -0.016413746
84, 127289879, 0.9894584, 0.004318264, 0.14384897, -0.016161496
85, 127306546, 0.9894304, 0.004401091, 0.1439953, -0.016542567
86, 127323213, 0.98942757, 0.004444851, 0.1440092, -0.016572965
87, 127339880, 0.98943937, 0.004360226, 0.1439508, -0.01639759
88, 127356547, 0.9894372, 0.0042691235, 0.143943, -0.016624037
89, 127373214, 0.9894201, 0.0040247794, 0.14410153, -0.01632349
90, 127389881, 0.98937154, 0.0039254106, 0.14437029, -0.016913094
91, 127406548, 0.989381, 0.0036684726, 0.14434566, -0.016624482
92, 127423215, 0.98941785, 0.0033813133, 0.1440766, -0.016822722
93, 127439882, 0.9894322, 0.0030346662, 0.1439721, -0.016932337
94, 127456549, 0.98940164, 0.0028229686, 0.1441773, -0.017005458
95, 127473216, 0.9893702, 0.0027003791, 0.14438759, -0.01707698
96, 127489883, 0.9893748, 0.0025668922, 0.14434874, -0.017158354
97, 127506550, 0.98939586, 0.0024174342, 0.14416884, -0.017480437
98, 127523217, 0.9893794, 0.0022630305, 0.14429459, -0.017393408
99, 127539884, 0.9893089, 0.0021920274, 0.14477344, -0.017430745
100, 127556551, 0.989227, 0.0022190309, 0.14527237, -0.017919252
101, 127573218, 0.989197, 0.0020871218, 0.14546733, -0.018013315
102, 127589885, 0.9891803, 0.0019968096, 0.14551881, -0.01851631
103, 127606552, 0.9891619, 0.0019880384, 0.14559999, -0.01885283
104, 127623219, 0.98914737, 0.0019916953, 0.14569382, -0.018895816
105, 127639886, 0.98912567, 0.0020317738, 0.14578338, -0.01933063
106, 127656553, 0.98911, 0.0018809037, 0.14590697, -0.019212065
107, 127673220, 0.98906404, 0.0017440023, 0.14622074, -0.019207122
108, 127689887, 0.98899347, 0.0016990588, 0.14667223, -0.01940475
109, 127706554, 0.98895824, 0.0016075054, 0.1468801, -0.019628782
110, 127723221, 0.9889701, 0.0013506607, 0.14676541, -0.019905966
111, 127739888, 0.98900133, 9.730686E-4, 0.14658289, -0.01972271
112, 127756555, 0.9890007, 6.4292765E-4, 0.14661962, -0.019495744
113, 127773222, 0.98893154, 4.1961076E-4, 0.14703648, -0.019864717
114, 127789889, 0.9888588, 7.509586E-5, 0.14747271, -0.020255735
115, 127806556, 0.988839, -4.4121873E-4, 0.147585, -0.02040039
116, 127823223, 0.9888538, -0.0010147117, 0.14745048, -0.020628257
117, 127839890, 0.98886365, -0.0016392008, 0.14735319, -0.020814326
118, 127856557, 0.9888411, -0.0023262296, 0.147504, -0.020747336
119, 127873224, 0.98879087, -0.0030551194, 0.1478611, -0.020505894
120, 127889891, 0.9887024, -0.0035919533, 0.14830479, -0.021461032
121, 127906558, 0.9886315, -0.0044049663, 0.14881231, -0.021056386
122, 127923225, 0.98852783, -0.005207023, 0.14945579, -0.02118814
123, 127939892, 0.98842275, -0.006027702, 0.15011968, -0.021173565
124, 127956559, 0.9883423, -0.006880026, 0.15065894, -0.020837056
125, 127973226, 0.9882949, -0.0076526697, 0.15089893, -0.021080267
126, 127989893, 0.9882595, -0.008502973, 0.151031, -0.021458626
127, 128006560, 0.9882325, -0.009548918, 0.15115589, -0.021387283
128, 128023227, 0.98816544, -0.01042677, 0.15137614, -0.022492005
129, 128039894, 0.98816085, -0.011584074, 0.15140949, -0.021894598
130, 128056561, 0.9881693, -0.012529246, 0.15114242, -0.02281769
131, 128073228, 0.9882174, -0.013685194, 0.15070435, -0.022960128
132, 128089895, 0.9882577, -0.014853923, 0.15033533, -0.022927748
133, 128106562, 0.98827916, -0.015987052, 0.1500615, -0.023032567
134, 128123229, 0.9883132, -0.017176513, 0.14972311, -0.022919968
135, 128139896, 0.98834217, -0.018361956, 0.1494017, -0.022850119
136, 128156563, 0.98836905, -0.01951182, 0.1490946, -0.022729281
137, 128173230, 0.9884, -0.020614397, 0.14875288, -0.022655021
138, 128189897, 0.98844534, -0.02177272, 0.14830069, -0.02255928
139, 128206564, 0.9884793, -0.022981705, 0.14789091, -0.022559704
140, 128223231, 0.98847413, -0.024150755, 0.14774196, -0.022546783
141, 128239898, 0.988462, -0.025275776, 0.14762945, -0.022576021
142, 128256565, 0.98846304, -0.026478643, 0.14739834, -0.02265725
143, 128273232, 0.988475, -0.027732244, 0.14707354, -0.022745779
144, 128289899, 0.9884831, -0.029066868, 0.14674154, -0.022877265
145, 128306566, 0.988474, -0.030392753, 0.1465134, -0.02300622
146, 128323233, 0.98844296, -0.03176, 0.14641608, -0.023114739
147, 128339900, 0.9883158, -0.03321167, 0.1469141, -0.023353878
148, 128356567, 0.98809075, -0.034716927, 0.148034, -0.023612387
149, 128373234, 0.9878647, -0.036221445, 0.14916193, -0.023714302
150, 128389901, 0.98770964, -0.037766214, 0.14980282, -0.02371976
151, 128406568, 0.9875938, -0.039515592, 0.150105, -0.023782387
152, 128423235, 0.9874355, -0.041493192, 0.15057588, -0.024013989
153, 128439902, 0.98719233, -0.0435019, 0.1515705, -0.024195308
154, 128456569, 0.98690546, -0.045323096, 0.15291332, -0.024111552
155, 128473236, 0.9866878, -0.04717451, 0.15377268, -0.023999792
156, 128489903, 0.9865672, -0.049090892, 0.15393427, -0.024072465
157, 128506570, 0.9864607, -0.05107938, 0.15394868, -0.0242095
158, 128523237, 0.9863008, -0.053033773, 0.15430212, -0.02426926
159, 128539904, 0.9861419, -0.05488808, 0.15466307, -0.024306633
160, 128556571, 0.9860082, -0.056707937, 0.15484852, -0.024374269
161, 128573238, 0.9858929, -0.05861578, 0.15485011, -0.024512468
162, 128589905, 0.9857633, -0.060553487, 0.15490562, -0.02466802
163, 128606572, 0.9856277, -0.06240288, 0.15501757, -0.024771692
164, 128623239, 0.9854892, -0.06419839, 0.15514758, -0.024881389
165, 128639906, 0.98537827, -0.06611669, 0.1550292, -0.024991093
166, 128656573, 0.9852993, -0.06809863, 0.15465376, -0.025104724
167, 128673240, 0.9852123, -0.06993688, 0.15439647, -0.025045615
168, 128689907, 0.9851288, -0.07163682, 0.15416662, -0.024941644
169, 128706574, 0.9850852, -0.07338619, 0.15363519, -0.024854388
170, 128723241, 0.98506564, -0.07523299, 0.15287574, -0.024798013
171, 128739908, 0.98496836, -0.07708232, 0.15256344, -0.024900097
172, 128756575, 0.9847952, -0.07883652, 0.15275617, -0.025074782
173, 128773242, 0.9845985, -0.0806082, 0.15307401, -0.025227392
174, 128789909, 0.9844196, -0.0825414, 0.15317337, -0.025356475
175, 128806576, 0.9842006, -0.084714435, 0.15335391, -0.025603143
176, 128823243, 0.98378617, -0.08713178, 0.1545731, -0.026078472
177, 128839910, 0.9830982, -0.08961639, 0.15738903, -0.026751572
178, 128856577, 0.9822385, -0.09190703, 0.16133116, -0.027076053
179, 128873244, 0.98142934, -0.09425239, 0.16481932, -0.027339177
180, 128889911, 0.98079556, -0.09673046, 0.16706674, -0.027789053
181, 128906578, 0.9802538, -0.099329166, 0.16861774, -0.028361905
182, 128923245, 0.9797527, -0.10186772, 0.16992296, -0.028877683
183, 128939912, 0.97945255, -0.10430427, 0.17017934, -0.028854141
184, 128956579, 0.9793901, -0.10677214, 0.16902462, -0.028732575
185, 128973246, 0.9794158, -0.10927206, 0.16726626, -0.028749555
186, 128989913, 0.97933763, -0.11187991, 0.16595857, -0.028962225
187, 129006580, 0.979125, -0.11439233, 0.16543709, -0.02931526
188, 129023247, 0.97883403, -0.11683852, 0.16540739, -0.029550089
189, 129039914, 0.9785251, -0.11933826, 0.16539827, -0.029840758
190, 129056581, 0.97820747, -0.121958286, 0.16527094, -0.030359775
191, 129073248, 0.9778219, -0.12467687, 0.16540448, -0.031006403
192, 129089915, 0.97737706, -0.12736715, 0.16589311, -0.031483818
193, 129106582, 0.97696245, -0.1301556, 0.16609578, -0.03187814
194, 129123249, 0.9765857, -0.13319325, 0.16582695, -0.032277282
195, 129139916, 0.97620386, -0.13639644, 0.16539247, -0.032673605
196, 129156583, 0.9757489, -0.13953005, 0.16540837, -0.032949794
197, 129173250, 0.97523385, -0.14260954, 0.16578116, -0.03314094
198, 129189917, 0.9747645, -0.14574945, 0.16578421, -0.033269122
199, 129206584, 0.9743321, -0.14909813, 0.16532151, -0.03339983
200, 129223251, 0.97392154, -0.15241289, 0.1646534, -0.033714898
201, 129239918, 0.97359073, -0.15558471, 0.16359654, -0.033924047
202, 129256585, 0.9733818, -0.15871012, 0.16182522, -0.033937424
203, 129273252, 0.9732367, -0.16190343, 0.15951647, -0.03394593
204, 129289919, 0.9731243, -0.16515799, 0.15683606, -0.033979107
205, 129306586, 0.9730321, -0.16818562, 0.15423335, -0.033682343
206, 129323253, 0.9730096, -0.17100497, 0.15143, -0.03284799
207, 129339920, 0.9731451, -0.17378247, 0.14759721, -0.03167506
208, 129356587, 0.9733576, -0.17668454, 0.14296244, -0.030322958
209, 129373254, 0.9734415, -0.17970271, 0.13880853, -0.029166698
210, 129389921, 0.97332615, -0.18259938, 0.13600002, -0.028247625
211, 129406588, 0.9730292, -0.18527523, 0.13463518, -0.027581578
212, 129423255, 0.97255045, -0.1878981, 0.13454592, -0.02715874
213, 129439922, 0.9720886, -0.19061309, 0.13413379, -0.026806798
214, 129456589, 0.9717677, -0.19353415, 0.13234037, -0.026423795
215, 129473256, 0.97156763, -0.19668716, 0.1291689, -0.026197253
216, 129489923, 0.9713543, -0.19997035, 0.12567775, -0.026227333
217, 129506590, 0.97100306, -0.20343076, 0.12275632, -0.026457392
218, 129523257, 0.97050935, -0.2071397, 0.120394625, -0.026647754
219, 129539924, 0.9698622, -0.21102849, 0.11878961, -0.026899958
220, 129556591, 0.9690837, -0.2150037, 0.117879145, -0.027474012
221, 129573258, 0.96820736, -0.21897778, 0.11758529, -0.028236253
222, 129589925, 0.9671792, -0.22331212, 0.11769936, -0.02903326
223, 129606592, 0.9660455, -0.22800784, 0.11790515, -0.029446552
224, 129623259, 0.9648844, -0.23275977, 0.11805522, -0.029735917
225, 129639926, 0.96372414, -0.23755465, 0.117849246, -0.030251091
226, 129656593, 0.9625211, -0.24246722, 0.11754612, -0.03075889
227, 129673260, 0.96126896, -0.24751379, 0.11721301, -0.030987097
228, 129689927, 0.9600079, -0.25249568, 0.116847694, -0.03126589
229, 129706594, 0.95869553, -0.25745443, 0.11667169, -0.03175042
230, 129723261, 0.95729417, -0.26248527, 0.11677307, -0.032458954
231, 129739928, 0.95586914, -0.26767263, 0.116463155, -0.033197943
232, 129756595, 0.95451105, -0.27293998, 0.11519867, -0.033793617
233, 129773262, 0.95321524, -0.27822813, 0.113132395, -0.03422337
234, 129789929, 0.95196825, -0.28347316, 0.11048767, -0.0345263
235, 129806596, 0.95069766, -0.28878924, 0.10753832, -0.034791954
236, 129823263, 0.94941473, -0.29404444, 0.104486786, -0.03510608
237, 129839930, 0.9480699, -0.29907975, 0.10225268, -0.035489
238, 129856597, 0.94666445, -0.30395427, 0.10072258, -0.03596129
239, 129873264, 0.94524544, -0.3087074, 0.09938818, -0.03651037
240, 129889931, 0.9438103, -0.31343743, 0.09801441, -0.037045367
241, 129906598, 0.9423357, -0.3180794, 0.096968114, -0.03776381
242, 129923265, 0.9408189, -0.3225281, 0.09666072, -0.038631737
243, 129939932, 0.93929327, -0.3267367, 0.096938744, -0.03967875
244, 129956599, 0.9377623, -0.3307745, 0.0974935, -0.04105084
245, 129973266, 0.9361705, -0.33468086, 0.09883093, -0.042497665
246, 129989933, 0.9346156, -0.33849934, 0.10009797, -0.043500677
247, 130006600, 0.93333495, -0.34217176, 0.09944751, -0.043755803
248, 130023267, 0.9321707, -0.34590802, 0.09744634, -0.04370208
249, 130039934, 0.9309447, -0.34978044, 0.09540332, -0.04351903
250, 130056601, 0.92969763, -0.35375166, 0.09314149, -0.042975035
251, 130073268, 0.9284449, -0.35777017, 0.09061213, -0.042190783
252, 130089935, 0.927239, -0.3614997, 0.08839619, -0.041619387
253, 130106602, 0.9260523, -0.3652078, 0.085941546, -0.040798075
254, 130123269, 0.9249677, -0.3687931, 0.08286499, -0.039497226
255, 130139936, 0.92390424, -0.37244126, 0.07909996, -0.037840966
256, 130156603, 0.9227308, -0.3762848, 0.075302385, -0.036156993
257, 130173270, 0.9214803, -0.38018563, 0.0716582, -0.03461395
258, 130189937, 0.92021346, -0.38414535, 0.06751114, -0.032891445
259, 130206604, 0.91903406, -0.3880665, 0.06213025, -0.030341372
260, 130223271, 0.91772676, -0.39210674, 0.056995224, -0.027955947
261, 130239938, 0.91613346, -0.3963444, 0.053900152, -0.026562344
262, 130256605, 0.91439885, -0.40060005, 0.05215207, -0.025973804
263, 130273272, 0.9126969, -0.40482664, 0.049620748, -0.025256919
264, 130289939, 0.9111094, -0.4089799, 0.04533586, -0.023670794
265, 130306606, 0.9095629, -0.4130765, 0.04000663, -0.02150869
266, 130323273, 0.90805113, -0.4170361, 0.03406735, -0.019066237
267, 130339940, 0.906557, -0.42088035, 0.027406512, -0.016225375
268, 130356607, 0.90500253, -0.4247167, 0.020393796, -0.013058727
269, 130373274, 0.9033291, -0.42859787, 0.014096904, -0.010092475
270, 130389941, 0.90147465, -0.4326545, 0.009420894, -0.008049113
271, 130406608, 0.8995762, -0.43667877, 0.0056576827, -0.0065058456
272, 130423275, 0.897698, -0.44058058, 0.002031682, -0.00482221
273, 130439942, 0.89587677, -0.44428858, -0.0021579845, -0.0028157365
274, 130456609, 0.8940373, -0.447946, -0.00638292, -9.761247E-4
275, 130473276, 0.8921763, -0.45158482, -0.00962585, 2.597432E-4
276, 130489943, 0.8903025, -0.45520872, -0.012041087, 0.0012947667
277, 130506610, 0.8884772, -0.45869708, -0.014152572, 0.002258255
278, 130523277, 0.88663787, -0.46213725, -0.017016402, 0.0036131318
279, 130539944, 0.88476247, -0.4655471, -0.02079003, 0.005399822
280, 130556611, 0.8828078, -0.46900898, -0.02499534, 0.007507699
281, 130573278, 0.8808467, -0.4724129, -0.029017963, 0.00966549
282, 130589945, 0.8789303, -0.47562602, -0.033413578, 0.012056318
283, 130606612, 0.8769372, -0.47883886, -0.03840564, 0.014820356
284, 130623279, 0.87492096, -0.4819514, -0.043780826, 0.017873434
285, 130639946, 0.8728614, -0.48497343, -0.04965152, 0.021182809
286, 130656613, 0.87079537, -0.4878709, -0.05561131, 0.024598334
287, 130673280, 0.8686699, -0.49073252, -0.061677024, 0.028110389
288, 130689947, 0.8664731, -0.493545, -0.06812794, 0.031570435
289, 130706614, 0.86427623, -0.49612892, -0.07530698, 0.03481301
290, 130723281, 0.86205465, -0.49857223, -0.08277216, 0.03790159
291, 130739948, 0.8598288, -0.50095403, -0.08993284, 0.040641796
292, 130756615, 0.8575668, -0.50322574, -0.09720311, 0.043528423
293, 130773282, 0.85531956, -0.5054045, -0.104093336, 0.046472438
294, 130789949, 0.8530626, -0.5075917, -0.11051575, 0.04920638
295, 130806616, 0.85082716, -0.5096851, -0.116725855, 0.05186171
296, 130823283, 0.84850055, -0.51178473, -0.122983105, 0.05476025
297, 130839950, 0.8460434, -0.5139713, -0.1291284, 0.05805258
298, 130856617, 0.84341985, -0.51629406, -0.135213, 0.061651167
299, 130873284, 0.8407316, -0.5186061, -0.14124933, 0.065319404
300, 130889951, 0.83807343, -0.5209888, -0.14659448, 0.068654865
301, 130906618, 0.83542216, -0.5235522, -0.15100726, 0.07183358
302, 130923285, 0.8327588, -0.5262262, -0.15485063, 0.074967004
303, 130939952, 0.83005375, -0.52890044, -0.15866491, 0.07810591
304, 130956619, 0.82725334, -0.53160596, -0.16253413, 0.08142251
305, 130973286, 0.8245166, -0.5341686, -0.16650984, 0.08432524
306, 130989953, 0.82188904, -0.53636974, -0.17116049, 0.086659744
307, 131006620, 0.81945336, -0.5383822, -0.17549339, 0.08855954
308, 131023287, 0.8174309, -0.5404632, -0.17817125, 0.08922473
309, 131039954, 0.81569993, -0.54239535, -0.18013304, 0.08940322
310, 131056621, 0.8143151, -0.54404783, -0.18146807, 0.089286745
311, 131073288, 0.81303006, -0.5452731, -0.18356027, 0.089246534
312, 131089955, 0.81166023, -0.546218, -0.1864654, 0.089912586
313, 131106622, 0.810371, -0.54705316, -0.18912695, 0.0908998
314, 131123289, 0.8092044, -0.5480459, -0.1909554, 0.0914876
315, 131139956, 0.8084503, -0.5490598, -0.19139715, 0.09115215
316, 131156623, 0.80797595, -0.5501762, -0.1907501, 0.08997475
317, 131173290, 0.8074058, -0.5514967, -0.18989323, 0.08881478
318, 131189957, 0.80655485, -0.55286455, -0.1898723, 0.08808277
319, 131206624, 0.8054238, -0.5541239, -0.19094643, 0.08819816
320, 131223291, 0.80431384, -0.5554022, -0.19178015, 0.0884764
321, 131239958, 0.8031167, -0.5567373, -0.19259103, 0.08919707
322, 131256625, 0.8017461, -0.55801183, -0.19401455, 0.09046848
323, 131273292, 0.8001834, -0.55907863, -0.19645828, 0.09242335
324, 131289959, 0.79842573, -0.55988836, -0.19986121, 0.09537764
325, 131306626, 0.7962656, -0.5609102, -0.20378453, 0.09905955
326, 131323293, 0.79367834, -0.56223565, -0.20816201, 0.10312393
327, 131339960, 0.79106176, -0.56376165, -0.21205248, 0.10690069
328, 131356627, 0.78875417, -0.5651094, -0.21534754, 0.11019887
329, 131373294, 0.7866109, -0.5662712, -0.21845451, 0.11339293
330, 131389961, 0.7843482, -0.5676091, -0.2213096, 0.11679002
331, 131406628, 0.7820824, -0.56890124, -0.22418404, 0.120167196
332, 131423295, 0.77993417, -0.57005954, -0.22691707, 0.123465255
333, 131439962, 0.7779139, -0.57094437, -0.2297053, 0.12691787
334, 131456629, 0.77599293, -0.5717445, -0.23234557, 0.13022661
335, 131473296, 0.7742321, -0.5725381, -0.23468578, 0.13299513
336, 131489963, 0.7727122, -0.5733589, -0.23648284, 0.13509828
337, 131506630, 0.77135146, -0.5741855, -0.23788396, 0.13689172
338, 131523297, 0.7702545, -0.5748501, -0.23893788, 0.13843516
339, 131539964, 0.76916015, -0.5753152, -0.24027418, 0.14026271
340, 131556631, 0.7681171, -0.57576483, -0.24152043, 0.14198339
341, 131573298, 0.7674136, -0.5761292, -0.24228393, 0.14300388
342, 131589965, 0.76686895, -0.57651865, -0.24264956, 0.14373492
343, 131606632, 0.7664823, -0.5768349, -0.24275628, 0.14434642
344, 131623299, 0.7661883, -0.5769956, -0.2428949, 0.14503005
345, 131639966, 0.76608866, -0.57704425, -0.24281874, 0.14548986
346, 131656633, 0.7660226, -0.5772326, -0.242397, 0.14579411
347, 131673300, 0.76593107, -0.57748115, -0.24188873, 0.1461333
348, 131689967, 0.76576895, -0.5776364, -0.24179853, 0.14651822
349, 131706634, 0.7656134, -0.5777533, -0.24181095, 0.1468495
350, 131723301, 0.765593, -0.5779338, -0.24140856, 0.14690775
351, 131739968, 0.76553935, -0.57815087, -0.24097306, 0.14704837
352, 131756635, 0.7653268, -0.5782994, -0.24107745, 0.14739983
353, 131773302, 0.76524603, -0.57830036, -0.24121043, 0.14759758
354, 131789969, 0.7652049, -0.5783847, -0.24108215, 0.1476893
355, 131806636, 0.7651039, -0.57851875, -0.24104704, 0.1477453
356, 131823303, 0.7650057, -0.5785976, -0.24115402, 0.14777048
357, 131839970, 0.7649172, -0.5786505, -0.24129233, 0.14779557
358, 131856637, 0.76479423, -0.57871723, -0.2414758, 0.1478706
359, 131873304, 0.76475143, -0.5787689, -0.24149828, 0.14785342
360, 131889971, 0.76488966, -0.5788178, -0.2412153, 0.14740768
361, 131906638, 0.7650515, -0.57882893, -0.24099131, 0.14688973
362, 131923305, 0.76521814, -0.57882303, -0.24078055, 0.14639013
363, 131939972, 0.76532906, -0.5788441, -0.24060272, 0.14601956
364, 131956639, 0.76552814, -0.5789289, -0.24010834, 0.14545138
365, 131973306, 0.7656801, -0.57897705, -0.23976412, 0.14502746
366, 131989973, 0.7658114, -0.5790146, -0.23954679, 0.14454304
367, 132006640, 0.76597404, -0.5790514, -0.23928536, 0.14396498
368, 132023307, 0.7661771, -0.579121, -0.23883766, 0.14334626
369, 132039974, 0.76633567, -0.5791778, -0.23842321, 0.14295888
370, 132056641, 0.7663652, -0.57925045, -0.2382382, 0.14281493
371, 132073308, 0.7663031, -0.57929486, -0.23828748, 0.14288461
372, 132089975, 0.76637924, -0.5791727, -0.23837642, 0.14282395
373, 132106642, 0.7665277, -0.57907826, -0.23819295, 0.14271632
374, 132123309, 0.7666546, -0.57904077, -0.23796925, 0.14256033
375, 132139976, 0.76676506, -0.5789691, -0.2378638, 0.14243239
376, 132156643, 0.76683825, -0.57887435, -0.23783231, 0.14247596
377, 132173310, 0.76682544, -0.5788854, -0.23778377, 0.14258154
378, 132189977, 0.76674527, -0.5789975, -0.23771465, 0.1426729
379, 132206644, 0.7666479, -0.5792389, -0.23750573, 0.14256425
380, 132223311, 0.7665758, -0.57951325, -0.23723541, 0.14228563
381, 132239978, 0.7665156, -0.57981145, -0.23698117, 0.14181903
382, 132256645, 0.76637423, -0.5801003, -0.2369652, 0.14142758
383, 132273312, 0.7661659, -0.5804013, -0.23700435, 0.14125584
384, 132289979, 0.7659875, -0.58062613, -0.23715208, 0.14105135
385, 132306646, 0.76582503, -0.5807501, -0.23741731, 0.14097713
386, 132323313, 0.7657304, -0.580805, -0.23762631, 0.14091302
387, 132339980, 0.76575834, -0.5807799, -0.2376404, 0.14084055
388, 132356647, 0.7659075, -0.5806771, -0.23748073, 0.1407228
389, 132373314, 0.76620185, -0.5805701, -0.23695922, 0.14044146
390, 132389981, 0.766652, -0.58052856, -0.2359582, 0.1398398
391, 132406648, 0.7672618, -0.58047384, -0.23461036, 0.13898772
392, 132423315, 0.76805955, -0.58033216, -0.23290756, 0.13803352
393, 132439982, 0.7690311, -0.5801742, -0.23069537, 0.13699962
394, 132456649, 0.76998454, -0.5800348, -0.22837597, 0.13611813
395, 132473316, 0.77095026, -0.57980204, -0.22621779, 0.13524346
396, 132489983, 0.7717593, -0.57957953, -0.22443467, 0.13455306
397, 132506650, 0.77238923, -0.57942355, -0.2229343, 0.13410398
398, 132523317, 0.77291673, -0.57929474, -0.22176674, 0.13355581
399, 132539984, 0.77338475, -0.57914376, -0.22088163, 0.13296714
400, 132556651, 0.7738761, -0.5789942, -0.22003017, 0.1321676
401, 132573318, 0.7743924, -0.5788707, -0.21905206, 0.13130574
402, 132589985, 0.7749293, -0.5786759, -0.21810311, 0.13057539
403, 132606652, 0.7756075, -0.5782841, -0.21706326, 0.1300157
404, 132623319, 0.77654225, -0.5777502, -0.21553136, 0.12935658
405, 132639986, 0.77774185, -0.5772181, -0.21324229, 0.12831521
406, 132656653, 0.7792074, -0.57675713, -0.21009971, 0.12667061
407, 132673320, 0.7808737, -0.57633877, -0.20638038, 0.124407046
408, 132689987, 0.7827176, -0.5758603, -0.2022138, 0.12185155
409, 132706654, 0.78464425, -0.5754005, -0.19769078, 0.11902309
410, 132723321, 0.7866057, -0.57490695, -0.19313689, 0.11589498
411, 132739988, 0.7886017, -0.5743076, -0.18872528, 0.11252063
412, 132756655, 0.7906796, -0.573621, -0.18405443, 0.10912736
413, 132773322, 0.7927965, -0.57298255, -0.17899342, 0.10548126
414, 132789989, 0.794908, -0.57231385, -0.17395873, 0.10157185
415, 132806656, 0.797078, -0.57148534, -0.16905265, 0.09742945
416, 132823323, 0.79932994, -0.57059234, -0.16383453, 0.093029
417, 132839990, 0.80174446, -0.5696206, -0.15784407, 0.08845108
418, 132856657, 0.8043428, -0.5684335, -0.15142177, 0.08359173
419, 132873324, 0.8071181, -0.5669904, -0.1446348, 0.07850572
420, 132889991, 0.81001246, -0.5655483, -0.13668022, 0.0731689
421, 132906658, 0.81304604, -0.5641076, -0.12740748, 0.06712817
422, 132923325, 0.8162092, -0.56238514, -0.11769055, 0.060616758
423, 132939992, 0.81951064, -0.56024307, -0.10765895, 0.054218512
424, 132956659, 0.82287437, -0.5577733, -0.097196706, 0.048165463
425, 132973326, 0.8261633, -0.55508995, -0.08694515, 0.042072088
426, 132989993, 0.82936436, -0.5521757, -0.07728383, 0.03583413
427, 133006660, 0.8325734, -0.5488889, -0.06806552, 0.030161515
428, 133023327, 0.835786, -0.54500735, -0.06139823, 0.02567988
429, 133039994, 0.8388943, -0.5409113, -0.05632432, 0.02234107
430, 133056661, 0.8420624, -0.53655124, -0.051710866, 0.019232363
431, 133073328, 0.8452438, -0.53182286, -0.04931212, 0.01720348
432, 133089995, 0.8483219, -0.52687746, -0.049694642, 0.016761033
433, 133106662, 0.8512093, -0.5218118, -0.053224202, 0.017955745
434, 133123329, 0.85397637, -0.51661664, -0.05854887, 0.020089064
435, 133139996, 0.8565735, -0.5114817, -0.06451173, 0.022506328
436, 133156663, 0.85909814, -0.50645286, -0.06957949, 0.024793992
437, 133173330, 0.86170435, -0.50142, -0.07310236, 0.026453616
438, 133189997, 0.8645148, -0.4963002, -0.07470629, 0.026820617
439, 133206664, 0.86753106, -0.49114686, -0.07420805, 0.025654184
440, 133223331, 0.8706973, -0.48591202, -0.07221018, 0.023696752
441, 133239998, 0.87385255, -0.4806507, -0.06986442, 0.021813804
442, 133256665, 0.87703276, -0.47516292, -0.06803995, 0.020112444
443, 133273332, 0.880234, -0.4694209, -0.06700517, 0.018514054
444, 133289999, 0.88345104, -0.4634612, -0.06646993, 0.017317923
445, 133306666, 0.88669133, -0.45730302, -0.06623806, 0.016279753
446, 133323333, 0.89009166, -0.45078447, -0.06562629, 0.0149469245
447, 133340000, 0.893661, -0.44402528, -0.06360172, 0.012903749
448, 133356667, 0.897355, -0.43706316, -0.060206484, 0.010249973
449, 133373334, 0.9010945, -0.42986146, -0.05648498, 0.007595959
450, 133390001, 0.90479904, -0.42245588, -0.05330433, 0.005350585
451, 133406668, 0.9084284, -0.41495636, -0.050582696, 0.0032705748
452, 133423335, 0.91199815, -0.40738747, -0.04790196, 6.146267E-4
453, 133440002, 0.91555685, -0.39963308, -0.045206055, -0.0023955477
454, 133456669, 0.9190723, -0.39168307, -0.04321245, -0.004825269
455, 133473336, 0.92262375, -0.3832773, -0.04274324, -0.006092841
456, 133490003, 0.9261724, -0.37454984, -0.043242358, -0.0068670693
457, 133506670, 0.9298008, -0.36541602, -0.04328057, -0.008276599
458, 133523337, 0.93352205, -0.3559397, -0.041696087, -0.010250078
459, 133540004, 0.9372585, -0.34628147, -0.038545597, -0.012248873
460, 133556671, 0.9409058, -0.33655003, -0.03499689, -0.014341978
461, 133573338, 0.94444, -0.3267279, -0.031755265, -0.016546777
462, 133590005, 0.9478711, -0.3167914, -0.028924316, -0.018628921
463, 133606672, 0.9512214, -0.30670002, -0.026398674, -0.020402845
464, 133623339, 0.95445585, -0.2965649, -0.024054646, -0.022023715
465, 133640006, 0.9575428, -0.2864798, -0.021770706, -0.023823902
466, 133656673, 0.96048737, -0.2764258, -0.019816244, -0.02569724
467, 133673340, 0.96333474, -0.2662844, -0.018153239, -0.027376765
468, 133690007, 0.96605325, -0.2561916, -0.016730519, -0.028763402
469, 133706674, 0.96862733, -0.24617726, -0.01572324, -0.030175785
470, 133723341, 0.97105294, -0.23630822, -0.014891281, -0.031513173
471, 133740008, 0.97335374, -0.22653762, -0.013545582, -0.0328634
472, 133756675, 0.9755446, -0.21680681, -0.011475104, -0.034294028
473, 133773342, 0.97761726, -0.20713913, -0.009571337, -0.03558549
474, 133790009, 0.9795389, -0.19771665, -0.00838963, -0.036624946
475, 133806676, 0.9813228, -0.18850546, -0.0074542696, -0.03762564
476, 133823343, 0.9829974, -0.1794107, -0.0060006636, -0.038624622
477, 133840010, 0.98459584, -0.17025925, -0.0039025266, -0.039596118
478, 133856677, 0.9861, -0.16114429, -0.0016587164, -0.04045541
479, 133873344, 0.9874961, -0.15221362, 5.422243E-4, -0.04102021
480, 133890011, 0.98878646, -0.14349438, 0.0030743484, -0.04124579
481, 133906678, 0.99000263, -0.13476717, 0.005703196, -0.04123206
482, 133923345, 0.99115515, -0.12597452, 0.0080000665, -0.040961273
483, 133940012, 0.99220854, -0.11741184, 0.009959875, -0.040467285
484, 133956679, 0.9931616, -0.1091227, 0.011537459, -0.039868556
485, 133973346, 0.99403524, -0.101023205, 0.012710802, -0.039076332
486, 133990013, 0.99482775, -0.093095906, 0.014034077, -0.038131308
487, 134006680, 0.9955249, -0.08543526, 0.015667627, -0.03722607
488, 134023347, 0.9961426, -0.07802301, 0.01720011, -0.036289174
489, 134040014, 0.99669844, -0.07080421, 0.018689195, -0.035068274
490, 134056681, 0.9971786, -0.0637923, 0.020871518, -0.033612333
491, 134073348, 0.997572, -0.057017595, 0.023420291, -0.032415003
492, 134090015, 0.997911, -0.050548024, 0.025171475, -0.031388033
493, 134106682, 0.99821573, -0.04438252, 0.026040189, -0.03029269
494, 134123349, 0.99847966, -0.038464945, 0.026705364, -0.029085716
495, 134140016, 0.9986871, -0.032641664, 0.02774968, -0.028082062
496, 134156683, 0.99884796, -0.026982032, 0.028836805, -0.027261404
497, 134173350, 0.99897283, -0.021675803, 0.029717002, -0.026462518
498, 134190017, 0.999072, -0.01671326, 0.030306928, -0.02563967
499, 134206684, 0.9991509, -0.011988381, 0.030754441, -0.024661675
500, 134223351, 0.9992152, -0.0074547227, 0.030886957, -0.023657214
501, 134240018, 0.99925965, -0.0033010857, 0.03085782, -0.022743909
502, 134256685, 0.999299, 3.815649E-4, 0.030299928, -0.021982735
503, 134273352, 0.999341, 0.0035165858, 0.029336294, -0.021089096
504, 134290019, 0.9993677, 0.006221869, 0.028695399, -0.020060692
505, 134306686, 0.9993618, 0.00859435, 0.028732685, -0.019407341
506, 134323353, 0.99931645, 0.010720888, 0.02989752, -0.018918388
507, 134340020, 0.99924654, 0.012540796, 0.03195237, -0.018121302
508, 134356687, 0.99918705, 0.013914223, 0.03371996, -0.017167183
509, 134373354, 0.99916875, 0.014843599, 0.03420832, -0.016478783
510, 134390021, 0.9991737, 0.015323519, 0.034067824, -0.016021775
511, 134406688, 0.9991731, 0.015630849, 0.034202687, -0.015463403
512, 134423355, 0.9991621, 0.0158361, 0.03472395, -0.01478968
513, 134440022, 0.99915344, 0.015824735, 0.035229076, -0.014175887
514, 134456689, 0.99914664, 0.01553571, 0.035725687, -0.013728961
515, 134473356, 0.9991394, 0.014973377, 0.036293563, -0.013381338
516, 134490023, 0.99913394, 0.014189658, 0.03686235, -0.013085112
517, 134506690, 0.9991256, 0.013413585, 0.03748251, -0.012784616
518, 134523357, 0.99910897, 0.012609802, 0.03824676, -0.012625526
519, 134540024, 0.9991127, 0.01174209, 0.03846774, -0.012500899
520, 134556691, 0.99914646, 0.010708835, 0.037953664, -0.012306357
521, 134573358, 0.9991641, 0.009667376, 0.037799705, -0.012206725
522, 134590025, 0.9991424, 0.008656173, 0.038567685, -0.012332572
523, 134606692, 0.999104, 0.007670323, 0.039684027, -0.012555367
524, 134623359, 0.999079, 0.006620683, 0.040477347, -0.012615031
525, 134640026, 0.9990709, 0.0055536735, 0.040831216, -0.01262427
526, 134656693, 0.9990736, 0.0045949235, 0.04085332, -0.012727104
527, 134673360, 0.99908096, 0.0037782635, 0.040732946, -0.012799419
528, 134690027, 0.9990884, 0.0030520859, 0.040627055, -0.0127568515
529, 134706694, 0.99908483, 0.002478231, 0.040773515, -0.012699515
530, 134723361, 0.99905795, 0.0020825127, 0.04149314, -0.012542736
531, 134740028, 0.9990091, 0.0018301387, 0.04267327, -0.012514411
532, 134756695, 0.99897826, 0.0017024003, 0.043412358, -0.01244928
533, 134773362, 0.99899036, 0.0016451736, 0.043232687, -0.01211245
534, 134790029, 0.99902, 0.0015038158, 0.04265887, -0.011714499
535, 134806696, 0.9990495, 0.001370936, 0.042080604, -0.011298171
536, 134823363, 0.99905217, 0.0012725665, 0.04217792, -0.0106933275
537, 134840030, 0.9990275, 0.0012901598, 0.04292258, -0.010022128
538, 134856697, 0.99899316, 0.0015759408, 0.043822832, -0.009480281
539, 134873364, 0.99897736, 0.0020116502, 0.044213075, -0.009250217
540, 134890031, 0.99900943, 0.0024565519, 0.043471295, -0.009185246
541, 134906698, 0.9990855, 0.0029757968, 0.041691232, -0.009018365
542, 134923365, 0.9991414, 0.0034782304, 0.04033479, -0.008814239
543, 134940032, 0.9991346, 0.0040058293, 0.04044786, -0.00885286
544, 134956699, 0.99909085, 0.004618404, 0.041368306, -0.009217169
545, 134973366, 0.99905765, 0.005157836, 0.04202823, -0.009543387
546, 134990033, 0.99907106, 0.005539019, 0.04161495, -0.009729146
547, 135006700, 0.9991128, 0.0058315257, 0.040544588, -0.009799075
548, 135023367, 0.99913615, 0.0061087552, 0.03989762, -0.0098952325
549, 135040034, 0.9991328, 0.006394921, 0.0399218, -0.0099527445
550, 135056701, 0.99909824, 0.00667004, 0.040786278, -0.00973309
551, 135073368, 0.9990541, 0.006952765, 0.04189178, -0.009363368
552, 135090035, 0.99902266, 0.0071237623, 0.0426956, -0.008946237
553, 135106702, 0.99901026, 0.0071993303, 0.043049306, -0.008575674
554, 135123369, 0.99901015, 0.007274887, 0.043141175, -0.008043229
555, 135140036, 0.99901354, 0.0073009413, 0.04316778, -0.0074372087
556, 135156703, 0.99901617, 0.0072321766, 0.043207143, -0.0069098305
557, 135173370, 0.9990219, 0.007159577, 0.04316248, -0.0064334557
558, 135190037, 0.9990255, 0.0071007283, 0.043156076, -0.005935679
559, 135206704, 0.99903727, 0.007150269, 0.04292959, -0.005545769
560, 135223371, 0.99905026, 0.007186975, 0.042651046, -0.0052818507
561, 135240038, 0.9990481, 0.0072342176, 0.042707134, -0.005177146
562, 135256705, 0.99902564, 0.007343024, 0.04322022, -0.0051076035
563, 135273372, 0.9989944, 0.007463898, 0.043938443, -0.004903019
564, 135290039, 0.9989708, 0.0076205223, 0.044460442, -0.004748087
565, 135306706, 0.998963, 0.0078124027, 0.044603765, -0.0047590197
566, 135323373, 0.99896336, 0.00797967, 0.04456389, -0.00475816
567, 135340040, 0.9989629, 0.008235548, 0.04454546, -0.004612323
568, 135356707, 0.99895525, 0.008591886, 0.044647556, -0.0046033026
569, 135373374, 0.99895215, 0.009021095, 0.044622093, -0.0047056666
570, 135390041, 0.9989488, 0.009370811, 0.044621076, -0.00474577
571, 135406708, 0.9989427, 0.009730572, 0.04467525, -0.0048185736
572, 135423375, 0.99893314, 0.010213997, 0.044769954, -0.00489276
573, 135440042, 0.9989331, 0.010666307, 0.044660594, -0.0049327943
574, 135456709, 0.9989436, 0.011028372, 0.044337615, -0.0049307016
575, 135473376, 0.9989518, 0.011318822, 0.04408878, -0.0048472863
576, 135490043, 0.9989462, 0.011688254, 0.044138554, -0.0047004474
577, 135506710, 0.99893063, 0.012030366, 0.04440762, -0.004584798
578, 135523377, 0.99891704, 0.012272986, 0.044652153, -0.0045043915
579, 135540044, 0.99892133, 0.012438124, 0.044527315, -0.004346937
580, 135556711, 0.9989322, 0.012568065, 0.04426334, -0.0041631893
581, 135573378, 0.998932, 0.012659776, 0.044252507, -0.00405406
582, 135590045, 0.9989187, 0.012644559, 0.04457172, -0.003885984
583, 135606712, 0.99889857, 0.012533311, 0.045067955, -0.0036864532
584, 135623379, 0.9988815, 0.01237085, 0.04550406, -0.0035199851
585, 135640046, 0.99886614, 0.012113872, 0.045917626, -0.0033587115
586, 135656713, 0.99885684, 0.011686246, 0.046231523, -0.0033302652
587, 135673380, 0.99884945, 0.011062223, 0.04653898, -0.0033766702
588, 135690047, 0.9988484, 0.010129905, 0.046765693, -0.003544033
589, 135706714, 0.9988647, 0.008996887, 0.046589855, -0.00420941
590, 135723381, 0.9988731, 0.007734313, 0.04651328, -0.0054044398
591, 135740048, 0.9988255, 0.0063636946, 0.047534037, -0.006929579
592, 135756715, 0.99871945, 0.0050552413, 0.049595114, -0.008625469
593, 135773382, 0.9985716, 0.0036386407, 0.052261736, -0.010506654
594, 135790049, 0.99842346, 0.0018869952, 0.05464647, -0.012689194
595, 135806716, 0.9982507, -9.334266E-5, 0.05708226, -0.015406883
596, 135823383, 0.99798936, -0.0020783122, 0.060565077, -0.018566359
597, 135840050, 0.9976109, -0.0039841384, 0.06557229, -0.021378003
598, 135856717, 0.9971632, -0.0059591876, 0.071189746, -0.023715243
599, 135873384, 0.99670327, -0.008026112, 0.07644024, -0.025985297
600, 135890051, 0.9962078, -0.010136578, 0.08151082, -0.028694225
601, 135906718, 0.9955962, -0.0121063925, 0.08740491, -0.03165888
602, 135923385, 0.99487525, -0.014045851, 0.094018884, -0.034449358
603, 135940052, 0.9941174, -0.01637121, 0.10048642, -0.036948565
604, 135956719, 0.9933932, -0.019142123, 0.10604037, -0.03948448
605, 135973386, 0.9926562, -0.022191929, 0.11115719, -0.042253777
606, 135990053, 0.99182385, -0.025447987, 0.116589256, -0.04521993
607, 136006720, 0.990924, -0.02911791, 0.12210798, -0.048078444
608, 136023387, 0.98996735, -0.03358899, 0.12752733, -0.050728578
609, 136040054, 0.9889304, -0.038620625, 0.13306221, -0.05309843
610, 136056721, 0.9877915, -0.043564327, 0.13896845, -0.055300154
611, 136073388, 0.9865553, -0.0484745, 0.14518218, -0.057279784
612, 136090055, 0.9852422, -0.053777426, 0.15139785, -0.059028804
613, 136106722, 0.98384356, -0.059661146, 0.1575015, -0.06071
614, 136123389, 0.98241794, -0.065693416, 0.16332087, -0.062175293
615, 136140056, 0.98098665, -0.07168333, 0.16883716, -0.063411444
616, 136156723, 0.9795116, -0.07766034, 0.17417105, -0.06473482
617, 136173390, 0.977988, -0.0836833, 0.1792929, -0.0662627
618, 136190057, 0.9765112, -0.089543305, 0.18390119, -0.06773805
619, 136206724, 0.9750648, -0.09514903, 0.18820617, -0.069094725
620, 136223391, 0.973588, -0.10079117, 0.19236471, -0.070453264
621, 136240058, 0.97214955, -0.10644909, 0.1960399, -0.071848854
622, 136256725, 0.97084796, -0.11184888, 0.1990305, -0.07301414
623, 136273392, 0.96960515, -0.11707106, 0.20167212, -0.07408664
624, 136290059, 0.9682379, -0.12260611, 0.20444193, -0.07541113
625, 136306726, 0.96671385, -0.1283579, 0.20749447, -0.077036925
626, 136323393, 0.9650682, -0.1342043, 0.21074739, -0.078855254
627, 136340060, 0.96344924, -0.14001572, 0.21368505, -0.08062313
628, 136356727, 0.96172786, -0.14572398, 0.21690316, -0.082445614
629, 136373394, 0.9597036, -0.15152192, 0.2210834, -0.0844528
630, 136390061, 0.9574892, -0.15743597, 0.22579835, -0.086276636
631, 136406728, 0.9553707, -0.16290943, 0.23030241, -0.087683626
632, 136423395, 0.95315385, -0.16859198, 0.23499694, -0.08860676
633, 136440062, 0.9506409, -0.17446126, 0.24072294, -0.08887097
634, 136456729, 0.94789726, -0.18015012, 0.24733324, -0.08867428
635, 136473396, 0.9450315, -0.1859602, 0.25415298, -0.08798085
636, 136490063, 0.94213724, -0.1917313, 0.26088297, -0.08692883
637, 136506730, 0.93926215, -0.19729976, 0.26733804, -0.08596398
638, 136523397, 0.9365146, -0.2024542, 0.2732491, -0.08536778
639, 136540064, 0.9340052, -0.2075023, 0.2782567, -0.08455834
640, 136556731, 0.93168604, -0.21241431, 0.28264606, -0.08338315
641, 136573398, 0.9296159, -0.21671382, 0.28650028, -0.082261525
642, 136590065, 0.92764044, -0.22091354, 0.28994286, -0.08132588
643, 136606732, 0.92579484, -0.2253162, 0.2928172, -0.07996727
644, 136623399, 0.92410177, -0.22976391, 0.29514334, -0.07832753
645, 136640066, 0.92245084, -0.23421222, 0.29720014, -0.076819286
646, 136656733, 0.9208246, -0.23859502, 0.2991067, -0.07543047
647, 136673400, 0.91914654, -0.24292134, 0.30111426, -0.07408989
648, 136690067, 0.91712064, -0.24749143, 0.30382997, -0.07297555
649, 136706734, 0.9146434, -0.25246888, 0.30743122, -0.071923874
650, 136723401, 0.9122023, -0.25729457, 0.31088713, -0.07096462
651, 136740068, 0.9098885, -0.26201066, 0.31390333, -0.07012886
652, 136756735, 0.90730983, -0.26719347, 0.3172032, -0.06912801
653, 136773402, 0.9045282, -0.27257666, 0.3208037, -0.06793951
654, 136790069, 0.90174097, -0.2778053, 0.3243891, -0.06677736
655, 136806736, 0.8987767, -0.28316072, 0.32820413, -0.06559473
656, 136823403, 0.89556366, -0.28871065, 0.33238626, -0.06427741
657, 136840070, 0.8924194, -0.29411483, 0.3363283, -0.06298695
658, 136856737, 0.8893326, -0.2994959, 0.33995244, -0.061823774
659, 136873404, 0.88633084, -0.3047037, 0.34332263, -0.060851417
660, 136890071, 0.8835382, -0.3095941, 0.34629503, -0.059928983
661, 136906738, 0.88113827, -0.31399342, 0.3485656, -0.059206963
662, 136923405, 0.87889093, -0.31817934, 0.35051414, -0.058758482
663, 136940072, 0.8769699, -0.3220329, 0.35185087, -0.058476985
664, 136956739, 0.875197, -0.32584763, 0.35277975, -0.05830987
665, 136973406, 0.8735661, -0.3296041, 0.35334197, -0.058249857
666, 136990073, 0.87205964, -0.3331208, 0.35372737, -0.058477636
667, 137006740, 0.87042314, -0.33660772, 0.3543865, -0.058898803
668, 137023407, 0.8690086, -0.34001768, 0.35446817, -0.05970415
669, 137040074, 0.86793387, -0.3430957, 0.35395184, -0.06078325
670, 137056741, 0.86695296, -0.34609252, 0.353221, -0.062029283
671, 137073408, 0.86603147, -0.34909725, 0.35228157, -0.0633912
672, 137090075, 0.8649221, -0.3521945, 0.35166967, -0.06478553
673, 137106742, 0.8636962, -0.35522512, 0.35137224, -0.06619584
674, 137123409, 0.8626107, -0.35812753, 0.35080716, -0.06769056
675, 137140076, 0.8615385, -0.36098415, 0.35021836, -0.06920268
676, 137156743, 0.8605072, -0.3637787, 0.34958428, -0.0705927
677, 137173410, 0.8591407, -0.3668773, 0.3494858, -0.07168076
678, 137190077, 0.8577084, -0.3700526, 0.34946078, -0.07262708
679, 137206744, 0.8564131, -0.37325293, 0.3490436, -0.07353538
680, 137223411, 0.85509086, -0.37630436, 0.34886357, -0.074223205
681, 137240078, 0.8536842, -0.3795923, 0.34863842, -0.0747284
682, 137256745, 0.8520414, -0.3831943, 0.34860465, -0.075248756
683, 137273412, 0.85022736, -0.38670206, 0.34904692, -0.075770676
684, 137290079, 0.84837973, -0.39010134, 0.3496507, -0.07626972
685, 137306746, 0.84651667, -0.39357662, 0.35017136, -0.07672698
686, 137323413, 0.84495103, -0.39671767, 0.35031906, -0.077133775
687, 137340080, 0.8434659, -0.39969435, 0.35045627, -0.07739563
688, 137356747, 0.8419927, -0.40253368, 0.3507183, -0.07753566
689, 137373414, 0.84062785, -0.40521696, 0.35081547, -0.07792864
690, 137390081, 0.83927506, -0.40777704, 0.35096434, -0.07848086
691, 137406748, 0.8380572, -0.41015434, 0.3509394, -0.07921562
692, 137423415, 0.836944, -0.41245762, 0.35069937, -0.080084704
693, 137440082, 0.83600575, -0.41460156, 0.35019666, -0.08100909
694, 137456749, 0.83517206, -0.41652745, 0.34965578, -0.082058765
695, 137473416, 0.83433324, -0.41841373, 0.34917304, -0.083042905
696, 137490083, 0.83355105, -0.4203365, 0.34852028, -0.08392639
697, 137506750, 0.8326313, -0.4223182, 0.3481281, -0.08473189
698, 137523417, 0.8316334, -0.42439502, 0.3478075, -0.08546774
699, 137540084, 0.8305768, -0.4266561, 0.34741163, -0.08609402
700, 137556751, 0.8295362, -0.4290381, 0.34686455, -0.08649399
701, 137573418, 0.82877773, -0.4316967, 0.34536746, -0.08652732
702, 137590085, 0.8288393, -0.43430433, 0.3422382, -0.085313596
703, 137606752, 0.8288887, -0.43748775, 0.33860847, -0.08302195
704, 137623419, 0.8287337, -0.44106823, 0.33501104, -0.08016761
705, 137640086, 0.8285703, -0.4446369, 0.3313338, -0.077377275
706, 137656753, 0.82852286, -0.44808206, 0.32746965, -0.074405566
707, 137673420, 0.8284783, -0.45138177, 0.32369736, -0.071404554
708, 137690087, 0.8283089, -0.4544195, 0.3205228, -0.06835459
709, 137706754, 0.8280041, -0.45720017, 0.31798244, -0.06530362
710, 137723421, 0.82747537, -0.45955554, 0.3164908, -0.06266561
711, 137740088, 0.8268554, -0.4612159, 0.31615654, -0.060292635
712, 137756755, 0.8262705, -0.4622478, 0.31665775, -0.05772384
713, 137773422, 0.82576406, -0.46266612, 0.31789652, -0.054732025
714, 137790089, 0.8254259, -0.46239117, 0.31957108, -0.052351624
715, 137806756, 0.8254785, -0.46163568, 0.32083443, -0.0504306
716, 137823423, 0.82582074, -0.4606334, 0.32163343, -0.0488812
717, 137840090, 0.8260201, -0.4593651, 0.32304567, -0.04812403
718, 137856757, 0.8260973, -0.4580077, 0.3248453, -0.047621626
719, 137873424, 0.8260125, -0.45687914, 0.32663217, -0.04771116
720, 137890091, 0.8256751, -0.45578873, 0.3288749, -0.04856646
721, 137906758, 0.8253981, -0.45444995, 0.33118394, -0.05010551
722, 137923425, 0.8251642, -0.45308292, 0.33334368, -0.051980916
723, 137940092, 0.82502645, -0.45187387, 0.33503023, -0.053817887
724, 137956759, 0.82483995, -0.45105785, 0.33630952, -0.055515967
725, 137973426, 0.8247979, -0.4502842, 0.33720767, -0.056951694
726, 137990093, 0.82501864, -0.4496471, 0.33733988, -0.057998363
727, 138006760, 0.82536507, -0.44934508, 0.3367937, -0.058580607
728, 138023427, 0.82561064, -0.44954965, 0.33588547, -0.058763366
729, 138040094, 0.8258203, -0.44996488, 0.33482942, -0.05866585
730, 138056761, 0.8260484, -0.45033184, 0.3338231, -0.058372967
731, 138073428, 0.8262257, -0.45057565, 0.3331097, -0.05805707
732, 138090095, 0.8264002, -0.45057267, 0.33271524, -0.05785736
733, 138106762, 0.8265424, -0.4504195, 0.33257982, -0.05779826
734, 138123429, 0.8267147, -0.45011666, 0.33255857, -0.05781591
735, 138140096, 0.8267496, -0.4498498, 0.3328261, -0.057855047
736, 138156763, 0.82671064, -0.44957238, 0.33327958, -0.057955634
737, 138173430, 0.8266416, -0.44930604, 0.3337755, -0.058151547
738, 138190097, 0.8265392, -0.4490748, 0.33427516, -0.0585235
739, 138206764, 0.8263887, -0.44884872, 0.3348356, -0.059176803
740, 138223431, 0.82615364, -0.44870883, 0.33544445, -0.06006623
741, 138240098, 0.8258845, -0.44864172, 0.33601937, -0.061045438
742, 138256765, 0.8256416, -0.44863898, 0.33643937, -0.06202995
743, 138273432, 0.8254813, -0.44867077, 0.3366046, -0.063029535
744, 138290099, 0.8253581, -0.44879672, 0.3365664, -0.063943386
745, 138306766, 0.82522124, -0.44917926, 0.33626333, -0.064615816
746, 138323433, 0.8250563, -0.4498014, 0.3357591, -0.06501245
747, 138340100, 0.82492524, -0.4504157, 0.3352353, -0.06512764
748, 138356767, 0.8248174, -0.45097244, 0.33476368, -0.06506533
749, 138373434, 0.8246842, -0.45150575, 0.3344058, -0.06489626
750, 138390101, 0.82446194, -0.4520469, 0.33424836, -0.06476231
751, 138406768, 0.8242008, -0.45255795, 0.3341918, -0.064810194
752, 138423435, 0.82395446, -0.45299318, 0.33416113, -0.06505948
753, 138440102, 0.82372797, -0.45331705, 0.33419552, -0.06549443
754, 138456769, 0.8235341, -0.4534407, 0.33437738, -0.06614368
755, 138473436, 0.82334566, -0.45335627, 0.33479306, -0.066961534
756, 138490103, 0.8231467, -0.45318195, 0.33535016, -0.06779429
757, 138506770, 0.82297677, -0.45298865, 0.33589315, -0.068459384
758, 138523437, 0.82284796, -0.45286185, 0.3363017, -0.06883983
759, 138540104, 0.82278556, -0.452811, 0.33649585, -0.06896997
760, 138556771, 0.82277536, -0.45280614, 0.33653557, -0.06892955
761, 138573438, 0.82280606, -0.45283103, 0.33645836, -0.06877672
762, 138590105, 0.82289344, -0.4528759, 0.3362475, -0.06846444
763, 138606772, 0.82302237, -0.45295054, 0.33591697, -0.0680434
764, 138623439, 0.8231723, -0.45304933, 0.33550414, -0.06760822
765, 138640106, 0.8233671, -0.45306173, 0.33507037, -0.067304246
766, 138656773, 0.82355934, -0.45303485, 0.33465979, -0.06717337
767, 138673440, 0.8237691, -0.45300144, 0.33419737, -0.06712846
768, 138690107, 0.8239693, -0.4529506, 0.3337751, -0.067116424
769, 138706774, 0.82413507, -0.4528371, 0.33352286, -0.06710056
770, 138723441, 0.82430726, -0.45258838, 0.33344, -0.067075714
771, 138740108, 0.824481, -0.45225707, 0.3334705, -0.06702336
772, 138756775, 0.8246437, -0.45191273, 0.3335575, -0.06691377
773, 138773442, 0.82480425, -0.4515598, 0.33368966, -0.066655636
774, 138790109, 0.8249925, -0.451189, 0.33379838, -0.0662931
775, 138806776, 0.8251969, -0.45080227, 0.33388987, -0.06591821
776, 138823443, 0.8254286, -0.45047295, 0.3338375, -0.065532595
777, 138840110, 0.82564676, -0.45025483, 0.33367413, -0.06511394
778, 138856777, 0.8258223, -0.4501257, 0.3334855, -0.06474811
779, 138873444, 0.8259886, -0.45004195, 0.33324093, -0.064464934
780, 138890111, 0.8261424, -0.45000944, 0.33293203, -0.06431732
781, 138906778, 0.8262935, -0.44998932, 0.33259556, -0.06425595
782, 138923445, 0.82642907, -0.44991285, 0.33235306, -0.064302765
783, 138940112, 0.8265115, -0.4498363, 0.3322266, -0.06443239
784, 138956779, 0.8265378, -0.4497471, 0.33223343, -0.0646827
785, 138973446, 0.8265411, -0.44965345, 0.33229807, -0.064957134
786, 138990113, 0.82648987, -0.44958845, 0.3324713, -0.06517338
787, 139006780, 0.82643193, -0.44953498, 0.33265406, -0.06534469
788, 139023447, 0.8263596, -0.449523, 0.3328119, -0.06553742
789, 139040114, 0.8262864, -0.44951227, 0.33296528, -0.065755524
790, 139056781, 0.8262239, -0.44948176, 0.33312106, -0.06596017
791, 139073448, 0.8262399, -0.44940263, 0.33315384, -0.06613278
792, 139090115, 0.82633054, -0.44925424, 0.3330856, -0.066352256
793, 139106782, 0.8264205, -0.44902542, 0.33311838, -0.066615686
794, 139123449, 0.8264815, -0.4486635, 0.3333773, -0.06700032
795, 139140116, 0.82653826, -0.44808558, 0.33392054, -0.0674615
796, 139156783, 0.82665807, -0.4472394, 0.33464158, -0.06803386
797, 139173450, 0.8267994, -0.44611615, 0.33564675, -0.06873493
798, 139190117, 0.8268965, -0.44476268, 0.3370227, -0.069601186
799, 139206784, 0.82695836, -0.44316125, 0.33876607, -0.07060766
800, 139223451, 0.82705235, -0.441401, 0.340613, -0.07163926
801, 139240118, 0.8271064, -0.43980193, 0.34238476, -0.07240166
802, 139256785, 0.8271639, -0.4382491, 0.34412372, -0.07291542
803, 139273452, 0.82739073, -0.43662965, 0.345563, -0.07324911
804, 139290119, 0.82755744, -0.43519548, 0.34698996, -0.0731543
805, 139306786, 0.8280572, -0.43401104, 0.34737492, -0.0727084
806, 139323453, 0.8292266, -0.4325509, 0.34654555, -0.07203702
807, 139340120, 0.8311525, -0.43065256, 0.34450045, -0.071018115
808, 139356787, 0.8336778, -0.42828217, 0.34160545, -0.06972368
809, 139373454, 0.8361949, -0.42546064, 0.33918652, -0.06865793
810, 139390121, 0.83780354, -0.42204687, 0.3394011, -0.06905621
811, 139406788, 0.8399123, -0.41755977, 0.33969393, -0.06927775
812, 139423455, 0.84250444, -0.4128818, 0.33911258, -0.06868632
813, 139440122, 0.84549993, -0.40802664, 0.33774197, -0.06763742
814, 139456789, 0.8487448, -0.4031574, 0.3357206, -0.06624582
815, 139473456, 0.8519899, -0.39851788, 0.33332884, -0.06472035
816, 139490123, 0.85504377, -0.3940239, 0.33110473, -0.06336596
817, 139506790, 0.8579347, -0.38943556, 0.3292717, -0.062195364
818, 139523457, 0.86044544, -0.38511685, 0.3279872, -0.06118085
819, 139540124, 0.86268604, -0.380754, 0.32735994, -0.060289204
820, 139556791, 0.8647201, -0.37633082, 0.32724166, -0.059560407
821, 139573458, 0.8666525, -0.3719367, 0.3272737, -0.05889497
822, 139590125, 0.8686741, -0.36786124, 0.32667375, -0.0580324
823, 139606792, 0.8707232, -0.36406526, 0.32562447, -0.057151955
824, 139623459, 0.87270117, -0.3603833, 0.32453993, -0.056484178
825, 139640126, 0.8746389, -0.35666516, 0.32350639, -0.056039512
826, 139656793, 0.87630856, -0.35315517, 0.32288966, -0.055742696
827, 139673460, 0.8780272, -0.3495634, 0.32221556, -0.055236466
828, 139690127, 0.8799627, -0.34580177, 0.3211334, -0.054407194
829, 139706794, 0.882187, -0.3420252, 0.31928024, -0.053150848
830, 139723461, 0.8844379, -0.33829576, 0.31725478, -0.051723592
831, 139740128, 0.88644725, -0.3345316, 0.3158521, -0.05037337
832, 139756795, 0.88849497, -0.3305941, 0.3144692, -0.048922744
833, 139773462, 0.8909889, -0.32638866, 0.31207797, -0.047081
834, 139790129, 0.8937541, -0.32207096, 0.30894175, -0.045042906
835, 139806796, 0.89659804, -0.31767106, 0.3055493, -0.04285773
836, 139823463, 0.8991493, -0.313511, 0.302617, -0.04079865
837, 139840130, 0.9011985, -0.30968237, 0.3006731, -0.039166946
838, 139856797, 0.90324986, -0.30531612, 0.29911003, -0.038146883
839, 139873464, 0.90554595, -0.3002958, 0.29734787, -0.037328456
840, 139890131, 0.9081464, -0.29496345, 0.29489377, -0.036115598
841, 139906798, 0.9108466, -0.28959572, 0.2920287, -0.034819044
842, 139923465, 0.913558, -0.28430018, 0.28884447, -0.033974353
843, 139940132, 0.91661686, -0.27869138, 0.28469825, -0.033045936
844, 139956799, 0.9198836, -0.27290013, 0.27988064, -0.031725485
845, 139973466, 0.9229875, -0.26708266, 0.27539107, -0.0303412
846, 139990133, 0.9252023, -0.261889, 0.27301404, -0.029634574
847, 140006800, 0.9267345, -0.2572508, 0.27224123, -0.0294931
848, 140023467, 0.9283409, -0.25230756, 0.27136996, -0.029704245
849, 140040134, 0.93010557, -0.246917, 0.27021086, -0.030363347
850, 140056801, 0.932013, -0.24132775, 0.26859587, -0.031128341
851, 140073468, 0.93412685, -0.23538318, 0.26647955, -0.03147179
852, 140090135, 0.93639463, -0.22930926, 0.2637902, -0.031579185
853, 140106802, 0.93871677, -0.22282591, 0.26102906, -0.031988032
854, 140123469, 0.94090563, -0.21605486, 0.258749, -0.032648135
855, 140140136, 0.94295645, -0.20950152, 0.2565839, -0.033272043
856, 140156803, 0.9448259, -0.203171, 0.2547381, -0.03367772
857, 140173470, 0.9465328, -0.19683844, 0.2533144, -0.03409239
858, 140190137, 0.94828457, -0.19022372, 0.25170594, -0.034865804
859, 140206804, 0.95033896, -0.18327229, 0.24896295, -0.035839703
860, 140223471, 0.95248735, -0.17645374, 0.24557848, -0.03637655
861, 140240138, 0.9544674, -0.17013061, 0.24230824, -0.03652742
862, 140256805, 0.9563313, -0.16384599, 0.23926777, -0.036551323
863, 140273472, 0.9577881, -0.15784994, 0.23739298, -0.037014347
864, 140290139, 0.9590624, -0.1517665, 0.23607373, -0.037891667
865, 140306806, 0.96038157, -0.145796, 0.23424962, -0.039218437
866, 140323473, 0.961884, -0.14006639, 0.23139948, -0.040191445
867, 140340140, 0.9635281, -0.13450333, 0.22783394, -0.040179476
868, 140356807, 0.96511513, -0.12909833, 0.22429906, -0.03970507
869, 140373474, 0.9667297, -0.12368898, 0.22045138, -0.039196283
870, 140390141, 0.96841675, -0.11824792, 0.2160418, -0.038890723
871, 140406808, 0.9701095, -0.113019824, 0.211279, -0.038409457
872, 140423475, 0.971732, -0.10812527, 0.20650594, -0.037433352
873, 140440142, 0.97334397, -0.10330187, 0.20154382, -0.036197893
874, 140456809, 0.9748502, -0.098328024, 0.19691959, -0.034946762
875, 140473476, 0.97618693, -0.093285926, 0.19291142, -0.033796158
876, 140490143, 0.9773875, -0.08851141, 0.1892073, -0.03286404
877, 140506810, 0.9786629, -0.083999746, 0.1847731, -0.031969976
878, 140523477, 0.980144, -0.07963768, 0.17908318, -0.030085905
879, 140540144, 0.9816774, -0.07530733, 0.17286304, -0.027510088
880, 140556811, 0.9830589, -0.0711616, 0.16702244, -0.025195746
881, 140573478, 0.9842388, -0.06726355, 0.16191763, -0.023075104
882, 140590145, 0.98524237, -0.063204385, 0.15766841, -0.021053877
883, 140606812, 0.98608655, -0.058767166, 0.15434246, -0.018926976
884, 140623479, 0.986744, -0.05405315, 0.15209444, -0.016790897
885, 140640146, 0.9872732, -0.04954364, 0.15040535, -0.014675364
886, 140656813, 0.9878483, -0.04529019, 0.14813662, -0.0126595665
887, 140673480, 0.98857987, -0.041063372, 0.14464116, -0.010142934
888, 140690147, 0.98939186, -0.036807235, 0.14034504, -0.007245834
889, 140706814, 0.9901899, -0.03281885, 0.1357442, -0.0045424635
890, 140723481, 0.99085486, -0.029099425, 0.1317418, -0.0020306448
891, 140740148, 0.99138904, -0.025289828, 0.12848398, 3.1436607E-4
892, 140756815, 0.9917934, -0.021638323, 0.1259805, 0.0026045612
893, 140773482, 0.9921746, -0.018409595, 0.12340406, 0.0047300663
894, 140790149, 0.99262446, -0.015300846, 0.12007009, 0.0067657125
895, 140806816, 0.9930498, -0.0125395125, 0.11671307, 0.008549661
896, 140823483, 0.99339354, -0.009703865, 0.11390489, 0.010041881
897, 140840150, 0.99364936, -0.0071749464, 0.111701675, 0.011502072
898, 140856817, 0.9939129, -0.004829488, 0.10932299, 0.012755071
899, 140873484, 0.99420726, -0.0024735536, 0.10656799, 0.013755072
900, 140890151, 0.99448276, -5.639312E-4, 0.10387641, 0.014617205
901, 140906818, 0.99470973, 6.340571E-4, 0.10166118, 0.014742983
902, 140923485, 0.9948934, 0.0011467015, 0.09992724, 0.01416906
903, 140940152, 0.9950288, 0.0011018958, 0.09865746, 0.013542477
904, 140956819, 0.99519634, 5.0662336E-4, 0.09700211, 0.013212349
905, 140973486, 0.99539757, -4.173945E-4, 0.09492513, 0.013150044
906, 140990153, 0.99552333, -0.001577385, 0.093571246, 0.013248347
907, 141006820, 0.9954665, -0.0029040026, 0.094121896, 0.013389169
908, 141023487, 0.9953371, -0.004460896, 0.09540779, 0.0134782
909, 141040154, 0.9952357, -0.0060170963, 0.096382424, 0.01343254
910, 141056821, 0.99516433, -0.007562379, 0.09701688, 0.01336289
911, 141073488, 0.995143, -0.008937837, 0.097106904, 0.013452261
912, 141090155, 0.99517345, -0.010219438, 0.09663173, 0.013712776
913, 141106822, 0.99522793, -0.011401367, 0.095886946, 0.014039665
914, 141123489, 0.9952195, -0.012412763, 0.09582283, 0.014223502
915, 141140156, 0.9950946, -0.013381017, 0.0969704, 0.014299274
916, 141156823, 0.99491405, -0.014274329, 0.0986524, 0.014491874
917, 141173490, 0.9947904, -0.014963803, 0.09975844, 0.014712069
918, 141190157, 0.9947256, -0.015547775, 0.10032374, 0.0146493055
919, 141206824, 0.99471956, -0.01609267, 0.10032688, 0.014443538
920, 141223491, 0.9947875, -0.016614536, 0.09957962, 0.014354038
921, 141240158, 0.9949419, -0.016966648, 0.098001994, 0.014085646
922, 141256825, 0.9950912, -0.017187402, 0.096486, 0.013736728
923, 141273492, 0.99515235, -0.017366637, 0.095866114, 0.013420876
924, 141290159, 0.99514097, -0.017521575, 0.095991634, 0.013157627
925, 141306826, 0.9951634, -0.017676802, 0.09578059, 0.012787646
926, 141323493, 0.99520946, -0.017757839, 0.095335595, 0.012404874
927, 141340160, 0.99521935, -0.017747639, 0.09526008, 0.012213277
928, 141356827, 0.99517435, -0.0176168, 0.09574379, 0.012294765
929, 141373494, 0.9950938, -0.017493483, 0.09657317, 0.012483624
930, 141390161, 0.9950287, -0.017276205, 0.09725786, 0.012666809
931, 141406828, 0.9950074, -0.017116383, 0.0974942, 0.01273942
932, 141423495, 0.9950363, -0.016860405, 0.09723596, 0.01280333
933, 141440162, 0.9950871, -0.01662401, 0.09674706, 0.012866052
934, 141456829, 0.99515855, -0.016412681, 0.09605094, 0.01282186
935, 141473496, 0.9951794, -0.016195908, 0.09587551, 0.01278951
936, 141490163, 0.9951093, -0.016043432, 0.0966459, 0.012642414
937, 141506830, 0.99502444, -0.015731407, 0.097573996, 0.012580803
938, 141523497, 0.9949684, -0.015425433, 0.09820509, 0.0124876425
939, 141540164, 0.99494255, -0.015208684, 0.09853247, 0.012224032
940, 141556831, 0.9948964, -0.015051474, 0.099051185, 0.011975481
941, 141573498, 0.9948293, -0.014950116, 0.09976016, 0.011801116
942, 141590165, 0.9948018, -0.014822054, 0.100070216, 0.011654208
943, 141606832, 0.9948179, -0.014741464, 0.09994521, 0.011455927
944, 141623499, 0.9948191, -0.014800585, 0.09993941, 0.011314822
945, 141640166, 0.9947654, -0.0149410805, 0.10045929, 0.011253842
946, 141656833, 0.99469507, -0.015062037, 0.10114128, 0.01119593
947, 141673500, 0.9946486, -0.015186109, 0.10158877, 0.011113115
948, 141690167, 0.9946264, -0.015351696, 0.101779155, 0.011135068
949, 141706834, 0.9946066, -0.015584444, 0.101924695, 0.011241574
950, 141723501, 0.99458236, -0.01582111, 0.102123864, 0.011251001
951, 141740168, 0.9945181, -0.01607536, 0.10271932, 0.01115705
952, 141756835, 0.9944179, -0.016313994, 0.103656165, 0.011052683
953, 141773502, 0.9943262, -0.016541734, 0.10450292, 0.0110008
954, 141790169, 0.99429524, -0.016814167, 0.10476749, 0.010875362
955, 141806836, 0.99430454, -0.017142573, 0.10464661, 0.010659194
956, 141823503, 0.9943174, -0.017491952, 0.10449288, 0.010410337
957, 141840170, 0.9943106, -0.017871136, 0.10452773, 0.010044116
958, 141856837, 0.9943039, -0.018234368, 0.10456812, 0.009644159
959, 141873504, 0.9942718, -0.018557373, 0.10484772, 0.009287401
960, 141890171, 0.9942357, -0.018857803, 0.10516731, 0.008932304
961, 141906838, 0.9942095, -0.01918409, 0.10538134, 0.008628178
962, 141923505, 0.99420387, -0.019515224, 0.10539801, 0.008320066
963, 141940172, 0.99420524, -0.019883765, 0.10534267, 0.007981934
964, 141956839, 0.9941997, -0.020296881, 0.10533821, 0.007673268
965, 141973506, 0.99418885, -0.020770134, 0.105358824, 0.00752847
966, 141990173, 0.9941757, -0.02123049, 0.10539611, 0.007476983
967, 142006840, 0.99415743, -0.021704517, 0.105468415, 0.007514151
968, 142023507, 0.9941616, -0.022133896, 0.105334535, 0.0075882804
969, 142040174, 0.9941796, -0.022543116, 0.10506914, 0.007700254
970, 142056841, 0.9941968, -0.022937633, 0.10481336, 0.0078042625
971, 142073508, 0.9942116, -0.023426764, 0.10455093, 0.007997001
972, 142090175, 0.99422616, -0.02403966, 0.1042559, 0.008206785
973, 142106842, 0.99423313, -0.024675433, 0.104028665, 0.008343723
974, 142123509, 0.99422246, -0.025277318, 0.103977546, 0.008455421
975, 142140176, 0.99420285, -0.025924047, 0.10399499, 0.008598695
976, 142156843, 0.9942006, -0.026625995, 0.10382706, 0.008744757
977, 142173510, 0.9942059, -0.0273884, 0.103560366, 0.008957971
978, 142190177, 0.9942044, -0.02829338, 0.1033137, 0.009147519
979, 142206844, 0.994198, -0.029156888, 0.10312142, 0.009291731
980, 142223511, 0.99417555, -0.0300345, 0.10307375, 0.009427135
981, 142240178, 0.9941415, -0.030993778, 0.10310098, 0.009616606
982, 142256845, 0.9941092, -0.03203902, 0.103073895, 0.009813001
983, 142273512, 0.99409854, -0.033140175, 0.102817856, 0.009935719
984, 142290179, 0.9941068, -0.03423041, 0.102364264, 0.010077944
985, 142306846, 0.99410975, -0.03527082, 0.101970516, 0.010195881
986, 142323513, 0.99409896, -0.036291283, 0.10171423, 0.010223653
987, 142340180, 0.99408734, -0.037296575, 0.10145761, 0.010279046
988, 142356847, 0.99406743, -0.038329504, 0.10126346, 0.010320371
989, 142373514, 0.9940593, -0.03930119, 0.100979924, 0.010226589
990, 142390181, 0.9940769, -0.040202115, 0.10046689, 0.010068728
991, 142406848, 0.99409217, -0.041051008, 0.09998635, 0.009918803
992, 142423515, 0.9940723, -0.04185069, 0.09987999, 0.009635312
993, 142440182, 0.99402755, -0.04265043, 0.10002063, 0.009290037
994, 142456849, 0.9939976, -0.043487318, 0.09999319, 0.008907586
995, 142473516, 0.9939939, -0.044363003, 0.099673554, 0.008562194
996, 142490183, 0.9939847, -0.045280755, 0.09938236, 0.00820726
997, 142506850, 0.9939645, -0.04607464, 0.09926012, 0.0077055553
998, 142523517, 0.99395436, -0.04678944, 0.09906909, 0.007162951
999, 142540184, 0.9939727, -0.04749628, 0.098580986, 0.0066508465
1000, 142556851, 0.9940264, -0.048208486, 0.09772349, 0.006135933
1001, 142573518, 0.99407786, -0.048856843, 0.09690881, 0.0055761132
1002, 142590185, 0.9940754, -0.04948449, 0.09665023, 0.00492765
1003, 142606852, 0.99401814, -0.050089054, 0.09696188, 0.0041962233
1004, 142623519, 0.9939516, -0.050655372, 0.09737718, 0.003461984
1005, 142640186, 0.99390936, -0.0512578, 0.09751148, 0.0029006614
1006, 142656853, 0.99391216, -0.051874317, 0.09716934, 0.0024713285
1007, 142673520, 0.9939242, -0.05249039, 0.096725464, 0.0019516508
1008, 142690187, 0.99390364, -0.053126905, 0.09659995, 0.0013269361
1009, 142706854, 0.9938509, -0.053732026, 0.09681507, 6.8295543E-4
1010, 142723521, 0.99380654, -0.05434229, 0.096931696, 6.136991E-5
1011, 142740188, 0.99380195, -0.054951433, 0.09663377, -5.064331E-4
1012, 142756855, 0.9938242, -0.05555302, 0.09605548, -0.0010643302
1013, 142773522, 0.99382913, -0.056128267, 0.095659845, -0.0016423301
1014, 142790189, 0.99380285, -0.056642625, 0.095618464, -0.0022294642
1015, 142806856, 0.9937665, -0.0571301, 0.09568874, -0.00283955
1016, 142823523, 0.9937379, -0.057652887, 0.09565026, -0.003505427
1017, 142840190, 0.9937126, -0.058179773, 0.09557017, -0.004085134
1018, 142856857, 0.99367154, -0.058668014, 0.09567652, -0.004585014
1019, 142873524, 0.99362254, -0.05909074, 0.095901884, -0.0050509023
1020, 142890191, 0.9935717, -0.059509054, 0.09614311, -0.0055279937
1021, 142906858, 0.9935328, -0.059903275, 0.09627668, -0.0059551317
1022, 142923525, 0.9935085, -0.060281485, 0.09626733, -0.00628945
1023, 142940192, 0.9934882, -0.060645364, 0.09623027, -0.006568214
1024, 142956859, 0.9934635, -0.060967755, 0.09626519, -0.006802413
1025, 142973526, 0.99344635, -0.06121282, 0.096268594, -0.0070546307
1026, 142990193, 0.99343723, -0.0614112, 0.096219584, -0.007293039
1027, 143006860, 0.993423, -0.061586645, 0.09623695, -0.0075233746
1028, 143023527, 0.9933993, -0.0617056, 0.09639568, -0.0076294076
1029, 143040194, 0.99337685, -0.06171683, 0.096608594, -0.007768271
1030, 143056861, 0.99335986, -0.061745495, 0.096751146, -0.007930243
1031, 143073528, 0.99334806, -0.061768174, 0.09685584, -0.007970392
1032, 143090195, 0.9933341, -0.061803687, 0.096976765, -0.007955047
1033, 143106862, 0.9933269, -0.061790366, 0.09705821, -0.007963211
1034, 143123529, 0.9933122, -0.061793823, 0.09720427, -0.007995487
1035, 143140196, 0.99331194, -0.061809096, 0.097201936, -0.007931903
1036, 143156863, 0.9933243, -0.061907023, 0.0970249, -0.0078013134
1037, 143173530, 0.99334395, -0.061927367, 0.096812, -0.0077661285
1038, 143190197, 0.9933491, -0.06184945, 0.096810944, -0.0077457395
1039, 143206864, 0.9933259, -0.061816446, 0.09706998, -0.007748361
1040, 143223531, 0.9933045, -0.061777428, 0.097318284, -0.0076992703
1041, 143240198, 0.9932885, -0.06171746, 0.09752007, -0.0076817446
1042, 143256865, 0.99326926, -0.06156519, 0.09781073, -0.007679326
1043, 143273532, 0.9932431, -0.061385714, 0.09818424, -0.00772716
1044, 143290199, 0.9932107, -0.06120346, 0.0986168, -0.007842822
1045, 143306866, 0.99319524, -0.06105593, 0.098852605, -0.007985488
1046, 143323533, 0.993211, -0.06089891, 0.098780535, -0.008104199
1047, 143340200, 0.99323356, -0.06071366, 0.09865659, -0.008241565
1048, 143356867, 0.99325067, -0.06056892, 0.098561704, -0.0083807055
1049, 143373534, 0.99324155, -0.060431357, 0.098724835, -0.00853547
1050, 143390201, 0.9932083, -0.060334355, 0.09910375, -0.008692875
1051, 143406868, 0.993184, -0.06018725, 0.099423364, -0.008846478
1052, 143423535, 0.9931711, -0.060000006, 0.0996549, -0.00894896
1053, 143440202, 0.99317527, -0.0598125, 0.099710874, -0.009126361
1054, 143456869, 0.9931867, -0.059643656, 0.09968712, -0.009255004
1055, 143473536, 0.9931755, -0.05948045, 0.099868916, -0.009530013
1056, 143490203, 0.993151, -0.05933184, 0.10018132, -0.009731136
1057, 143506870, 0.9931384, -0.059179503, 0.10037505, -0.009947801
1058, 143523537, 0.99313855, -0.05908244, 0.10041023, -0.010149336
1059, 143540204, 0.9931302, -0.05905008, 0.10047891, -0.010466882
1060, 143556871, 0.9930962, -0.059059635, 0.100780636, -0.010735571
1061, 143573538, 0.99304277, -0.05905241, 0.10129028, -0.010927407
1062, 143590205, 0.99300045, -0.05900632, 0.101724535, -0.010978139
1063, 143606872, 0.99297386, -0.0589871, 0.101954475, -0.011344791
1064, 143623539, 0.9929684, -0.059096694, 0.10192606, -0.011520669
1065, 143640206, 0.9929566, -0.05927417, 0.10191288, -0.011730412
1066, 143656873, 0.9929351, -0.059388183, 0.10202611, -0.011986022
1067, 143673540, 0.99289966, -0.059503984, 0.10226583, -0.012298333
1068, 143690207, 0.9928549, -0.059673328, 0.102570266, -0.012564745
1069, 143706874, 0.99281794, -0.059895765, 0.10275769, -0.012882037
1070, 143723541, 0.99278575, -0.060104493, 0.10290875, -0.013182684
1071, 143740208, 0.99276644, -0.060280114, 0.10296291, -0.013413181
1072, 143756875, 0.99275994, -0.060474873, 0.10288467, -0.013616099
1073, 143773542, 0.9927416, -0.060682487, 0.10292621, -0.013716347
1074, 143790209, 0.9926964, -0.060849592, 0.1032268, -0.013986884
1075, 143806876, 0.9926309, -0.06098454, 0.10372998, -0.014309949
1076, 143823543, 0.99257964, -0.061094936, 0.104118, -0.014578416
1077, 143840210, 0.99255854, -0.06125376, 0.10418938, -0.0148343565
1078, 143856877, 0.99255776, -0.061429396, 0.104055576, -0.01510241
1079, 143873544, 0.9925419, -0.061539575, 0.10410622, -0.015349801
1080, 143890211, 0.99249685, -0.061581537, 0.10445934, -0.015686588
1081, 143906878, 0.99245644, -0.061569165, 0.10479653, -0.016037147
1082, 143923545, 0.99243826, -0.061638445, 0.10488234, -0.01633319
1083, 143940212, 0.99243784, -0.061745096, 0.10475547, -0.016769426
1084, 143956879, 0.9924298, -0.061818045, 0.10470941, -0.017249785
1085, 143973546, 0.99239916, -0.061848562, 0.10493383, -0.017539911
1086, 143990213, 0.9923603, -0.06182877, 0.105260864, -0.017850047
1087, 144006880, 0.9923342, -0.0618716, 0.105409026, -0.018268388
1088, 144023547, 0.9923417, -0.061981935, 0.105221726, -0.018566823
1089, 144040214, 0.99235946, -0.062092543, 0.10494827, -0.018793179
