DeviceTag:,Xsens DOT 4,,,,,,,,,,,,,,,,,
FirmwareVersion:,1.3.0,,,,,,,,,,,,,,,,,
AppVersion:,2020.1.1,,,,,,,,,,,,,,,,,
Measurement Mode:,Sensor fusion Mode - Orientation (Quaternion),,,,,,,,,,,,,,,,,
StartTime:,2020-08-23 17:35:07.556 +0200,,,,,,,,,,,,,,,,,
© Xsens Technologies B. V. 2005-2020,,,,,,,,,,,,,,,,,,,
PacketCounter,SampleTimeFine,Quat_W,Quat_X,Quat_Y,Quat_Z
1, 259735431, 0.976267, -0.050411683, 0.04858847, 0.20494056
2, 259752098, 0.97656983, -0.04903968, 0.04356382, 0.20496021
3, 259768765, 0.97683287, -0.046520866, 0.039768856, 0.20506562
4, 259785432, 0.9768843, -0.04450165, 0.039873898, 0.20524834
5, 259802099, 0.9768761, -0.04340119, 0.04114645, 0.20527232
6, 259818766, 0.97684485, -0.042695276, 0.042655528, 0.2052602
7, 259835433, 0.9768237, -0.042319454, 0.043958265, 0.20516433
8, 259852100, 0.9768105, -0.041787192, 0.044770163, 0.20516112
9, 259868767, 0.97678554, -0.040983986, 0.045360964, 0.20531216
10, 259885434, 0.9767407, -0.04038888, 0.045841064, 0.20553575
11, 259902101, 0.9766362, -0.04012935, 0.046833474, 0.20585895
12, 259918768, 0.97651094, -0.040148504, 0.048037942, 0.2061721
13, 259935435, 0.97641253, -0.03998388, 0.04895571, 0.20645379
14, 259952102, 0.9763787, -0.039750133, 0.04937263, 0.2065603
15, 259968769, 0.97638303, -0.039623797, 0.049234923, 0.20659658
16, 259985436, 0.97643656, -0.03956239, 0.048757188, 0.20646852
17, 260002103, 0.9764952, -0.039341293, 0.04812333, 0.20638265
18, 260018770, 0.976585, -0.039171137, 0.04793814, 0.2060324
19, 260035437, 0.9764706, -0.03923655, 0.048208337, 0.20649865
20, 260052104, 0.9763736, -0.039464008, 0.048606683, 0.20682013
21, 260068771, 0.9763453, -0.039534565, 0.048648234, 0.20693056
22, 260085438, 0.9763275, -0.03956052, 0.048452195, 0.20705584
23, 260102105, 0.97638345, -0.039666113, 0.04836343, 0.20679255
24, 260118772, 0.97637814, -0.03989052, 0.048479576, 0.20674711
25, 260135439, 0.97638017, -0.04001009, 0.04859008, 0.20668824
26, 260152106, 0.9764834, -0.040022567, 0.048601415, 0.20619515
27, 260168773, 0.9763763, -0.04011451, 0.048694752, 0.20666221
28, 260185440, 0.9762725, -0.04030607, 0.049178865, 0.20700003
29, 260202107, 0.97623205, -0.040500186, 0.049411565, 0.20709698
30, 260218774, 0.97629523, -0.040476516, 0.048812624, 0.20694613
31, 260235441, 0.97627604, -0.040526476, 0.04792134, 0.20723493
32, 260252108, 0.976205, -0.040805895, 0.04730968, 0.20765509
33, 260268775, 0.9761779, -0.041318156, 0.047050014, 0.2077403
34, 260285442, 0.97618216, -0.04177463, 0.04676069, 0.20769362
35, 260302109, 0.9762323, -0.042066287, 0.046316326, 0.20749842
36, 260318776, 0.9762194, -0.04242306, 0.0460104, 0.20755483
37, 260335443, 0.9762857, -0.04276813, 0.046034068, 0.20716695
38, 260352110, 0.9762342, -0.04313524, 0.046310354, 0.20727202
39, 260368777, 0.9762533, -0.04329887, 0.046444584, 0.20711793
40, 260385444, 0.9763127, -0.043403927, 0.046593934, 0.20678161
41, 260402111, 0.9762406, -0.043522496, 0.04668881, 0.20707572
42, 260418778, 0.9761734, -0.043622896, 0.046860043, 0.20733267
43, 260435445, 0.97611654, -0.043667097, 0.046875376, 0.207587
44, 260452112, 0.97614586, -0.043672565, 0.046873406, 0.20744917
45, 260468779, 0.9757598, -0.043864783, 0.047026828, 0.20918313
46, 260485446, 0.9755427, -0.04413469, 0.04739755, 0.21005252
47, 260502113, 0.97569096, -0.044395402, 0.047690786, 0.20924088
48, 260518780, 0.97546285, -0.044655338, 0.04740862, 0.21031106
49, 260535447, 0.97594684, -0.044575296, 0.046782766, 0.20821266
50, 260552114, 0.9758563, -0.04462169, 0.045993958, 0.2088013
51, 260568781, 0.9760722, -0.04461883, 0.04563148, 0.20787066
52, 260585448, 0.9756821, -0.044865664, 0.045608867, 0.20964608
53, 260602115, 0.9758442, -0.044967104, 0.045790635, 0.20882839
54, 260618782, 0.97574276, -0.045002576, 0.045690816, 0.20931648
55, 260635449, 0.9756775, -0.044883206, 0.04545865, 0.20969634
56, 260652116, 0.9757189, -0.044746354, 0.04539439, 0.20954695
57, 260668783, 0.97566754, -0.044680323, 0.045479346, 0.20978166
58, 260685450, 0.9757786, -0.044514243, 0.04559379, 0.20927496
59, 260702117, 0.97567195, -0.04433792, 0.04549469, 0.20983012
60, 260718784, 0.97573006, -0.044091754, 0.04535604, 0.2096414
61, 260735451, 0.9757658, -0.043916028, 0.0453598, 0.20951118
62, 260752118, 0.97581774, -0.04380328, 0.045670357, 0.20922525
63, 260768785, 0.9758229, -0.04377057, 0.045959193, 0.20914507
64, 260785452, 0.97591144, -0.04373748, 0.046029076, 0.20872319
65, 260802119, 0.97599703, -0.043694105, 0.045562547, 0.20843385
66, 260818786, 0.9761224, -0.043533754, 0.045010466, 0.20800024
67, 260835453, 0.97618073, -0.043404404, 0.044846445, 0.2077889
68, 260852120, 0.97621447, -0.043323997, 0.044994887, 0.20761509
69, 260868787, 0.97625536, -0.043304935, 0.04516367, 0.20738961
70, 260885454, 0.97631586, -0.04319958, 0.045112636, 0.20713788
71, 260902121, 0.9763991, -0.04308477, 0.044888828, 0.20681761
72, 260918788, 0.97636807, -0.04301824, 0.044524636, 0.20705676
73, 260935455, 0.97640395, -0.043130253, 0.044408523, 0.20688905
74, 260952122, 0.9763903, -0.043312583, 0.044521444, 0.20689096
75, 260968789, 0.97633594, -0.043468244, 0.04468152, 0.20708084
76, 260985456, 0.976255, -0.043564707, 0.044623718, 0.20745386
77, 261002123, 0.9762532, -0.043584723, 0.044560738, 0.20747156
78, 261018790, 0.9763613, -0.04351959, 0.04456702, 0.20697488
79, 261035457, 0.97638804, -0.04348575, 0.044618677, 0.20684472
80, 261052124, 0.9764258, -0.0434349, 0.044445246, 0.20671435
81, 261068791, 0.9764923, -0.043284204, 0.04409, 0.20650746
82, 261085458, 0.9765508, -0.043128096, 0.04386651, 0.20631133
83, 261102125, 0.97675943, -0.04299952, 0.043920778, 0.205337
84, 261118792, 0.97688836, -0.042878997, 0.044102054, 0.20470901
85, 261135459, 0.9770027, -0.042766575, 0.044127565, 0.20418082
86, 261152126, 0.97702897, -0.042623367, 0.04403186, 0.20410551
87, 261168793, 0.9770764, -0.04259223, 0.043991666, 0.20389315
88, 261185460, 0.97703415, -0.04270204, 0.043944597, 0.20408273
89, 261202127, 0.9771083, -0.04284028, 0.04379033, 0.20373161
90, 261218794, 0.9771805, -0.042941257, 0.043377772, 0.20345214
91, 261235461, 0.9771796, -0.043065146, 0.043081664, 0.20349324
92, 261252128, 0.9771076, -0.043342933, 0.043191783, 0.20375681
93, 261268795, 0.9771261, -0.04372744, 0.043401733, 0.203541
94, 261285462, 0.9771916, -0.04395065, 0.043330677, 0.20319286
95, 261302129, 0.9772589, -0.044069584, 0.042909905, 0.20293269
96, 261318796, 0.9773355, -0.044191036, 0.042630322, 0.202596
97, 261335463, 0.97736543, -0.04443395, 0.042804968, 0.20236182
98, 261352130, 0.97740346, -0.044603582, 0.043131903, 0.20207138
99, 261368797, 0.9774284, -0.044596214, 0.043303717, 0.20191535
100, 261385464, 0.9774186, -0.044581663, 0.04345517, 0.20193376
101, 261402131, 0.9774149, -0.044738047, 0.043927625, 0.20181432
102, 261418798, 0.977463, -0.04490856, 0.04436522, 0.20144759
103, 261435465, 0.97745436, -0.044996247, 0.04439592, 0.20146328
104, 261452132, 0.97753066, -0.044957507, 0.044187456, 0.20114729
105, 261468799, 0.97761124, -0.04499744, 0.044289798, 0.20072398
106, 261485466, 0.97759134, -0.04519235, 0.04476762, 0.20067126
107, 261502133, 0.9776254, -0.045276422, 0.04522707, 0.20038305
108, 261518800, 0.97766566, -0.045244806, 0.0452724, 0.20018287
109, 261535467, 0.9776854, -0.04520269, 0.04505926, 0.20014434
110, 261552134, 0.9777004, -0.045339968, 0.045005906, 0.20005204
111, 261568801, 0.97770125, -0.045658845, 0.045081314, 0.19995785
112, 261585468, 0.9777292, -0.045963664, 0.045054287, 0.19975758
113, 261602135, 0.97771543, -0.046246376, 0.04490306, 0.19979411
114, 261618802, 0.97772104, -0.04671196, 0.044892225, 0.199661
115, 261635469, 0.9776927, -0.04728172, 0.0449307, 0.19965677
116, 261652136, 0.977628, -0.04793789, 0.044962194, 0.19981007
117, 261668803, 0.9776156, -0.048604317, 0.044982962, 0.19970493
118, 261685470, 0.9775746, -0.049380228, 0.04511429, 0.1996859
119, 261702137, 0.9775674, -0.050204057, 0.04542173, 0.19944538
120, 261718804, 0.97754705, -0.051000625, 0.045921847, 0.19922875
121, 261735471, 0.9774393, -0.051851988, 0.046597533, 0.19938025
122, 261752138, 0.97734827, -0.052837826, 0.04739945, 0.19937876
123, 261768805, 0.9772873, -0.053852815, 0.04791536, 0.19928293
124, 261785472, 0.9772383, -0.054740883, 0.04786722, 0.19929308
125, 261802139, 0.9772176, -0.055721458, 0.047872692, 0.19912104
126, 261818806, 0.9771869, -0.056988973, 0.04830164, 0.19880894
127, 261835473, 0.9771391, -0.058280375, 0.048505608, 0.19862033
128, 261852140, 0.9771739, -0.05935673, 0.048307825, 0.19817758
129, 261868807, 0.977092, -0.0603776, 0.04779711, 0.19839655
130, 261885474, 0.9771389, -0.061461065, 0.04748119, 0.1979089
131, 261902141, 0.977069, -0.06267516, 0.04725052, 0.19792761
132, 261918808, 0.9769884, -0.063793026, 0.0467154, 0.19809596
133, 261935475, 0.9769669, -0.06483214, 0.04593316, 0.19804704
134, 261952142, 0.97680914, -0.06599137, 0.045171276, 0.19861755
135, 261968809, 0.9767198, -0.06719532, 0.04468561, 0.19876243
136, 261985476, 0.9766139, -0.068215355, 0.044169456, 0.19905071
137, 262002143, 0.97657263, -0.06921997, 0.043793324, 0.1989897
138, 262018810, 0.9764424, -0.0703213, 0.04357425, 0.19929017
139, 262035477, 0.97629213, -0.07148022, 0.043462902, 0.1996385
140, 262052144, 0.97618264, -0.07250268, 0.043125823, 0.19987743
141, 262068811, 0.97608584, -0.07348223, 0.042644467, 0.20009553
142, 262085478, 0.9760236, -0.074566394, 0.0422715, 0.20007674
143, 262102145, 0.97589076, -0.075855196, 0.042173278, 0.20026168
144, 262118812, 0.975794, -0.077168025, 0.041966457, 0.20027481
145, 262135479, 0.9756933, -0.07848844, 0.041844174, 0.20027824
146, 262152146, 0.9755751, -0.080007754, 0.042466693, 0.20012191
147, 262168813, 0.975415, -0.08191189, 0.04381427, 0.19984125
148, 262185480, 0.97525936, -0.08382731, 0.04465301, 0.19962086
149, 262202147, 0.97514474, -0.08565555, 0.04473739, 0.19938567
150, 262218814, 0.9750114, -0.087565325, 0.044839565, 0.19918515
151, 262235481, 0.9748108, -0.089702986, 0.04570153, 0.19901995
152, 262252148, 0.97453207, -0.0922823, 0.047505196, 0.19878282
153, 262268815, 0.9742762, -0.095009185, 0.048827972, 0.1984312
154, 262285482, 0.9740988, -0.09739259, 0.048975557, 0.19811048
155, 262302149, 0.97394425, -0.09964603, 0.04891871, 0.19776313
156, 262318816, 0.97373927, -0.10207091, 0.049360093, 0.19742559
157, 262335483, 0.97350764, -0.10463245, 0.050112285, 0.19703764
158, 262352150, 0.9733008, -0.10692778, 0.050399143, 0.19675347
159, 262368817, 0.9731152, -0.10894622, 0.050091445, 0.19664377
160, 262385484, 0.9728983, -0.110942915, 0.04993281, 0.19664003
161, 262402151, 0.9726305, -0.11317114, 0.05054948, 0.19653808
162, 262418818, 0.97236943, -0.11527376, 0.051046897, 0.19647874
163, 262435485, 0.972157, -0.117133245, 0.05086204, 0.19647886
164, 262452152, 0.9719466, -0.11893011, 0.05030316, 0.19658409
165, 262468819, 0.9716919, -0.12093016, 0.050060507, 0.19668427
166, 262485486, 0.9714206, -0.12312415, 0.04993108, 0.19669692
167, 262502153, 0.9712042, -0.12494816, 0.04915481, 0.19680987
168, 262518820, 0.9710209, -0.12657085, 0.048083328, 0.19694214
169, 262535487, 0.9708001, -0.12832445, 0.04762384, 0.19700798
170, 262552154, 0.97051114, -0.13025586, 0.048001755, 0.19707297
171, 262568821, 0.9701943, -0.13209377, 0.048521176, 0.19728214
172, 262585488, 0.96990675, -0.13369721, 0.048462287, 0.19762985
173, 262602155, 0.9696214, -0.13529275, 0.048249394, 0.19799566
174, 262618822, 0.9692748, -0.13712828, 0.048729427, 0.19831266
175, 262635489, 0.96878916, -0.13939717, 0.050899796, 0.1985583
176, 262652156, 0.96815526, -0.14222449, 0.054639764, 0.19865099
177, 262668823, 0.9675083, -0.14533319, 0.05770163, 0.19868717
178, 262685490, 0.96697146, -0.14797488, 0.058970068, 0.19897854
179, 262702157, 0.96647626, -0.15055571, 0.060029354, 0.19913125
180, 262718824, 0.9659232, -0.15333332, 0.06136187, 0.1992898
181, 262735491, 0.9653575, -0.15645933, 0.06272047, 0.19917753
182, 262752158, 0.96491635, -0.15930933, 0.06263061, 0.19908363
183, 262768825, 0.9646402, -0.16170174, 0.061198067, 0.19893922
184, 262785492, 0.96437263, -0.16401914, 0.05948417, 0.19885936
185, 262802159, 0.9640338, -0.16646314, 0.05848495, 0.19876751
186, 262818826, 0.9636194, -0.16913114, 0.058177784, 0.19861464
187, 262835493, 0.9631976, -0.17181706, 0.057921614, 0.19843002
188, 262852160, 0.96282303, -0.17428595, 0.057451997, 0.1982315
189, 262868827, 0.96240616, -0.1768224, 0.057430882, 0.19801508
190, 262885494, 0.9619051, -0.17965542, 0.058070224, 0.19771302
191, 262902161, 0.96138185, -0.18254194, 0.05845826, 0.19750006
192, 262918828, 0.9608965, -0.18519443, 0.05816523, 0.19747862
193, 262935495, 0.96036226, -0.18797973, 0.057894286, 0.19752558
194, 262952162, 0.95973325, -0.19110976, 0.057915103, 0.19757351
195, 262968829, 0.95903426, -0.19452988, 0.058122728, 0.19756845
196, 262985496, 0.9583627, -0.1978318, 0.05800595, 0.19758283
197, 263002163, 0.9577423, -0.20100756, 0.057594575, 0.19750634
198, 263018830, 0.9570728, -0.20448862, 0.057589766, 0.19717972
199, 263035497, 0.9563818, -0.20817938, 0.057335306, 0.1967439
200, 263052164, 0.9557558, -0.21169947, 0.055758633, 0.1964826
201, 263068831, 0.9552592, -0.21470328, 0.05290599, 0.19642648
202, 263085498, 0.95475835, -0.21773085, 0.050422568, 0.19618197
203, 263102165, 0.9541794, -0.22103381, 0.048689947, 0.19574276
204, 263118832, 0.95359206, -0.22454354, 0.046689745, 0.19509576
205, 263135499, 0.9531387, -0.22757237, 0.043166623, 0.1946137
206, 263152166, 0.9528348, -0.23006509, 0.03821314, 0.19420573
207, 263168833, 0.9525047, -0.23263882, 0.03309826, 0.19369783
208, 263185500, 0.9520761, -0.23567423, 0.02898357, 0.19279237
209, 263202167, 0.95157355, -0.23900385, 0.026235102, 0.19156483
210, 263218834, 0.9510877, -0.24227975, 0.024139663, 0.19013236
211, 263235501, 0.9506518, -0.24522759, 0.021534482, 0.18884116
212, 263252168, 0.9501869, -0.24803035, 0.018461112, 0.18784326
213, 263268835, 0.9496204, -0.25098878, 0.015555514, 0.18703996
214, 263285502, 0.94896704, -0.2540941, 0.013255127, 0.18633878
215, 263302169, 0.94825625, -0.2572337, 0.011472102, 0.18576725
216, 263318836, 0.9475011, -0.26042667, 0.009855192, 0.18526356
217, 263335503, 0.9466208, -0.2639611, 0.008218909, 0.18484177
218, 263352170, 0.9456336, -0.26782346, 0.00640609, 0.18440907
219, 263368837, 0.94459856, -0.2718478, 0.005330454, 0.18385941
220, 263385504, 0.94353354, -0.27602568, 0.004992807, 0.18311135
221, 263402171, 0.9423749, -0.28052178, 0.004927019, 0.18224381
222, 263418838, 0.9410727, -0.2855322, 0.0044637914, 0.18120086
223, 263435505, 0.9396874, -0.29073465, 0.0035079662, 0.18013589
224, 263452172, 0.9382537, -0.29604122, 0.0028693692, 0.17897335
225, 263468839, 0.9367673, -0.30161417, 0.002725224, 0.17745066
226, 263485506, 0.9352559, -0.307243, 0.0018866451, 0.17576918
227, 263502173, 0.93370414, -0.3128216, 7.647852E-4, 0.1741811
228, 263518840, 0.93212473, -0.31837246, 5.934172E-5, 0.1725764
229, 263535507, 0.93053037, -0.32366067, -6.101056E-4, 0.17133796
230, 263552174, 0.92885286, -0.32895154, -0.0013572121, 0.1703571
231, 263568841, 0.92710984, -0.3342459, -0.002461503, 0.16953263
232, 263585508, 0.9253595, -0.33947006, -0.0040077744, 0.16868313
233, 263602175, 0.92365175, -0.34447545, -0.005961634, 0.16783564
234, 263618842, 0.9219543, -0.3492687, -0.008714087, 0.16714014
235, 263635509, 0.92016935, -0.3541224, -0.011807731, 0.16657278
236, 263652176, 0.91834414, -0.35924977, -0.014333579, 0.16546418
237, 263668843, 0.9165618, -0.36425582, -0.016630229, 0.16418277
238, 263685510, 0.91479504, -0.36910167, -0.018762944, 0.16297853
239, 263702177, 0.91305125, -0.3738259, -0.020533176, 0.16177255
240, 263718844, 0.91127384, -0.3786641, -0.021412818, 0.16042174
241, 263735511, 0.9095512, -0.38344854, -0.02129394, 0.15884143
242, 263752178, 0.90788496, -0.38818783, -0.019980196, 0.15702201
243, 263768845, 0.90629536, -0.3927943, -0.017541336, 0.15502794
244, 263785512, 0.9047331, -0.39712593, -0.015710425, 0.15330465
245, 263802179, 0.9032566, -0.40081853, -0.016127745, 0.15235537
246, 263818846, 0.90176105, -0.4042283, -0.017924074, 0.1520044
247, 263835513, 0.90021837, -0.40779352, -0.019199938, 0.15146871
248, 263852180, 0.89866346, -0.4114193, -0.019955661, 0.15079819
249, 263868847, 0.8970134, -0.41496822, -0.021543622, 0.15068
250, 263885514, 0.8953158, -0.41849813, -0.023670664, 0.15069428
251, 263902181, 0.89360785, -0.42200327, -0.026198627, 0.15063943
252, 263918848, 0.89189416, -0.42546704, -0.028794829, 0.15057799
253, 263935515, 0.89019364, -0.4287899, -0.03180536, 0.1506092
254, 263952182, 0.888471, -0.43201196, -0.034997318, 0.15086573
255, 263968849, 0.88671625, -0.43525875, -0.03770079, 0.15120591
256, 263985516, 0.88479024, -0.43877935, -0.040209744, 0.15166499
257, 264002183, 0.88279206, -0.44220793, -0.043482147, 0.15244563
258, 264018850, 0.88068867, -0.44565418, -0.04741054, 0.15340239
259, 264035517, 0.8784825, -0.44938332, -0.05067622, 0.15412712
260, 264052184, 0.8763077, -0.45361122, -0.0514157, 0.15387669
261, 264068851, 0.87420654, -0.45806092, -0.050758414, 0.15286194
262, 264085518, 0.8721359, -0.46214065, -0.051114295, 0.1522908
263, 264102185, 0.86999005, -0.4657114, -0.053820364, 0.15275426
264, 264118852, 0.8678537, -0.46872488, -0.058542017, 0.15394785
265, 264135519, 0.86565244, -0.47155038, -0.06408375, 0.15549761
266, 264152186, 0.86337686, -0.47434402, -0.06987382, 0.15714926
267, 264168853, 0.8610981, -0.47715405, -0.075349584, 0.15860845
268, 264185520, 0.8587597, -0.48009953, -0.080260955, 0.15998341
269, 264202187, 0.8564232, -0.4834669, -0.08355374, 0.16067968
270, 264218854, 0.8540663, -0.48717916, -0.085711166, 0.16087593
271, 264235521, 0.8517286, -0.4908435, -0.087875746, 0.16096298
272, 264252188, 0.84944624, -0.49413058, -0.09080224, 0.16134182
273, 264268855, 0.84730446, -0.49720776, -0.093442924, 0.16164164
274, 264285522, 0.8452431, -0.50060344, -0.094739124, 0.16119795
275, 264302189, 0.8432349, -0.5041159, -0.09543489, 0.16035756
276, 264318856, 0.84118044, -0.50736314, -0.09711249, 0.15989754
277, 264335523, 0.83908826, -0.51032215, -0.09951196, 0.15999871
278, 264352190, 0.83688873, -0.5132984, -0.10211955, 0.1603551
279, 264368857, 0.83462244, -0.5163751, -0.104622826, 0.16067454
280, 264385524, 0.83242327, -0.51948285, -0.10664803, 0.16073404
281, 264402191, 0.8302807, -0.52251494, -0.10849085, 0.16075431
282, 264418858, 0.8280583, -0.52542865, -0.11081414, 0.1611354
283, 264435525, 0.8257461, -0.5281533, -0.11394359, 0.1619097
284, 264452192, 0.82343376, -0.53067, -0.117441475, 0.16295333
285, 264468859, 0.8211422, -0.53311133, -0.121023715, 0.16392434
286, 264485526, 0.81893224, -0.53556746, -0.12417271, 0.1646167
287, 264502193, 0.8168299, -0.53786397, -0.12709138, 0.16534509
288, 264518860, 0.8148352, -0.5402208, -0.12962376, 0.16553815
289, 264535527, 0.81290936, -0.54241705, -0.13256535, 0.16549523
290, 264552194, 0.8110439, -0.5438567, -0.13746628, 0.16592433
291, 264568861, 0.8091357, -0.54487985, -0.14363226, 0.16665933
292, 264585528, 0.80708385, -0.5459996, -0.15008552, 0.16725646
293, 264602195, 0.80505496, -0.5472247, -0.15596494, 0.16765107
294, 264618862, 0.80300826, -0.5485823, -0.16123137, 0.16804701
295, 264635529, 0.80081016, -0.5500235, -0.16635686, 0.16882738
296, 264652196, 0.79842734, -0.55115706, -0.17230281, 0.17044488
297, 264668863, 0.79593736, -0.552282, -0.1782432, 0.17233008
298, 264685530, 0.7934377, -0.55384505, -0.18308233, 0.17376184
299, 264702197, 0.7909312, -0.5559075, -0.18670206, 0.1747488
300, 264718864, 0.78819567, -0.5581318, -0.1904464, 0.17597438
301, 264735531, 0.7852629, -0.56001174, -0.19508432, 0.17802018
302, 264752198, 0.7823137, -0.5620181, -0.19925882, 0.18004736
303, 264768865, 0.7793167, -0.5643584, -0.20268391, 0.18189156
304, 264785532, 0.7761794, -0.5666366, -0.20574607, 0.1847622
305, 264802199, 0.77308136, -0.56951797, -0.2068836, 0.18759999
306, 264818866, 0.7703658, -0.57264763, -0.2062364, 0.18994169
307, 264835533, 0.76803476, -0.57584983, -0.20465294, 0.19140741
308, 264852200, 0.76604784, -0.5784762, -0.20333596, 0.19284877
309, 264868867, 0.7644769, -0.5806371, -0.2021811, 0.19380094
310, 264885534, 0.76339936, -0.58214015, -0.20116188, 0.19459783
311, 264902201, 0.7623885, -0.5832054, -0.20117556, 0.19535637
312, 264918868, 0.76152676, -0.5835143, -0.20249557, 0.19642834
313, 264935535, 0.76111066, -0.5834046, -0.2037258, 0.19709232
314, 264952202, 0.7613665, -0.5835479, -0.20310794, 0.19631661
315, 264968869, 0.76191497, -0.58394647, -0.20134623, 0.19481249
316, 264985536, 0.76249236, -0.5842557, -0.19943388, 0.19358969
317, 265002203, 0.7629388, -0.5841268, -0.19810154, 0.19358777
318, 265018870, 0.7627694, -0.5840141, -0.19798148, 0.19471453
319, 265035537, 0.7619186, -0.5840023, -0.19910191, 0.19692639
320, 265052204, 0.760655, -0.5838892, -0.20120572, 0.19998518
321, 265068871, 0.7592349, -0.58452696, -0.20258658, 0.20211233
322, 265085538, 0.75805485, -0.5859739, -0.20221224, 0.20272598
323, 265102205, 0.7567538, -0.58782566, -0.20160615, 0.20283018
324, 265118872, 0.75508773, -0.58928096, -0.20252226, 0.20390028
325, 265135539, 0.75310034, -0.5901987, -0.20491327, 0.20619433
326, 265152206, 0.75130457, -0.59113264, -0.20689766, 0.20807986
327, 265168873, 0.74981385, -0.5929441, -0.2070782, 0.20812337
328, 265185540, 0.7483939, -0.59520584, -0.20655562, 0.2072957
329, 265202207, 0.7469729, -0.59715545, -0.2066746, 0.20669493
330, 265218874, 0.74553096, -0.5988719, -0.20729937, 0.20630835
331, 265235541, 0.74398774, -0.6003026, -0.20873874, 0.20626982
332, 265252208, 0.7422285, -0.60127574, -0.21134812, 0.20711422
333, 265268875, 0.7404526, -0.601745, -0.21470742, 0.20864725
334, 265285542, 0.7390526, -0.6023467, -0.21690544, 0.2095992
335, 265302209, 0.7379884, -0.60357404, -0.21737434, 0.20933205
336, 265318876, 0.73698735, -0.6050448, -0.21725333, 0.20873807
337, 265335543, 0.735997, -0.60596585, -0.21791492, 0.20887083
338, 265352210, 0.73510635, -0.6062435, -0.21929914, 0.20975094
339, 265368877, 0.73444635, -0.60631824, -0.22045106, 0.21063785
340, 265385544, 0.73399377, -0.6068665, -0.2204181, 0.21067052
341, 265402211, 0.733537, -0.60749876, -0.22011644, 0.21075468
342, 265418878, 0.7330419, -0.6076796, -0.22049066, 0.21156298
343, 265435545, 0.73255235, -0.6074436, -0.22142638, 0.21295486
344, 265452212, 0.73193216, -0.60727185, -0.2224422, 0.21451312
345, 265468879, 0.73120487, -0.6069256, -0.22405863, 0.2162834
346, 265485546, 0.73058957, -0.6063826, -0.22586396, 0.21800128
347, 265502213, 0.73035574, -0.6060623, -0.22651915, 0.21899381
348, 265518880, 0.73026246, -0.6067805, -0.22551572, 0.21835016
349, 265535547, 0.73013, -0.607376, -0.22492349, 0.21774745
350, 265552214, 0.72993463, -0.6071374, -0.2257001, 0.2182644
351, 265568881, 0.7296553, -0.6068025, -0.22675389, 0.21903528
352, 265585548, 0.72922176, -0.60670185, -0.22776198, 0.21971142
353, 265602215, 0.7288125, -0.6063439, -0.22910339, 0.22066082
354, 265618882, 0.72864455, -0.6060502, -0.23005554, 0.22103103
355, 265635549, 0.7287331, -0.6063646, -0.22974572, 0.22019757
356, 265652216, 0.7288967, -0.60665786, -0.22924401, 0.21937051
357, 265668883, 0.7289296, -0.6065129, -0.22959515, 0.21929461
358, 265685550, 0.72884756, -0.60627794, -0.2302337, 0.21954764
359, 265702217, 0.72869414, -0.60610133, -0.2308951, 0.2198489
360, 265718884, 0.72848225, -0.6058327, -0.23171899, 0.22042434
361, 265735551, 0.7282644, -0.60555935, -0.23252037, 0.22105028
362, 265752218, 0.72806, -0.605349, -0.23330323, 0.22147426
363, 265768885, 0.727847, -0.60506016, -0.23437557, 0.22183128
364, 265785552, 0.72769016, -0.60466623, -0.23539601, 0.22233899
365, 265802219, 0.7275808, -0.60446125, -0.23594174, 0.2226759
366, 265818886, 0.7274413, -0.60458857, -0.23603345, 0.22268865
367, 265835553, 0.727133, -0.60498244, -0.23624194, 0.22240472
368, 265852220, 0.72694695, -0.60514414, -0.23659113, 0.22220133
369, 265868887, 0.72680706, -0.60510796, -0.23710814, 0.22220607
370, 265885554, 0.72669154, -0.6050173, -0.2375739, 0.22233382
371, 265902221, 0.72670627, -0.6048879, -0.23765013, 0.22255607
372, 265918888, 0.7266634, -0.60484236, -0.23779629, 0.22266363
373, 265935555, 0.72669196, -0.6046934, -0.23788607, 0.22287902
374, 265952222, 0.72681445, -0.60442185, -0.23796996, 0.22312589
375, 265968889, 0.726995, -0.60426784, -0.23781608, 0.22311968
376, 265985556, 0.72726476, -0.6042576, -0.23726583, 0.22285363
377, 266002223, 0.7274246, -0.60421693, -0.23685007, 0.22288421
378, 266018890, 0.7275406, -0.6042536, -0.23631695, 0.22297215
379, 266035557, 0.72762144, -0.6046153, -0.23538978, 0.22270897
380, 266052224, 0.72761655, -0.6051909, -0.23439533, 0.22220996
381, 266068891, 0.7275511, -0.6056033, -0.23377527, 0.22195335
382, 266085558, 0.7273987, -0.6058502, -0.23375167, 0.22180353
383, 266102225, 0.727255, -0.6060273, -0.2339011, 0.22163342
384, 266118892, 0.7270958, -0.6062282, -0.23410155, 0.22139527
385, 266135559, 0.72687626, -0.6062674, -0.23461531, 0.22146466
386, 266152226, 0.7266804, -0.6060694, -0.23534918, 0.22187027
387, 266168893, 0.7265288, -0.60579324, -0.23598367, 0.22244626
388, 266185560, 0.7264144, -0.6055269, -0.23640437, 0.22309767
389, 266202227, 0.7263845, -0.6052197, -0.2365677, 0.22385369
390, 266218894, 0.72639716, -0.60497093, -0.2364398, 0.2246189
391, 266235561, 0.72640157, -0.6047248, -0.23624258, 0.22547343
392, 266252228, 0.72647697, -0.604336, -0.23606609, 0.22645563
393, 266268895, 0.7266683, -0.6039384, -0.23562099, 0.2273643
394, 266285562, 0.72700953, -0.603667, -0.23467545, 0.22797069
395, 266302229, 0.7274457, -0.603425, -0.23357056, 0.22835511
396, 266318896, 0.72794086, -0.6031798, -0.23268764, 0.22832678
397, 266335563, 0.7284357, -0.60273623, -0.23213173, 0.22848503
398, 266352230, 0.7289386, -0.6023219, -0.23163044, 0.22848308
399, 266368897, 0.7294026, -0.602278, -0.23073967, 0.22801854
400, 266385564, 0.7298323, -0.6022378, -0.23001553, 0.22748025
401, 266402231, 0.7302179, -0.6019453, -0.22984327, 0.22719152
402, 266418898, 0.7306123, -0.6016555, -0.22967498, 0.22686104
403, 266435565, 0.7311257, -0.60133076, -0.22922218, 0.22652525
404, 266452232, 0.73174787, -0.6009038, -0.22852759, 0.22635163
405, 266468899, 0.7324077, -0.6005323, -0.22739038, 0.22634833
406, 266485566, 0.73319155, -0.60016, -0.22581322, 0.22637783
407, 266502233, 0.73404235, -0.59951633, -0.22454648, 0.22658522
408, 266518900, 0.7349641, -0.59835804, -0.22385238, 0.22734484
409, 266535567, 0.7359694, -0.59674686, -0.22349364, 0.22867651
410, 266552234, 0.7369885, -0.5950574, -0.2233056, 0.22997671
411, 266568901, 0.73815006, -0.5936302, -0.2228041, 0.23042597
412, 266585568, 0.7396259, -0.5924621, -0.22163384, 0.22982809
413, 266602235, 0.74146676, -0.5912742, -0.21994993, 0.22856987
414, 266618902, 0.7434955, -0.5903164, -0.21758462, 0.22671176
415, 266635569, 0.74557084, -0.5893872, -0.2150965, 0.2246784
416, 266652236, 0.7474729, -0.5882558, -0.2133545, 0.22297841
417, 266668903, 0.7494884, -0.5864687, -0.21239804, 0.2218308
418, 266685570, 0.75155896, -0.58441365, -0.2116162, 0.2209948
419, 266702237, 0.7536582, -0.58266217, -0.21039477, 0.21963215
420, 266718904, 0.75616485, -0.58107036, -0.20804593, 0.21746029
421, 266735571, 0.7591839, -0.5794961, -0.20444705, 0.21453653
422, 266752238, 0.76249295, -0.5778691, -0.19997951, 0.21137674
423, 266768905, 0.7659147, -0.57604355, -0.19548574, 0.20816845
424, 266785572, 0.7694439, -0.5737217, -0.1912613, 0.20547166
425, 266802239, 0.7728941, -0.5710273, -0.18748263, 0.2035019
426, 266818906, 0.77629083, -0.56797665, -0.18415655, 0.2021431
427, 266835573, 0.779781, -0.5645628, -0.1811037, 0.20102753
428, 266852240, 0.78345716, -0.5610363, -0.1775159, 0.19980332
429, 266868907, 0.78721905, -0.5573987, -0.17373408, 0.19851843
430, 266885574, 0.7909451, -0.55348504, -0.17012186, 0.19778432
431, 266902241, 0.7946356, -0.5492033, -0.1671364, 0.19747311
432, 266918908, 0.79827756, -0.54460037, -0.16471572, 0.19756667
433, 266935575, 0.80172944, -0.5396751, -0.16314156, 0.19840792
434, 266952242, 0.80500305, -0.5347012, -0.16199963, 0.19955184
435, 266968909, 0.80802464, -0.53004354, -0.16125527, 0.20036668
436, 266985576, 0.8110172, -0.5251841, -0.16118936, 0.20112424
437, 267002243, 0.81408954, -0.52019256, -0.16129641, 0.20159839
438, 267018910, 0.81722033, -0.51540875, -0.16061075, 0.20176557
439, 267035577, 0.8203231, -0.51075035, -0.15977281, 0.20168465
440, 267052244, 0.82352614, -0.50591105, -0.15898941, 0.20144768
441, 267068911, 0.8269812, -0.5009026, -0.1576688, 0.20084675
442, 267085578, 0.8306047, -0.4958882, -0.15567164, 0.19989322
443, 267102245, 0.8341559, -0.4906178, -0.1542572, 0.19920614
444, 267118912, 0.83774704, -0.48462364, -0.15384486, 0.19912747
445, 267135579, 0.8415148, -0.47827548, -0.15327701, 0.19902635
446, 267152246, 0.845525, -0.47193143, -0.15149003, 0.19854209
447, 267168913, 0.84978944, -0.4656667, -0.14830947, 0.19752653
448, 267185580, 0.8542582, -0.4592346, -0.14426519, 0.19630148
449, 267202247, 0.8588651, -0.45262638, -0.13961415, 0.19490564
450, 267218914, 0.8634775, -0.44617945, -0.13415223, 0.19321972
451, 267235581, 0.86814314, -0.43997574, -0.12756442, 0.19098863
452, 267252248, 0.8726487, -0.43349817, -0.12158087, 0.18916078
453, 267268915, 0.8768678, -0.426082, -0.11801229, 0.18875997
454, 267285582, 0.88086003, -0.41779035, -0.11687497, 0.18941265
455, 267302249, 0.8849388, -0.40894765, -0.11631644, 0.1900423
456, 267318916, 0.8891842, -0.399902, -0.11474544, 0.19042988
457, 267335583, 0.8935286, -0.39096054, -0.111891024, 0.1903609
458, 267352250, 0.8978925, -0.38218492, -0.10849336, 0.18961269
459, 267368917, 0.9022747, -0.373053, -0.105281256, 0.18880585
460, 267385584, 0.9066029, -0.36353892, -0.102288604, 0.1882751
461, 267402251, 0.9108295, -0.35400084, -0.09922116, 0.18769263
462, 267418918, 0.91498077, -0.3444446, -0.09602731, 0.18694115
463, 267435585, 0.9190663, -0.33469158, -0.092970274, 0.18615967
464, 267452252, 0.9230346, -0.32468185, -0.090196915, 0.18561682
465, 267468919, 0.92682314, -0.31464824, -0.08747778, 0.18531916
466, 267485586, 0.9303887, -0.304743, -0.0851816, 0.18507479
467, 267502253, 0.9337791, -0.29465878, -0.083674066, 0.18501784
468, 267518920, 0.9370742, -0.28414902, -0.08259788, 0.1852814
469, 267535587, 0.9402657, -0.27393192, -0.080633506, 0.18536478
470, 267552254, 0.9433109, -0.2642395, -0.077771, 0.18518586
471, 267568921, 0.94616973, -0.254641, -0.07498639, 0.18519767
472, 267585588, 0.94882894, -0.24478947, -0.0731402, 0.18561378
473, 267602255, 0.9513303, -0.23492545, -0.071781, 0.18608703
474, 267618922, 0.95370716, -0.22530371, -0.070255004, 0.18640058
475, 267635589, 0.95601374, -0.21615364, -0.067849204, 0.18631142
476, 267652256, 0.9582104, -0.20733355, -0.06502847, 0.18605706
477, 267668923, 0.9603063, -0.1984269, -0.06258677, 0.18579987
478, 267685590, 0.96225876, -0.1895937, -0.060859047, 0.18549599
479, 267702257, 0.9640868, -0.18092595, -0.059319355, 0.185159
480, 267718924, 0.96580386, -0.1725107, -0.057399046, 0.18484756
481, 267735591, 0.96738315, -0.16415878, -0.055499144, 0.18477485
482, 267752258, 0.96885604, -0.15561526, -0.053773727, 0.18496025
483, 267768925, 0.9702145, -0.14710757, -0.05178865, 0.1853684
484, 267785592, 0.9713907, -0.13874216, -0.049835604, 0.1861918
485, 267802259, 0.9724309, -0.13055074, -0.04786752, 0.18719962
486, 267818926, 0.973364, -0.12259045, -0.045491632, 0.18832101
487, 267835593, 0.9741507, -0.114873774, -0.0427637, 0.18975207
488, 267852260, 0.97480404, -0.10769205, -0.039731003, 0.19126226
489, 267868927, 0.97539026, -0.10064363, -0.03678629, 0.19269542
490, 267885594, 0.97593987, -0.094093785, -0.033681024, 0.19378702
491, 267902261, 0.9764126, -0.08782467, -0.031246757, 0.19475368
492, 267918928, 0.9768345, -0.08168842, -0.029732479, 0.19554456
493, 267935595, 0.97722334, -0.07569706, -0.029124387, 0.19610354
494, 267952262, 0.977579, -0.06977771, -0.02874321, 0.19658157
495, 267968929, 0.977895, -0.06399052, -0.028163854, 0.19706245
496, 267985596, 0.9781723, -0.058403913, -0.027572224, 0.19750425
497, 268002263, 0.97843415, -0.053161446, -0.027086549, 0.19775483
498, 268018930, 0.9786908, -0.048421767, -0.02687013, 0.19773129
499, 268035597, 0.9788771, -0.04375952, -0.027669437, 0.1977855
500, 268052264, 0.9790402, -0.03909032, -0.029130174, 0.19774704
501, 268068931, 0.9791301, -0.03482927, -0.030696623, 0.1978614
502, 268085598, 0.97919977, -0.031236509, -0.0321124, 0.19789183
503, 268102265, 0.9792955, -0.0283773, -0.032616805, 0.19776578
504, 268118932, 0.97939557, -0.026055234, -0.031391844, 0.1977881
505, 268135599, 0.9794798, -0.024459103, -0.028686756, 0.19798575
506, 268152266, 0.9795283, -0.023264695, -0.026406469, 0.19820611
507, 268168933, 0.9795569, -0.022344988, -0.025239097, 0.19832309
508, 268185600, 0.9795474, -0.021548327, -0.02487856, 0.19850406
509, 268202267, 0.97952765, -0.021171972, -0.024279596, 0.19871569
510, 268218934, 0.97952014, -0.021361949, -0.023381395, 0.19884007
511, 268235601, 0.97951716, -0.021765275, -0.023030903, 0.19885191
512, 268252268, 0.9795102, -0.022076298, -0.023467602, 0.1988013
513, 268268935, 0.9794825, -0.022373015, -0.024127714, 0.19882526
514, 268285602, 0.97943765, -0.022876479, -0.024722448, 0.19891572
515, 268302269, 0.97938424, -0.023737112, -0.024930116, 0.19905183
516, 268318936, 0.97934073, -0.024860434, -0.024688743, 0.19915849
517, 268335603, 0.9792983, -0.026005827, -0.023994673, 0.19930594
518, 268352270, 0.9792854, -0.027240405, -0.023577113, 0.19925398
519, 268368937, 0.9792903, -0.02846696, -0.023961565, 0.19901264
520, 268385604, 0.9793501, -0.02983816, -0.02404204, 0.19850788
521, 268402271, 0.97938114, -0.031305227, -0.023410305, 0.19820394
522, 268418938, 0.9793648, -0.032682642, -0.022694904, 0.19814521
523, 268435605, 0.97933716, -0.034157947, -0.022035927, 0.19810744
524, 268452272, 0.9793274, -0.0356876, -0.021188581, 0.19797865
525, 268468939, 0.97931117, -0.03702482, -0.020475041, 0.197888
526, 268485606, 0.979292, -0.03821931, -0.019929366, 0.19781229
527, 268502273, 0.97928524, -0.039338596, -0.019269368, 0.19769098
528, 268518940, 0.9793, -0.04037489, -0.018426597, 0.19748871
529, 268535607, 0.97933865, -0.041422606, -0.01749894, 0.1971648
530, 268552274, 0.9793731, -0.042137668, -0.017159272, 0.19687186
531, 268568941, 0.97938824, -0.042536616, -0.017354243, 0.19669303
532, 268585608, 0.97942406, -0.042794984, -0.018160127, 0.19638588
533, 268602275, 0.97948146, -0.04308753, -0.01887125, 0.19596821
534, 268618942, 0.979547, -0.0435135, -0.018914176, 0.19554226
535, 268635609, 0.9796077, -0.04416602, -0.018401459, 0.19513977
536, 268652276, 0.9796557, -0.044781465, -0.017637486, 0.19482933
537, 268668943, 0.97971, -0.04517146, -0.016808683, 0.19453917
538, 268685610, 0.9797585, -0.04508972, -0.016657272, 0.19432698
539, 268702277, 0.97982943, -0.044642746, -0.017360585, 0.19401076
540, 268718944, 0.9799285, -0.04408771, -0.018585341, 0.19352274
541, 268735611, 0.98003864, -0.043550495, -0.019671643, 0.19297795
542, 268752278, 0.9801148, -0.042989884, -0.020070892, 0.19267601
543, 268768945, 0.98013467, -0.042378858, -0.019515675, 0.19276705
544, 268785612, 0.980136, -0.041876547, -0.018747222, 0.1929467
545, 268802279, 0.98015845, -0.041280612, -0.018681433, 0.19296731
546, 268818946, 0.9802187, -0.040691406, -0.019094009, 0.19274607
547, 268835613, 0.9802794, -0.04018114, -0.01950127, 0.19250436
548, 268852280, 0.980325, -0.039914954, -0.019489639, 0.19232768
549, 268868947, 0.98036814, -0.03996101, -0.018922416, 0.1921544
550, 268885614, 0.98039085, -0.04002029, -0.018120876, 0.19210376
551, 268902281, 0.9803842, -0.039981242, -0.017273255, 0.1922239
552, 268918948, 0.98034316, -0.0400714, -0.016371777, 0.19249308
553, 268935615, 0.9802962, -0.040357273, -0.0155432625, 0.19274119
554, 268952282, 0.9802423, -0.04062394, -0.014922039, 0.19300829
555, 268968949, 0.9801847, -0.0408454, -0.014521177, 0.19328463
556, 268985616, 0.9801163, -0.041162588, -0.014324966, 0.1935788
557, 269002283, 0.9800747, -0.04144147, -0.014365049, 0.19372672
558, 269018950, 0.98005146, -0.041569646, -0.014770578, 0.1937866
559, 269035617, 0.9800538, -0.041591123, -0.015028865, 0.19374983
560, 269052284, 0.98006207, -0.041552845, -0.014921904, 0.19372435
561, 269068951, 0.98005545, -0.04172143, -0.014336736, 0.19376549
562, 269085618, 0.9800596, -0.04187991, -0.013927552, 0.19374026
563, 269102285, 0.98006773, -0.041763637, -0.013843034, 0.19373104
564, 269118952, 0.980067, -0.041522104, -0.01376839, 0.19379163
565, 269135619, 0.98006445, -0.04136039, -0.0134782065, 0.19385928
566, 269152286, 0.9800811, -0.04120135, -0.013296849, 0.19382147
567, 269168953, 0.9801105, -0.040847, -0.0132352235, 0.193752
568, 269185620, 0.9801486, -0.04037987, -0.013243094, 0.19365653
569, 269202287, 0.9801983, -0.03996964, -0.013244394, 0.19349006
570, 269218954, 0.98025763, -0.039691523, -0.013099237, 0.19325683
571, 269235621, 0.9803082, -0.03935488, -0.012851264, 0.19308548
572, 269252288, 0.9803462, -0.038884923, -0.01276147, 0.19299386
573, 269268955, 0.98038757, -0.038513903, -0.012839566, 0.19285226
574, 269285622, 0.98043746, -0.03827479, -0.012834463, 0.19264671
575, 269302289, 0.9804856, -0.03801714, -0.012820896, 0.1924533
576, 269318956, 0.980497, -0.03766979, -0.012813605, 0.19246446
577, 269335623, 0.98048383, -0.037370577, -0.012746882, 0.19259408
578, 269352290, 0.980468, -0.037167225, -0.0125500485, 0.19272757
579, 269368957, 0.98045343, -0.036966536, -0.012265239, 0.1928581
580, 269385624, 0.9804076, -0.03675932, -0.0119153755, 0.19315292
581, 269402291, 0.9803438, -0.036707733, -0.011494397, 0.19351102
582, 269418958, 0.98028135, -0.036798105, -0.010940019, 0.19384196
583, 269435625, 0.9802233, -0.03706203, -0.010346551, 0.19411772
584, 269452292, 0.9801481, -0.037354227, -0.010073959, 0.19445564
585, 269468959, 0.9800397, -0.037579626, -0.010155907, 0.19495411
586, 269485626, 0.9799218, -0.0384517, -0.009291227, 0.19541913
587, 269502293, 0.9797729, -0.040396534, -0.005124935, 0.1959263
588, 269518960, 0.9795527, -0.043460276, 0.003730093, 0.19640243
589, 269535627, 0.9790986, -0.047168482, 0.01712341, 0.19709878
590, 269552294, 0.9782536, -0.051017694, 0.03334898, 0.19825499
591, 269568961, 0.97705203, -0.054429114, 0.049238954, 0.19995661
592, 269585628, 0.97551495, -0.056681868, 0.06406893, 0.20261568
593, 269602295, 0.9734548, -0.05846873, 0.08052989, 0.20611203
594, 269618962, 0.9705143, -0.061001312, 0.1008869, 0.21024428
595, 269635629, 0.9665477, -0.064700566, 0.123662554, 0.21519047
596, 269652296, 0.9622202, -0.067324474, 0.14400867, 0.22104628
597, 269668963, 0.95810854, -0.06814526, 0.1601967, 0.22742325
598, 269685630, 0.95388114, -0.06846334, 0.17519417, 0.23394577
599, 269702297, 0.94889677, -0.06991117, 0.19163997, 0.24079351
600, 269718964, 0.9433573, -0.07191583, 0.2078558, 0.24839725
601, 269735631, 0.93800074, -0.072879136, 0.22124003, 0.25670302
602, 269752298, 0.933067, -0.07240494, 0.23172277, 0.26542088
603, 269768965, 0.92805845, -0.07159539, 0.24144751, 0.27438107
604, 269785632, 0.9224686, -0.07112861, 0.25189716, 0.28379655
605, 269802299, 0.9162677, -0.07078525, 0.26286393, 0.29384652
606, 269818966, 0.9095385, -0.070191935, 0.2742336, 0.30431685
607, 269835633, 0.902349, -0.06928483, 0.2860003, 0.31491292
608, 269852300, 0.894418, -0.068924315, 0.29877564, 0.32557493
609, 269868967, 0.8862832, -0.068623945, 0.31096658, 0.33629256
610, 269885634, 0.878437, -0.06761602, 0.321596, 0.34691894
611, 269902301, 0.8702504, -0.06653556, 0.33233783, 0.35747585
612, 269918968, 0.8616109, -0.06551399, 0.34335664, 0.36802307
613, 269935635, 0.85313386, -0.06450051, 0.3535462, 0.37816378
614, 269952302, 0.84514356, -0.06299128, 0.36243117, 0.38782528
615, 269968969, 0.83729947, -0.06146802, 0.37076396, 0.39709628
616, 269985636, 0.8293423, -0.060525663, 0.37895718, 0.40610287
617, 270002303, 0.8218006, -0.059291255, 0.38606563, 0.41482738
618, 270018970, 0.8148462, -0.05729659, 0.3917703, 0.4233897
619, 270035637, 0.80784804, -0.055669263, 0.3975023, 0.43159533
620, 270052304, 0.80115783, -0.05409965, 0.40276423, 0.43931815
621, 270068971, 0.7945759, -0.05269341, 0.4077994, 0.4467352
622, 270085638, 0.7878244, -0.05134685, 0.41294587, 0.45406184
623, 270102305, 0.78096515, -0.049509726, 0.41800344, 0.46142784
624, 270118972, 0.7743418, -0.04698484, 0.4228956, 0.4683444
625, 270135639, 0.7682122, -0.04410278, 0.42746592, 0.4745292
626, 270152306, 0.76118183, -0.042010475, 0.4329506, 0.48103157
627, 270168973, 0.7536693, -0.03992446, 0.43881348, 0.48767948
628, 270185640, 0.7461897, -0.03702618, 0.44461513, 0.49411276
629, 270202307, 0.73861456, -0.03416554, 0.45051304, 0.50031936
630, 270218974, 0.7308726, -0.031464133, 0.45645002, 0.50644743
631, 270235641, 0.7224502, -0.029083312, 0.46328607, 0.5124317
632, 270252308, 0.7134417, -0.027013812, 0.47099954, 0.51810294
633, 270268975, 0.7037095, -0.025102273, 0.47940487, 0.523769
634, 270285642, 0.6943866, -0.022386886, 0.48738077, 0.5289482
635, 270302309, 0.6854379, -0.019390859, 0.49504524, 0.5336002
636, 270318976, 0.677113, -0.017025495, 0.50245893, 0.5373668
637, 270335643, 0.66856724, -0.014834703, 0.5095018, 0.54148465
638, 270352310, 0.6603397, -0.012216474, 0.51570463, 0.54575723
639, 270368977, 0.6518528, -0.009818187, 0.5214461, 0.55053216
640, 270385644, 0.6441666, -0.0073076254, 0.5261188, 0.55515313
641, 270402311, 0.6374874, -0.0043753763, 0.5297402, 0.55943364
642, 270418978, 0.6303007, -0.001980302, 0.5333485, 0.5641422
643, 270435645, 0.62273324, 3.3610966E-5, 0.53696376, 0.5690987
644, 270452312, 0.6154411, 0.002130432, 0.5402886, 0.5738606
645, 270468979, 0.60821825, 0.004182038, 0.543502, 0.5784972
646, 270485646, 0.6009402, 0.006399136, 0.5466134, 0.583133
647, 270502313, 0.59396666, 0.008848708, 0.54966927, 0.58735776
648, 270518980, 0.5868161, 0.011368696, 0.5529467, 0.59141165
649, 270535647, 0.5787625, 0.013140673, 0.55670685, 0.5957677
650, 270552314, 0.57066506, 0.014871007, 0.5605917, 0.5998809
651, 270568981, 0.5626608, 0.016652837, 0.5645379, 0.6036825
652, 270585648, 0.55461425, 0.018416677, 0.5685948, 0.60725933
653, 270602315, 0.5465275, 0.02012435, 0.57274544, 0.61062706
654, 270618982, 0.53832126, 0.021417426, 0.5769553, 0.6139009
655, 270635649, 0.5296607, 0.021986926, 0.5813093, 0.6172971
656, 270652316, 0.52103037, 0.022387037, 0.5854694, 0.6206868
657, 270668983, 0.5127463, 0.02295145, 0.58927107, 0.6239586
658, 270685650, 0.5054874, 0.024195282, 0.59240305, 0.6268621
659, 270702317, 0.49837008, 0.025171302, 0.59531534, 0.6297567
660, 270718984, 0.49119946, 0.025714532, 0.59809685, 0.632726
661, 270735651, 0.48437542, 0.026548631, 0.6005725, 0.63560086
662, 270752318, 0.47851184, 0.027853556, 0.6025038, 0.63815373
663, 270768985, 0.47381306, 0.030077655, 0.6039095, 0.6402264
664, 270785652, 0.4690165, 0.031689227, 0.6051677, 0.6424885
665, 270802319, 0.46419767, 0.033114966, 0.6062192, 0.64492035
666, 270818986, 0.45961404, 0.0343508, 0.6069864, 0.64741224
667, 270835653, 0.45493534, 0.03549272, 0.6075028, 0.6501651
668, 270852320, 0.45053515, 0.037019998, 0.60759574, 0.65305054
669, 270868987, 0.446809, 0.03895585, 0.6072402, 0.6558228
670, 270885654, 0.44342822, 0.04100423, 0.6067141, 0.65847427
671, 270902321, 0.4394223, 0.042286254, 0.6065022, 0.66126794
672, 270918988, 0.4351025, 0.04351492, 0.6063172, 0.66420746
673, 270935655, 0.43124393, 0.045015413, 0.60599124, 0.66691595
674, 270952322, 0.42764995, 0.046871014, 0.6057256, 0.6693393
675, 270968989, 0.42416158, 0.048551943, 0.6055532, 0.6715914
676, 270985656, 0.4207931, 0.05022551, 0.6055763, 0.67356366
677, 271002323, 0.41699857, 0.05170674, 0.605952, 0.6754709
678, 271018990, 0.41303328, 0.05320158, 0.6065086, 0.6772892
679, 271035657, 0.40927014, 0.05521893, 0.60724306, 0.6787523
680, 271052324, 0.40541077, 0.05711161, 0.6081708, 0.68008006
681, 271068991, 0.40148363, 0.058802597, 0.6092824, 0.6812695
682, 271085658, 0.39760914, 0.06030656, 0.61050177, 0.6823179
683, 271102325, 0.39374703, 0.061894517, 0.61182755, 0.6832271
684, 271118992, 0.3895099, 0.06346426, 0.6133793, 0.6841202
685, 271135659, 0.3858048, 0.06528818, 0.6147343, 0.68483126
686, 271152326, 0.38231674, 0.067287266, 0.6160228, 0.68543595
687, 271168993, 0.3786112, 0.06870003, 0.6173101, 0.686194
688, 271185660, 0.3760158, 0.07098201, 0.6181393, 0.6866422
689, 271202327, 0.37331253, 0.07326413, 0.61879706, 0.6872849
690, 271218994, 0.3697666, 0.07491174, 0.61933297, 0.6885404
691, 271235661, 0.3664862, 0.07692013, 0.6196499, 0.68978643
692, 271252328, 0.3641342, 0.08008146, 0.6195192, 0.69078887
693, 271268995, 0.3618691, 0.08329377, 0.6192038, 0.6918813
694, 271285662, 0.35895082, 0.08601876, 0.61896086, 0.69328386
695, 271302329, 0.35570917, 0.08839581, 0.61874104, 0.69485015
696, 271318996, 0.35236725, 0.09096979, 0.61856, 0.6963802
697, 271335663, 0.34927836, 0.093727216, 0.61850756, 0.6976162
698, 271352330, 0.3466115, 0.096230954, 0.61846405, 0.69864327
699, 271368997, 0.34350592, 0.09743017, 0.61862266, 0.6998694
700, 271385664, 0.33998293, 0.097440064, 0.6190215, 0.7012343
701, 271402331, 0.33705357, 0.09690497, 0.6194374, 0.70235443
702, 271418998, 0.33479267, 0.09687447, 0.62016284, 0.7027997
703, 271435665, 0.33246255, 0.09484624, 0.62143075, 0.7030626
704, 271452332, 0.32937008, 0.09151416, 0.62289184, 0.70366645
705, 271468999, 0.3260025, 0.088434175, 0.62457967, 0.70413214
706, 271485666, 0.3227971, 0.086519025, 0.6260022, 0.70458347
707, 271502333, 0.31996012, 0.085875355, 0.6272167, 0.7048762
708, 271519000, 0.31649962, 0.083805196, 0.6285084, 0.7055367
709, 271535667, 0.31266662, 0.08218791, 0.62946534, 0.70658207
710, 271552334, 0.30855617, 0.081537515, 0.6300346, 0.70795566
711, 271569001, 0.3038824, 0.081144705, 0.6304162, 0.70968056
712, 271585668, 0.29899144, 0.08046595, 0.6307428, 0.7115426
713, 271602335, 0.29438838, 0.07969123, 0.6308018, 0.7134941
714, 271619002, 0.28975448, 0.07962946, 0.630752, 0.7154395
715, 271635669, 0.2860658, 0.08111909, 0.630538, 0.7169437
716, 271652336, 0.28270653, 0.08268522, 0.63043445, 0.71818703
717, 271669003, 0.28028578, 0.08381291, 0.6304854, 0.71896017
718, 271685670, 0.27869445, 0.08433385, 0.63087815, 0.7191732
719, 271702337, 0.278749, 0.08499836, 0.6314772, 0.7185478
720, 271719004, 0.2797813, 0.08581104, 0.6319283, 0.7176527
721, 271735671, 0.2810079, 0.08621918, 0.63229775, 0.71679896
722, 271752338, 0.28230068, 0.08593693, 0.63266325, 0.71600175
723, 271769005, 0.2837559, 0.085700706, 0.6328859, 0.71525776
724, 271785672, 0.28524238, 0.08539965, 0.6329354, 0.7146583
725, 271802339, 0.28628355, 0.08481282, 0.6325688, 0.7146366
726, 271819006, 0.2866823, 0.083854735, 0.63218206, 0.71493185
727, 271835673, 0.2869157, 0.08285177, 0.63186586, 0.7152347
728, 271852340, 0.2869042, 0.08194468, 0.63169324, 0.7154961
729, 271869007, 0.28659472, 0.08093542, 0.6315402, 0.71587014
730, 271885674, 0.28651458, 0.08034667, 0.6312153, 0.7162549
731, 271902341, 0.28613546, 0.07945439, 0.6309166, 0.71676904
732, 271919008, 0.2856181, 0.07834946, 0.6306764, 0.7173083
733, 271935675, 0.28555426, 0.078166865, 0.6303857, 0.71760905
734, 271952342, 0.28539583, 0.07787891, 0.6302317, 0.7178387
735, 271969009, 0.28528488, 0.07756336, 0.63017565, 0.71796614
736, 271985676, 0.28516874, 0.07735374, 0.63024235, 0.71797633
737, 272002343, 0.28514883, 0.07737618, 0.63046044, 0.71779025
738, 272019010, 0.2853432, 0.07748591, 0.6307816, 0.71741897
739, 272035677, 0.28584394, 0.07764095, 0.6310586, 0.716959
740, 272052344, 0.28645635, 0.077574044, 0.6312963, 0.7165125
741, 272069011, 0.2870057, 0.077257834, 0.6315375, 0.71611416
742, 272085678, 0.28779918, 0.07717759, 0.6315873, 0.7157603
743, 272102345, 0.28856927, 0.07712252, 0.63154984, 0.7154893
744, 272119012, 0.28906462, 0.07686157, 0.6315708, 0.7152988
745, 272135679, 0.28936124, 0.07655092, 0.63171136, 0.715088
746, 272152346, 0.2893559, 0.07603207, 0.6318517, 0.7150217
747, 272169013, 0.28903264, 0.07553257, 0.6319796, 0.71509224
748, 272185680, 0.28860494, 0.07492748, 0.63220507, 0.71512926
749, 272202347, 0.2883195, 0.074579954, 0.6325446, 0.7149806
750, 272219014, 0.28825754, 0.07435596, 0.63291436, 0.71470153
751, 272235681, 0.2880974, 0.0740086, 0.63322467, 0.7145273
752, 272252348, 0.2880983, 0.07353383, 0.63353103, 0.7143043
753, 272269015, 0.28868622, 0.07343072, 0.633709, 0.7139196
754, 272285682, 0.289494, 0.073272064, 0.6338203, 0.7135099
755, 272302349, 0.2902698, 0.072983794, 0.6338976, 0.7131555
756, 272319016, 0.29086724, 0.07278578, 0.6339595, 0.71287715
757, 272335683, 0.29114604, 0.07254175, 0.634101, 0.7126625
758, 272352350, 0.29130572, 0.07259628, 0.6341819, 0.7125195
759, 272369017, 0.2913495, 0.072719336, 0.6341967, 0.7124759
760, 272385684, 0.29119828, 0.072688974, 0.6341398, 0.7125915
761, 272402351, 0.2909364, 0.07267268, 0.6340077, 0.7128176
762, 272419018, 0.29044566, 0.072299495, 0.6338147, 0.7132272
763, 272435685, 0.29001957, 0.07187007, 0.63359594, 0.7136382
764, 272452352, 0.28981593, 0.07144985, 0.63337755, 0.71395695
765, 272469019, 0.28976312, 0.071127824, 0.63316685, 0.7141975
766, 272485686, 0.2897334, 0.07081086, 0.6330121, 0.71437824
767, 272502353, 0.28981745, 0.07078084, 0.63280076, 0.71453434
768, 272519020, 0.28997445, 0.070959374, 0.63262784, 0.71460605
769, 272535687, 0.28999072, 0.07111379, 0.6324856, 0.7147099
770, 272552354, 0.290039, 0.07148686, 0.63231355, 0.7148053
771, 272569021, 0.28991875, 0.07178244, 0.63215786, 0.7149621
772, 272585688, 0.28961623, 0.0719452, 0.6319927, 0.7152144
773, 272602355, 0.2894051, 0.07215181, 0.6318059, 0.71544415
774, 272619022, 0.28909734, 0.07207174, 0.63162816, 0.71573335
775, 272635689, 0.28874585, 0.07181762, 0.6315755, 0.7159473
776, 272652356, 0.28845176, 0.07161311, 0.6314264, 0.7162178
777, 272669023, 0.288191, 0.0712798, 0.6312748, 0.7164897
778, 272685690, 0.28786677, 0.07071112, 0.6311772, 0.71676224
779, 272702357, 0.28775445, 0.07026312, 0.63102937, 0.71698153
780, 272719024, 0.2877121, 0.0699007, 0.6308323, 0.71720725
781, 272735691, 0.28753838, 0.06941661, 0.6306279, 0.7175038
782, 272752358, 0.28755507, 0.069116786, 0.63043094, 0.71769893
783, 272769025, 0.28775573, 0.0688458, 0.63031346, 0.71774775
784, 272785692, 0.2879646, 0.0685784, 0.6302812, 0.71771795
785, 272802359, 0.28814858, 0.068256184, 0.6302716, 0.71768326
786, 272819026, 0.28838885, 0.06798435, 0.6303078, 0.71758074
787, 272835693, 0.28864944, 0.067910776, 0.6304016, 0.71740055
788, 272852360, 0.28895167, 0.06789346, 0.6305211, 0.7171755
789, 272869027, 0.28916872, 0.06773502, 0.6306708, 0.7169713
790, 272885694, 0.2893304, 0.06741758, 0.6308337, 0.7167927
791, 272902361, 0.28958994, 0.06711295, 0.6309518, 0.7166126
792, 272919028, 0.2900381, 0.06674447, 0.63106674, 0.7163644
793, 272935695, 0.2906955, 0.06625701, 0.6312242, 0.71600443
794, 272952362, 0.29140723, 0.06555099, 0.6314455, 0.7155849
795, 272969029, 0.29220945, 0.06478432, 0.6316346, 0.71516037
796, 272985696, 0.2931002, 0.06387413, 0.6317891, 0.71474123
797, 273002363, 0.29417178, 0.06293007, 0.6319123, 0.71427566
798, 273019030, 0.29543316, 0.061833944, 0.63199514, 0.7137773
799, 273035697, 0.29699275, 0.060693704, 0.63208735, 0.71314603
800, 273052364, 0.2984726, 0.059311006, 0.6323069, 0.71244955
801, 273069031, 0.29992902, 0.05795329, 0.632534, 0.71174765
802, 273085698, 0.30161366, 0.056811307, 0.6326746, 0.71100265
803, 273102365, 0.3032144, 0.05539656, 0.63279605, 0.7103249
804, 273119032, 0.305008, 0.05426581, 0.63277096, 0.70966655
805, 273135699, 0.30738577, 0.05376555, 0.63233906, 0.70906323
806, 273152366, 0.31006762, 0.053430058, 0.63137615, 0.70877886
807, 273169033, 0.31313542, 0.053113747, 0.6298824, 0.708783
808, 273185700, 0.31658474, 0.05262916, 0.6279631, 0.7089899
809, 273202367, 0.3206819, 0.05256419, 0.6254668, 0.70935994
810, 273219034, 0.32537615, 0.052739747, 0.62248075, 0.7098357
811, 273235701, 0.33072093, 0.052843217, 0.61911315, 0.71030295
812, 273252368, 0.33636284, 0.05284994, 0.6155282, 0.71076876
813, 273269035, 0.34186745, 0.05248571, 0.6118985, 0.71130323
814, 273285702, 0.34721565, 0.052124273, 0.6084147, 0.71172744
815, 273302369, 0.35258985, 0.05205302, 0.604833, 0.7121433
816, 273319036, 0.3584021, 0.052692264, 0.60119593, 0.71227455
817, 273335703, 0.3642849, 0.05324989, 0.59778154, 0.7121224
818, 273352370, 0.37023225, 0.053422507, 0.594642, 0.7116705
819, 273369037, 0.37678233, 0.054278344, 0.59159577, 0.7107063
820, 273385704, 0.38328692, 0.054792225, 0.5885096, 0.7097503
821, 273402371, 0.3894634, 0.054908354, 0.5855547, 0.7088223
822, 273419038, 0.39615396, 0.05536943, 0.58259386, 0.70751745
823, 273435705, 0.40348205, 0.05587688, 0.5795576, 0.7058279
824, 273452372, 0.41126746, 0.05639334, 0.57666457, 0.7036596
825, 273469039, 0.4183048, 0.055815253, 0.57406694, 0.701679
826, 273485706, 0.42444915, 0.05411054, 0.5717105, 0.7000444
827, 273502373, 0.43086776, 0.0524504, 0.56936795, 0.69815624
828, 273519040, 0.4386304, 0.051724087, 0.5667311, 0.695517
829, 273535707, 0.44835937, 0.05208519, 0.5636971, 0.6917418
830, 273552374, 0.45860904, 0.05206091, 0.5606378, 0.6874975
831, 273569041, 0.46712226, 0.04977963, 0.5579861, 0.6840836
832, 273585708, 0.4749567, 0.04636357, 0.55554855, 0.6809058
833, 273602375, 0.48374653, 0.043430477, 0.5526273, 0.6772785
834, 273619042, 0.49413028, 0.041243497, 0.5491469, 0.67273474
835, 273635709, 0.50518376, 0.03906341, 0.5455115, 0.66759324
836, 273652376, 0.51554936, 0.03592405, 0.54192513, 0.6627486
837, 273669043, 0.5253236, 0.032159682, 0.53821135, 0.65827763
838, 273685710, 0.5343282, 0.027424121, 0.5346358, 0.65414524
839, 273702377, 0.5440017, 0.023306195, 0.53045386, 0.64972115
840, 273719044, 0.5553077, 0.021252463, 0.5250979, 0.64455736
841, 273735711, 0.5673682, 0.019734425, 0.5185698, 0.63936627
842, 273752378, 0.57841414, 0.01723277, 0.5123763, 0.63451636
843, 273769045, 0.5875056, 0.012122906, 0.50739956, 0.63026667
844, 273785712, 0.59668803, 0.0071280384, 0.50252736, 0.62560284
845, 273802379, 0.6080046, 0.00502057, 0.4963609, 0.6196219
846, 273819046, 0.61918145, 0.0026935358, 0.48999715, 0.6136043
847, 273835713, 0.62826556, -0.001964077, 0.48485148, 0.6084388
848, 273852380, 0.63523114, -0.009295508, 0.48121837, 0.6040065
849, 273869047, 0.64289236, -0.015076965, 0.4769038, 0.5991868
850, 273885714, 0.65283144, -0.016869813, 0.47058377, 0.59336144
851, 273902381, 0.66357416, -0.017206743, 0.46316344, 0.587242
852, 273919048, 0.67421085, -0.017040566, 0.4554199, 0.5811559
853, 273935715, 0.68413293, -0.017562943, 0.44774997, 0.57547694
854, 273952382, 0.6941741, -0.01779417, 0.43945634, 0.56981045
855, 273969049, 0.704985, -0.017355308, 0.43013492, 0.5636302
856, 273985716, 0.71656543, -0.015701, 0.4195859, 0.5569877
857, 274002383, 0.7277392, -0.014732866, 0.40861958, 0.5506439
858, 274019050, 0.7376379, -0.015446741, 0.39865604, 0.5447247
859, 274035717, 0.74733764, -0.016539458, 0.3886833, 0.5386448
860, 274052384, 0.75811076, -0.01584996, 0.37706816, 0.5318238
861, 274069051, 0.77005935, -0.012975501, 0.3636971, 0.5239893
862, 274085718, 0.78196883, -0.009735767, 0.34974146, 0.5158596
863, 274102385, 0.7920241, -0.009307617, 0.3374078, 0.5086919
864, 274119052, 0.80067515, -0.010935646, 0.32657903, 0.5021415
865, 274135719, 0.80915797, -0.012378627, 0.315697, 0.49542496
866, 274152386, 0.81853926, -0.011256921, 0.30282623, 0.48801976
867, 274169053, 0.8283235, -0.008207989, 0.2886108, 0.48012143
868, 274185720, 0.8375475, -0.005222896, 0.274073, 0.4726212
869, 274202387, 0.8458364, -0.0032871168, 0.26023403, 0.46564844
870, 274219054, 0.85344595, -0.002064692, 0.24720635, 0.45881894
871, 274235721, 0.8609357, -2.6712846E-4, 0.23391613, 0.45174444
872, 274252388, 0.86844665, 0.0022629562, 0.21945861, 0.44455987
873, 274269055, 0.8760071, 0.0062994957, 0.20339726, 0.43726593
874, 274285722, 0.88322526, 0.010403175, 0.18707548, 0.42989266
875, 274302389, 0.8894919, 0.01315113, 0.17241254, 0.42297196
876, 274319056, 0.8950427, 0.013459736, 0.16023906, 0.4159821
877, 274335723, 0.90015835, 0.012002537, 0.15001208, 0.40873897
878, 274352390, 0.90511245, 0.010766581, 0.1397448, 0.40140623
879, 274369057, 0.910121, 0.010422061, 0.12859966, 0.39374286
880, 274385724, 0.91505843, 0.010421965, 0.117244765, 0.38576308
881, 274402391, 0.9197896, 0.009953884, 0.106274456, 0.37761596
882, 274419058, 0.9244166, 0.008887278, 0.09549912, 0.36912736
883, 274435725, 0.9288314, 0.007836048, 0.08455061, 0.36064124
884, 274452392, 0.93315464, 0.0065077334, 0.073765695, 0.3517655
885, 274469059, 0.9373147, 0.004561458, 0.06386201, 0.3425522
886, 274485726, 0.94138396, 0.0015329272, 0.054592863, 0.33288693
887, 274502393, 0.9453757, -0.0023250112, 0.046079267, 0.32270163
888, 274519060, 0.94922304, -0.0063445666, 0.038360402, 0.31219223
889, 274535727, 0.95290226, -0.0099974545, 0.031285234, 0.30149415
890, 274552394, 0.9565183, -0.012898888, 0.023126718, 0.29046828
891, 274569061, 0.9598793, -0.015346577, 0.013453485, 0.27967048
892, 274585728, 0.9629101, -0.01838363, 0.0044430145, 0.26915902
893, 274602395, 0.96573526, -0.021494102, -0.003413825, 0.25861543
894, 274619062, 0.96832025, -0.024670085, -0.010002236, 0.24828915
895, 274635729, 0.9706789, -0.027449341, -0.016407102, 0.23824286
896, 274652396, 0.9727807, -0.029805617, -0.02355484, 0.22859295
897, 274669063, 0.9745478, -0.03205394, -0.030631885, 0.21975228
898, 274685730, 0.9758786, -0.034128107, -0.037878733, 0.21227728
899, 274702397, 0.97701466, -0.035309717, -0.04483321, 0.20539168
900, 274719064, 0.97799623, -0.036566813, -0.049957782, 0.19922522
901, 274735731, 0.9787758, -0.038010366, -0.05289537, 0.19430766
902, 274752398, 0.9793305, -0.039060447, -0.05537332, 0.19057834
903, 274769065, 0.97963434, -0.040102206, -0.05822704, 0.18793088
904, 274785732, 0.97969383, -0.041032586, -0.06103328, 0.18652458
905, 274802399, 0.9795172, -0.04207397, -0.06364194, 0.1863477
906, 274819066, 0.9793704, -0.043661788, -0.06412115, 0.18658957
907, 274835733, 0.97923946, -0.04575525, -0.0628471, 0.18720832
908, 274852400, 0.9790696, -0.047611296, -0.06153615, 0.18806806
909, 274869067, 0.9788455, -0.04910258, -0.060874622, 0.18906339
910, 274885734, 0.97861403, -0.050226323, -0.060929943, 0.18994631
911, 274902401, 0.9783675, -0.051111557, -0.061826628, 0.19068871
912, 274919068, 0.9781378, -0.051939584, -0.062714174, 0.19135223
913, 274935735, 0.9779785, -0.05301537, -0.06252393, 0.19193229
914, 274952402, 0.9779085, -0.054246504, -0.061501063, 0.19227575
915, 274969069, 0.9778352, -0.055174813, -0.061224125, 0.19247244
916, 274985736, 0.9777129, -0.05567476, -0.061500687, 0.1928616
917, 275002403, 0.97757375, -0.055939928, -0.06141982, 0.19351536
918, 275019070, 0.9774241, -0.05627576, -0.061463192, 0.1941589
919, 275035737, 0.97731507, -0.05663976, -0.0618087, 0.1944921
920, 275052404, 0.977247, -0.056907088, -0.062067084, 0.19467308
921, 275069071, 0.97723395, -0.05687849, -0.061996575, 0.19476964
922, 275085738, 0.97724164, -0.056916982, -0.0617799, 0.19478843
923, 275102405, 0.9772771, -0.057237834, -0.06167378, 0.19455002
924, 275119072, 0.9773362, -0.057569668, -0.06178696, 0.1941188
925, 275135739, 0.9774076, -0.057998296, -0.06166423, 0.1936712
926, 275152406, 0.97750545, -0.058658455, -0.060892284, 0.1932215
927, 275169073, 0.977618, -0.059233643, -0.059970792, 0.19276412
928, 275185740, 0.97767514, -0.059381105, -0.05944935, 0.19259062
929, 275202407, 0.9776753, -0.05922452, -0.05897425, 0.19278373
930, 275219074, 0.977658, -0.059036795, -0.058117226, 0.19318916
931, 275235741, 0.97761256, -0.058762908, -0.057321943, 0.19373964
932, 275252408, 0.9775339, -0.05830028, -0.05689603, 0.19440079
933, 275269075, 0.97745776, -0.05781841, -0.05621166, 0.19512498
934, 275285742, 0.9774485, -0.05758568, -0.055082675, 0.19556168
935, 275302409, 0.97748995, -0.057577547, -0.053677503, 0.19574791
936, 275319076, 0.9775341, -0.05768815, -0.052474644, 0.19582017
937, 275335743, 0.97757745, -0.057874072, -0.051280003, 0.19586588
938, 275352410, 0.9776264, -0.058082808, -0.049891785, 0.19591866
939, 275369077, 0.97769344, -0.058432315, -0.048401214, 0.19585346
940, 275385744, 0.9777553, -0.058737535, -0.047021598, 0.19578938
941, 275402411, 0.9777819, -0.058987785, -0.045728497, 0.19588794
942, 275419078, 0.97777593, -0.059418526, -0.04414164, 0.19615106
943, 275435745, 0.97776616, -0.059926737, -0.0424319, 0.19642274
944, 275452412, 0.97773665, -0.060407035, -0.040967613, 0.19673292
945, 275469079, 0.977686, -0.060684405, -0.03985657, 0.19712684
946, 275485746, 0.97760713, -0.060888007, -0.038941704, 0.19763751
947, 275502413, 0.9775178, -0.061218675, -0.03798578, 0.19816239
948, 275519080, 0.97744405, -0.061833955, -0.03658379, 0.19859834
949, 275535747, 0.97738606, -0.06245183, -0.034712538, 0.19902624
950, 275552414, 0.977314, -0.063127965, -0.032547478, 0.19953205
951, 275569081, 0.97722083, -0.063685276, -0.030793892, 0.20008859
952, 275585748, 0.9771142, -0.063988954, -0.02997324, 0.20063667
953, 275602415, 0.97701377, -0.06397193, -0.029730394, 0.20116585
954, 275619082, 0.97691405, -0.06397074, -0.029504145, 0.20168364
955, 275635749, 0.97681075, -0.06422938, -0.02903679, 0.20216972
956, 275652416, 0.9767222, -0.064673714, -0.028136162, 0.20258242
957, 275669083, 0.9766495, -0.06505202, -0.027231999, 0.2029345
958, 275685750, 0.9765987, -0.06526146, -0.026720526, 0.20317931
959, 275702417, 0.9765529, -0.06531527, -0.02671366, 0.20338373
960, 275719084, 0.97650284, -0.06529883, -0.02705006, 0.20358472
961, 275735751, 0.9764395, -0.0654607, -0.027120803, 0.20382696
962, 275752418, 0.9763568, -0.06587236, -0.026635775, 0.20415424
963, 275769085, 0.97627354, -0.06649359, -0.025604287, 0.20448281
964, 275785752, 0.97618955, -0.06701287, -0.024700033, 0.20482494
965, 275802419, 0.9761043, -0.06738462, -0.024275362, 0.20516008
966, 275819086, 0.97600406, -0.06763659, -0.024240028, 0.20555705
967, 275835753, 0.97587293, -0.067877576, -0.024455396, 0.20607476
968, 275852420, 0.9757276, -0.06823871, -0.024511278, 0.2066367
969, 275869087, 0.9755796, -0.06860725, -0.024253793, 0.2072421
970, 275885754, 0.9754364, -0.06896937, -0.023901781, 0.2078361
971, 275902421, 0.9752677, -0.06937322, -0.023402413, 0.2085492
972, 275919088, 0.97507906, -0.06979556, -0.022714026, 0.20936432
973, 275935755, 0.9748605, -0.07029485, -0.021986252, 0.21029072
974, 275952422, 0.9746312, -0.070686996, -0.021470582, 0.21127382
975, 275969089, 0.9743988, -0.07104036, -0.021212596, 0.21225078
976, 275985756, 0.9741716, -0.071430326, -0.021175256, 0.21316443
977, 276002423, 0.9739506, -0.0720298, -0.021080537, 0.21398027
978, 276019090, 0.9737193, -0.07270302, -0.020868873, 0.21482475
979, 276035757, 0.9734653, -0.073470965, -0.020514771, 0.21574657
980, 276052424, 0.9732031, -0.074144475, -0.020191064, 0.2167275
981, 276069091, 0.97294885, -0.07484819, -0.019886421, 0.21765327
982, 276085758, 0.9726933, -0.07558275, -0.019878926, 0.21854001
983, 276102425, 0.9724474, -0.07636262, -0.020151623, 0.21933708
984, 276119092, 0.9722147, -0.07710486, -0.020478228, 0.22007757
985, 276135759, 0.9720071, -0.07781879, -0.020754008, 0.2207167
986, 276152426, 0.971835, -0.07863792, -0.02103988, 0.22115614
987, 276169093, 0.9716915, -0.07961717, -0.021328058, 0.22140908
988, 276185760, 0.97158813, -0.08059451, -0.021622574, 0.22148
989, 276202427, 0.97150207, -0.08151885, -0.021917721, 0.22149074
990, 276219094, 0.9714566, -0.0824733, -0.02202222, 0.22132626
991, 276235761, 0.97143644, -0.083258435, -0.022339523, 0.22108899
992, 276252428, 0.9714088, -0.08391079, -0.023138119, 0.2208819
993, 276269095, 0.9713664, -0.084552065, -0.024155946, 0.22071429
994, 276285762, 0.9713334, -0.08543854, -0.024825599, 0.2204437
995, 276302429, 0.9713136, -0.08649101, -0.025023362, 0.2200973
996, 276319096, 0.971314, -0.087393306, -0.025117187, 0.2197283
997, 276335763, 0.9713064, -0.08808648, -0.02552621, 0.21943831
998, 276352430, 0.97129875, -0.08858923, -0.02648903, 0.21915542
999, 276369097, 0.9713198, -0.08909488, -0.02744224, 0.2187397
1000, 276385764, 0.9713565, -0.08967076, -0.028008176, 0.21826898
1001, 276402431, 0.9713939, -0.09031135, -0.028179856, 0.21781607
1002, 276419098, 0.9714278, -0.09094974, -0.028098255, 0.21740904
1003, 276435765, 0.9714443, -0.09164882, -0.027921254, 0.21706465
1004, 276452432, 0.9714695, -0.092315674, -0.02806591, 0.21665002
1005, 276469099, 0.97150016, -0.09297294, -0.028383663, 0.21619004
1006, 276485766, 0.97153324, -0.09363911, -0.02859457, 0.2157253
1007, 276502433, 0.97156054, -0.094302684, -0.028529678, 0.21532163
1008, 276519100, 0.9715738, -0.0949971, -0.028439013, 0.21496806
1009, 276535767, 0.9715905, -0.09560642, -0.028599028, 0.21460147
1010, 276552434, 0.97160476, -0.09623693, -0.028894497, 0.214215
1011, 276569101, 0.9716456, -0.09685226, -0.029188579, 0.21371181
1012, 276585768, 0.9716959, -0.09749062, -0.029440003, 0.21315734
1013, 276602435, 0.9717525, -0.09808378, -0.029802974, 0.21257573
1014, 276619102, 0.9718034, -0.09866745, -0.030210001, 0.21201521
1015, 276635769, 0.9718553, -0.099245474, -0.030444529, 0.21147314
1016, 276652436, 0.97190785, -0.0999151, -0.030428171, 0.21091786
1017, 276669103, 0.9719532, -0.100597285, -0.03034352, 0.21039648
1018, 276685770, 0.9719883, -0.10114956, -0.030448541, 0.2099536
1019, 276702437, 0.9720086, -0.10162464, -0.030547932, 0.20961535
1020, 276719104, 0.9720157, -0.10209092, -0.030581335, 0.2093514
1021, 276735771, 0.9720035, -0.10256084, -0.030548178, 0.20918286
1022, 276752438, 0.97199035, -0.10299973, -0.030386453, 0.20905219
1023, 276769105, 0.971983, -0.10338173, -0.030205453, 0.20892388
1024, 276785772, 0.9719704, -0.10361154, -0.03017569, 0.20887291
1025, 276802439, 0.971974, -0.103800505, -0.030077565, 0.20877627
1026, 276819106, 0.9719629, -0.10396019, -0.03006627, 0.20874995
1027, 276835773, 0.9719498, -0.104050316, -0.030056823, 0.2087674
1028, 276852440, 0.9719346, -0.104041375, -0.029984415, 0.20885304
1029, 276869107, 0.97192025, -0.1040231, -0.029613055, 0.20898183
1030, 276885774, 0.9719047, -0.10397258, -0.029285174, 0.20912552
1031, 276902441, 0.97186744, -0.10399806, -0.028868377, 0.20934376
1032, 276919108, 0.9718131, -0.10394187, -0.028425714, 0.20968443
1033, 276935775, 0.9717455, -0.103873916, -0.027757155, 0.21012041
1034, 276952442, 0.97168, -0.10377487, -0.027128266, 0.21055365
1035, 276969109, 0.9716242, -0.103671424, -0.026605975, 0.21092854
1036, 276985776, 0.9715853, -0.103533976, -0.026233267, 0.21122165
1037, 277002443, 0.97154397, -0.10338216, -0.02597584, 0.21151747
1038, 277019110, 0.9715189, -0.103204735, -0.025816109, 0.21173929
1039, 277035777, 0.9715067, -0.10321442, -0.025474973, 0.21183155
1040, 277052444, 0.9715312, -0.10331409, -0.02491343, 0.21173732
1041, 277069111, 0.97157574, -0.10349554, -0.02429806, 0.21151604
1042, 277085778, 0.9716291, -0.103573486, -0.023850558, 0.21128428
1043, 277102445, 0.9716743, -0.10356514, -0.023493031, 0.21111973
1044, 277119112, 0.97172093, -0.10354352, -0.023064239, 0.21096326
1045, 277135779, 0.97176737, -0.10351571, -0.022665175, 0.21080571
1046, 277152446, 0.9718221, -0.10341579, -0.022534546, 0.21061651
1047, 277169113, 0.9718726, -0.10319941, -0.02261741, 0.2104809
1048, 277185780, 0.97190976, -0.10300203, -0.022602564, 0.21040732
1049, 277202447, 0.971941, -0.10291066, -0.02225886, 0.21034414
1050, 277219114, 0.9719779, -0.10288577, -0.021743549, 0.21024
1051, 277235781, 0.9720248, -0.10273691, -0.021426482, 0.21012843
1052, 277252448, 0.97208583, -0.102505095, -0.021381043, 0.20996355
1053, 277269115, 0.97213846, -0.10232134, -0.0212933, 0.209819
1054, 277285782, 0.97218674, -0.10223995, -0.020875689, 0.20967656
1055, 277302449, 0.9722252, -0.10220177, -0.020403884, 0.2095634
1056, 277319116, 0.97226197, -0.102124654, -0.020123191, 0.20945768
1057, 277335783, 0.97229886, -0.10206762, -0.01993629, 0.2093321
1058, 277352450, 0.9723341, -0.10207714, -0.01967549, 0.20918785
1059, 277369117, 0.97236866, -0.10215252, -0.019244688, 0.20903045
1060, 277385784, 0.9723889, -0.10226548, -0.018734604, 0.20892762
1061, 277402451, 0.97240883, -0.102295145, -0.018390145, 0.20885058
1062, 277419118, 0.97242564, -0.10230078, -0.018143998, 0.20879148
1063, 277435785, 0.97243965, -0.102353916, -0.017791165, 0.2087305
1064, 277452452, 0.9724515, -0.102556914, -0.017125351, 0.20863084
1065, 277469119, 0.97245157, -0.102822766, -0.016563812, 0.20854524
1066, 277485786, 0.9724513, -0.10297422, -0.01636744, 0.20848733
1067, 277502453, 0.97245014, -0.103013754, -0.016489036, 0.20846352
1068, 277519120, 0.97243714, -0.1031744, -0.016493961, 0.2084445
1069, 277535787, 0.97243, -0.103398666, -0.016351985, 0.20837843
1070, 277552454, 0.9724285, -0.103607796, -0.016331544, 0.20828271
1071, 277569121, 0.9724461, -0.10374434, -0.016477529, 0.20812076
1072, 277585788, 0.97246814, -0.10396998, -0.016351635, 0.20791529
1073, 277602455, 0.9724878, -0.10429632, -0.015930915, 0.2076924
1074, 277619122, 0.97250444, -0.10458803, -0.015583297, 0.20749387
1075, 277635789, 0.97252715, -0.10469841, -0.015719566, 0.20732133
1076, 277652456, 0.9725648, -0.10478961, -0.015784377, 0.20709375
1077, 277669123, 0.97260803, -0.10507244, -0.015468908, 0.20677088
1078, 277685790, 0.97265327, -0.105433665, -0.014992451, 0.20640911
1079, 277702457, 0.9726985, -0.10570788, -0.014645931, 0.20608012
1080, 277719124, 0.9727381, -0.105806835, -0.014647984, 0.2058424
1081, 277735791, 0.9727927, -0.10591718, -0.0146903265, 0.20552438
1082, 277752458, 0.9728471, -0.10605092, -0.014526784, 0.20520954
1083, 277769125, 0.9729007, -0.10621492, -0.014174978, 0.2048949
1084, 277785792, 0.9729413, -0.10633043, -0.013957255, 0.2046572
1085, 277802459, 0.9729698, -0.106378764, -0.014003646, 0.20449336
1086, 277819126, 0.9730025, -0.106433965, -0.01398347, 0.20430975
1087, 277835793, 0.97303957, -0.106487125, -0.013886485, 0.20411201
1088, 277852460, 0.97308314, -0.10656327, -0.013924869, 0.20386223
1089, 277869127, 0.9731325, -0.10658154, -0.014105062, 0.2036047
