DeviceTag:,Xsens DOT 1,,,,,,,,,,,,,,,,,
FirmwareVersion:,1.3.0,,,,,,,,,,,,,,,,,
AppVersion:,2020.1.1,,,,,,,,,,,,,,,,,
Measurement Mode:,Sensor fusion Mode - Extended (Quaternion),,,,,,,,,,,,,,,,,
StartTime:,2020-08-03 15:46:12.325 +0200,,,,,,,,,,,,,,,,,
© Xsens Technologies B. V. 2005-2020,,,,,,,,,,,,,,,,,,,
PacketCounter,SampleTimeFine,Quat_W,Quat_X,Quat_Y,Quat_Z,FreeAcc_X,FreeAcc_Y,FreeAcc_Z,Status
1, 709073116, 0.031133061, 0.62664145, -0.09306984, 0.77310365, 0.120894514, 0.026864484, 0.035125732, 0
2, 709089783, 0.031801928, 0.62554806, -0.09402653, 0.7738459, 0.05973881, -0.004417217, 0.027269363, 0
3, 709106450, 0.032451976, 0.6246304, -0.094663955, 0.7744823, -0.030645128, 0.025989974, 0.06570816, 0
4, 709123117, 0.03252201, 0.62439775, -0.09479949, 0.7746502, -0.015042652, 0.044962313, 0.06103611, 0
5, 709139784, 0.032331876, 0.624404, -0.09486009, 0.77464575, 0.005796789, 0.061338928, 0.04562092, 0
6, 709156451, 0.032090943, 0.62445, -0.09500067, 0.7746014, 0.017787479, 0.029612826, 0.038921356, 0
7, 709173118, 0.03196179, 0.6244695, -0.095181905, 0.7745688, -0.012848268, -0.024148814, 0.04597473, 0
8, 709189785, 0.031936795, 0.62447464, -0.095343776, 0.7745457, -0.014218563, -0.04922127, 0.08502197, 0
9, 709206452, 0.031953324, 0.6244612, -0.095433906, 0.7745448, -0.020265047, 0.01179042, 0.09503174, 0
10, 709223119, 0.0319415, 0.6244397, -0.09551822, 0.77455217, 0.003103481, 0.049643025, 0.08988762, 0
11, 709239786, 0.031924877, 0.6244365, -0.09562046, 0.7745428, 0.0652494, 0.025712734, 0.06321621, 0
12, 709256453, 0.031915355, 0.6244858, -0.09573674, 0.77448905, 0.0865547, -0.027961275, 0.0768671, 0
13, 709273120, 0.03191752, 0.6244417, -0.09581115, 0.7745154, -0.018302187, -0.026566736, 0.07876778, 0
14, 709289787, 0.032024037, 0.6243599, -0.09592725, 0.77456254, -0.028554842, -0.011125344, 0.083631516, 0
15, 709306454, 0.03131904, 0.6244336, -0.095361814, 0.77460176, -0.0051336405, 0.0065324875, 0.07312107, 0
16, 709323121, 0.031471383, 0.6244406, -0.095483124, 0.774575, 0.033859212, 0.005127862, 0.083337784, 0
17, 709339788, 0.031304754, 0.6244849, -0.095386915, 0.7745579, 0.034910418, -0.0012984286, 0.051730156, 0
18, 709356455, 0.031437263, 0.62444127, -0.09553993, 0.7745688, 0.028318914, -0.030226355, 0.05085659, 0
19, 709373122, 0.031555083, 0.62440085, -0.0956581, 0.774582, 0.011924846, -0.06132008, 0.092409134, 0
20, 709389789, 0.031714153, 0.6243793, -0.09580626, 0.77457464, 0.03466243, -0.050986364, 0.041383743, 0
21, 709406456, 0.032026805, 0.6243728, -0.096135184, 0.7745263, 0.020733694, -0.046564188, 0.060904503, 0
22, 709423123, 0.033572666, 0.6241949, -0.09743064, 0.7744423, -0.01594686, -0.061236124, 0.08096981, 0
23, 709439790, 0.034426473, 0.6240948, -0.098184854, 0.7743903, -0.016106032, -0.094944656, 0.04592991, 0
24, 709456457, 0.035041545, 0.62406665, -0.098771, 0.7743109, 0.014794389, -0.087303616, 0.03690052, 0
25, 709473124, 0.037438642, 0.62384486, -0.100844406, 0.7741101, 0.020514732, 0.006187258, 0.050834656, 0
26, 709489791, 0.035507575, 0.6241608, -0.09947163, 0.7741241, 0.024327174, -0.020150071, 0.059631348, 0
27, 709506458, 0.036261786, 0.6240199, -0.1002671, 0.7741, 0.049203943, -0.050864115, 0.07535076, 0
28, 709523125, 0.036047656, 0.6239987, -0.10024602, 0.7741299, 0.09835989, -0.035812475, 0.073067665, 0
29, 709539792, 0.036103617, 0.62402016, -0.10043161, 0.77408594, 0.07825886, -0.02418142, 0.0703001, 0
30, 709556459, 0.036024883, 0.62403804, -0.10050386, 0.77406585, 0.054942347, -0.0087204, 0.067349434, 0
31, 709573126, 0.036009416, 0.62403905, -0.100619406, 0.77405065, 0.021544382, -0.010869659, 0.06890297, 0
32, 709589793, 0.03600349, 0.6240553, -0.10079449, 0.77401507, 0.010905023, -0.06023054, 0.07882786, 0
33, 709606460, 0.036147878, 0.6240387, -0.10112048, 0.7739792, 0.0053237574, -0.031298827, 0.06232834, 0
34, 709623127, 0.03639249, 0.6239947, -0.101486, 0.7739554, 8.8801346E-4, 0.027056957, 0.03202629, 0
35, 709639794, 0.036341984, 0.6240003, -0.10154254, 0.7739458, 0.060543023, 0.10260119, 0.012078285, 0
36, 709656461, 0.03640076, 0.62398005, -0.10166176, 0.7739438, 0.04168312, 0.17799813, 0.038459778, 0
37, 709673128, 0.036326434, 0.624006, -0.10162938, 0.7739305, 0.04285422, 0.1688397, 0.117176056, 0
38, 709689795, 0.035855573, 0.6241343, -0.10129882, 0.7738923, -0.020297334, 0.068551846, 0.13614178, 0
39, 709706462, 0.036338005, 0.62422556, -0.101819165, 0.7737279, -0.039243862, -0.0103552155, 0.103126526, 0
40, 709723129, 0.036523223, 0.62440056, -0.10227467, 0.7735179, -0.056411162, -0.07901984, 0.026711464, 0
41, 709739796, 0.036385566, 0.62444204, -0.10271517, 0.77343255, -0.03379183, -0.089158714, 0.038645744, 0
42, 709756463, 0.036498673, 0.62438655, -0.10343119, 0.7733767, -0.009318978, 0.059240557, 0.054768562, 0
43, 709773130, 0.036677964, 0.62439877, -0.10415337, 0.7732614, 0.10262828, 0.11145796, 0.049901962, 0
44, 709789797, 0.038019042, 0.62428415, -0.10582269, 0.7730627, 0.15325986, 0.0934106, 0.043914795, 0
45, 709806464, 0.037747655, 0.6243348, -0.106317334, 0.77296686, 0.088824175, 0.12086236, 0.029841423, 0
46, 709823131, 0.03667001, 0.624408, -0.10634304, 0.77295625, 0.09510201, 0.077717245, -0.014081955, 0
47, 709839798, 0.037593715, 0.62416667, -0.10824541, 0.7728427, 0.053003665, -0.00940481, -0.060171127, 0
48, 709856465, 0.03625938, 0.6241859, -0.10878568, 0.7728151, -0.15449028, -0.13551486, -0.038827896, 0
49, 709873132, 0.037314102, 0.62365454, -0.111600816, 0.7727924, 0.16588129, 0.085123055, -0.09513092, 0
50, 709889799, 0.036738567, 0.6236289, -0.113339335, 0.77258754, 0.011349024, 0.114997864, -0.085967064, 0
51, 709906466, 0.03640615, 0.6233641, -0.11548886, 0.7724988, 0.16750762, -0.039045967, -0.09218979, 0
52, 709923133, 0.036056217, 0.62320775, -0.117758706, 0.7722987, 0.089004576, -0.01771762, 0.010361671, 0
53, 709939800, 0.035805732, 0.6229329, -0.12012218, 0.77216786, 0.16941306, 0.030634155, 0.026699066, 0
54, 709956467, 0.03546594, 0.6227208, -0.12230624, 0.7720117, 0.24224173, 0.11489452, -0.00404644, 0
55, 709973134, 0.034985885, 0.6227629, -0.12432604, 0.771677, 0.2538826, 0.054628816, 0.0023174286, 0
56, 709989801, 0.034284834, 0.6227074, -0.12613416, 0.7714599, 0.25679684, 0.010924671, 0.011631966, 0
57, 710006468, 0.03347572, 0.62273836, -0.12781447, 0.7711938, 0.20611209, -0.01379663, 0.024902344, 0
58, 710023135, 0.032765113, 0.6226876, -0.12941523, 0.7709984, 0.1079373, -0.11537768, 0.05120659, 0
59, 710039802, 0.032102942, 0.622595, -0.13091588, 0.77084756, 0.11925289, -0.18077569, 0.023365974, 0
60, 710056469, 0.03158812, 0.62259865, -0.13243009, 0.7706072, 0.15523489, -0.12109654, 0.0059862137, 0
61, 710073136, 0.031162769, 0.6226902, -0.13404995, 0.77027047, 0.18213132, -0.09498061, 0.0071954727, 0
62, 710089803, 0.030728947, 0.6228165, -0.13570565, 0.7698956, 0.17320251, -0.09601985, 0.047475815, 0
63, 710106470, 0.030354818, 0.62292, -0.13733988, 0.769537, 0.07617839, -0.06539729, 0.12909317, 0
64, 710123137, 0.03006069, 0.6228727, -0.1388279, 0.7693198, 0.0758472, -0.029802492, 0.13194847, 0
65, 710139804, 0.029869843, 0.6228347, -0.14017618, 0.7691135, 0.11546841, -0.04262599, 0.11112976, 0
66, 710156471, 0.029787593, 0.62276286, -0.14144978, 0.7689417, 0.11924307, -0.004803056, 0.20584583, 0
67, 710173138, 0.029721698, 0.6226467, -0.1424535, 0.7688529, 0.14256217, 0.15298755, 0.2479229, 0
68, 710189805, 0.029573083, 0.62259346, -0.14297989, 0.76880413, 0.25356802, 0.16267706, 0.15713787, 0
69, 710206472, 0.029200032, 0.62267464, -0.14288257, 0.7687706, 0.24753065, 0.09945255, 0.055796623, 0
70, 710223139, 0.0285899, 0.6229241, -0.14241768, 0.76867795, 0.1909175, -0.037383437, -0.019916534, 0
71, 710239806, 0.027897786, 0.6232295, -0.14194424, 0.76854324, 0.020240733, -0.10292221, -0.042718887, 0
72, 710256473, 0.02731992, 0.6235377, -0.14170088, 0.768359, -0.13648875, -0.15860948, 0.0060682297, 0
73, 710273140, 0.027032444, 0.62378407, -0.14179401, 0.7681518, -0.19246571, -0.18900464, 0.03185463, 0
74, 710289807, 0.027186088, 0.6240437, -0.14232814, 0.76783675, -0.10923466, -0.18009317, 0.004248619, 0
75, 710306474, 0.027558966, 0.62433946, -0.14319816, 0.76742107, -3.1557236E-5, -0.09795812, 0.051984787, 0
76, 710323141, 0.028041424, 0.624562, -0.14416517, 0.7670414, 0.11095829, 0.044221144, 0.12655449, 0
77, 710339808, 0.028503427, 0.6248072, -0.1450451, 0.76665866, 0.14252515, 0.054910038, 0.19067478, 0
78, 710356475, 0.028954444, 0.6250701, -0.145733, 0.7662969, 0.14262317, 0.058868047, 0.16964436, 0
79, 710373142, 0.029349698, 0.62544715, -0.14622064, 0.7658812, 0.16485204, 0.06339271, 0.118572235, 0
80, 710389809, 0.029643554, 0.6257987, -0.14649856, 0.76552963, 0.16192223, 0.07894804, 0.14268017, 0
81, 710406476, 0.029920377, 0.62616503, -0.14656095, 0.76520723, 0.19167411, 0.03545399, 0.12747002, 0
82, 710423143, 0.030074682, 0.626478, -0.14638625, 0.76497847, 0.10025369, 0.026695075, 0.19123268, 0
83, 710439810, 0.030147552, 0.6267513, -0.14601468, 0.76482284, 0.09762336, 0.076500036, 0.13992023, 0
84, 710456477, 0.030105649, 0.62712723, -0.14565699, 0.7645844, 0.11458866, 0.15967, 0.08764076, 0
85, 710473144, 0.029927488, 0.62746453, -0.14541796, 0.76436025, 0.07242597, 0.107634984, 0.13332176, 0
86, 710489811, 0.029786317, 0.6276649, -0.14530808, 0.7642219, -0.0012344131, -0.042175245, 0.15411949, 0
87, 710506478, 0.029789794, 0.6278442, -0.14540191, 0.7640567, -0.0017969045, -0.048740603, 0.09782791, 0
88, 710523145, 0.02991814, 0.62799054, -0.1457463, 0.76386595, 0.009876112, 0.009988305, 0.06438732, 0
89, 710539812, 0.030194165, 0.62805235, -0.14629693, 0.763699, 0.12225784, 0.0038987226, 0.10305023, 0
90, 710556479, 0.030448345, 0.62808245, -0.14680478, 0.7635665, 0.1546095, 0.019881869, 0.13882732, 0
91, 710573146, 0.030467521, 0.6282007, -0.14710335, 0.7634109, 0.19058762, 0.094196476, 0.06809902, 0
92, 710589813, 0.030231893, 0.6283549, -0.14727513, 0.76326025, 0.1787258, 0.18367523, 0.1201725, 0
93, 710606480, 0.0298772, 0.62849045, -0.1473662, 0.763145, 0.20805788, 0.15514362, 0.16549397, 0
94, 710623147, 0.029441295, 0.6286076, -0.14733471, 0.7630717, 0.15435046, 0.046024054, 0.20877838, 0
95, 710639814, 0.029004356, 0.6286444, -0.14715773, 0.7630921, 0.0709676, -0.005795733, 0.24699974, 0
96, 710656481, 0.028553287, 0.6286385, -0.14674208, 0.7631941, 0.07203342, -0.042151358, 0.20969486, 0
97, 710673148, 0.02813158, 0.62870455, -0.1461795, 0.7632633, 0.03928015, -0.023517739, 0.15972042, 0
98, 710689815, 0.027714243, 0.6289268, -0.14555085, 0.76321566, 0.047819678, -0.031484608, 0.095832825, 0
99, 710706482, 0.027274793, 0.6292926, -0.14497274, 0.7630399, -0.024672775, -0.096923016, 0.025896072, 0
100, 710723149, 0.02697748, 0.62960684, -0.14458641, 0.76286465, -0.006254235, -0.19637284, 0.0011711121, 0
101, 710739816, 0.026903944, 0.62980795, -0.1444146, 0.76273364, -0.009124511, -0.21168455, 0.041539192, 0
102, 710756483, 0.026915519, 0.6299529, -0.1442993, 0.7626354, 0.013446043, -0.119084194, 0.07127857, 0
103, 710773150, 0.026931914, 0.63011765, -0.14411055, 0.76253444, 0.07055509, -0.045464378, 0.069441795, 0
104, 710789817, 0.026854793, 0.63039833, -0.14380528, 0.76236284, 0.070226, -0.028918413, 0.07657623, 0
105, 710806484, 0.02667543, 0.6307648, -0.14335911, 0.7621498, 0.022927703, -0.08477693, 0.08877945, 0
106, 710823151, 0.026523259, 0.63114434, -0.14282383, 0.7619415, -0.060132485, -0.020089023, 0.12818432, 0
107, 710839818, 0.026528839, 0.6315219, -0.14227347, 0.76173145, -0.06147646, -0.05524019, 0.0836792, 0
108, 710856485, 0.026717123, 0.6319034, -0.14179981, 0.76149666, -0.10132951, -0.06933696, 0.11764336, 0
109, 710873152, 0.026930356, 0.63216573, -0.14136742, 0.7613517, -0.11826819, -0.11357762, 0.16355324, 0
110, 710889819, 0.027138725, 0.63231325, -0.14104752, 0.76128113, -0.03333008, -0.059152342, 0.2750435, 0
111, 710906486, 0.02727895, 0.63240826, -0.14071399, 0.7612591, 0.07827069, -0.01691092, 0.26996613, 0
112, 710923153, 0.027306039, 0.63252604, -0.14033103, 0.7612309, 0.10775698, -0.0031226156, 0.15802097, 0
113, 710939820, 0.027159858, 0.6327765, -0.13990821, 0.76110584, 0.15196295, 0.003593823, 0.046682358, 0
114, 710956487, 0.0268943, 0.63307714, -0.13948545, 0.7609429, 0.059854772, -0.17974809, 0.14515495, 0
115, 710973154, 0.026944168, 0.6331841, -0.13908641, 0.760925, -0.053197242, -0.31399614, 0.1437397, 0
116, 710989821, 0.027250525, 0.6331419, -0.13865644, 0.76102775, -0.09676302, -0.2244776, 0.0062065125, 0
117, 711006488, 0.027568784, 0.63302034, -0.1381784, 0.7612043, -0.03902643, -0.01258892, -0.0693512, 0
118, 711023155, 0.027764337, 0.6331399, -0.13772893, 0.76117915, 0.05210876, 0.08755701, 0.049168587, 0
119, 711039822, 0.027892848, 0.6333051, -0.13747129, 0.7610836, 0.16459933, 0.05941456, 0.269619, 0
120, 711056489, 0.027951183, 0.6332276, -0.13718662, 0.7611974, 0.20974897, -0.056632373, 0.32322788, 0
121, 711073156, 0.027969476, 0.6328833, -0.13675216, 0.7615612, 0.16026957, -0.16533892, 0.2845192, 0
122, 711089823, 0.027930807, 0.63251036, -0.13612947, 0.76198405, -0.005559962, -0.076670505, 0.19150543, 0
123, 711106490, 0.027716076, 0.6322995, -0.13543299, 0.76229084, 0.029536936, 0.14501649, 0.073265076, 0
124, 711123157, 0.027287005, 0.63210416, -0.13484177, 0.76257294, 0.1737319, 0.31595016, 0.03977585, 0
125, 711139824, 0.026500948, 0.63178676, -0.13409595, 0.7629951, 0.19626157, 0.25635272, 0.10034466, 0
126, 711156491, 0.025428655, 0.6314169, -0.13298686, 0.76353174, 0.1062641, 0.12348099, -0.031225204, 0
127, 711173158, 0.023993514, 0.63126683, -0.13144693, 0.76396877, -0.06022565, -0.055801265, -0.102479935, 0
128, 711189825, 0.02295755, 0.6313408, -0.13005175, 0.7641782, -0.27711713, -0.31594574, -0.012641907, 0
129, 711206492, 0.022713736, 0.6316092, -0.12903923, 0.76413536, -0.46482465, -0.49243557, 0.075606346, 0
130, 711223159, 0.023438482, 0.63208413, -0.12842801, 0.76382357, -0.46807036, -0.46473527, -0.019694328, 0
131, 711239826, 0.024672974, 0.6325877, -0.12788029, 0.76345974, -0.2755288, -0.40286717, 0.039876938, 0
132, 711256493, 0.025840232, 0.6331114, -0.12664764, 0.7631924, -0.16663377, -0.5313741, 0.17893314, 0
133, 711273160, 0.02773239, 0.6334788, -0.1252069, 0.7630587, -0.05081324, -0.48308045, 0.26832485, 0
134, 711289827, 0.029776052, 0.63380325, -0.12314346, 0.76304823, 0.12449406, -0.12155151, 0.3297224, 0
135, 711306494, 0.031908438, 0.63412994, -0.12051941, 0.7631095, 0.30883658, 0.20659989, 0.37949753, 0
136, 711323161, 0.033408437, 0.6346249, -0.11683349, 0.7632072, 0.40834394, 0.46308774, 0.4971552, 0
137, 711339828, 0.034267537, 0.6351393, -0.11197649, 0.7634693, 0.42125812, 0.5362448, 0.56569004, 0
138, 711356495, 0.034738395, 0.6354381, -0.106009476, 0.76405096, 0.5280951, 0.56264114, 0.45562744, 0
139, 711373162, 0.034671202, 0.6356227, -0.09900152, 0.7648402, 0.45831996, 0.5387081, 0.42361736, 0
140, 711389829, 0.033947553, 0.6357266, -0.09093671, 0.7657872, 0.3195074, 0.6616352, 0.32662868, 0
141, 711406496, 0.032529272, 0.6360378, -0.08189489, 0.76661015, 0.17439671, 0.74660337, 0.23858929, 0
142, 711423163, 0.030469263, 0.6365286, -0.07186562, 0.76729286, 0.067713305, 0.80965513, 0.077035904, 0
143, 711439830, 0.027659142, 0.63735735, -0.06092026, 0.7676585, -0.17531525, 0.837358, -0.039765358, 0
144, 711456497, 0.024011113, 0.6381699, -0.049455006, 0.7679303, -0.49758533, 0.78569275, 0.017921448, 0
145, 711473164, 0.020076273, 0.6385403, -0.037785176, 0.76839817, -0.63209647, 0.6399599, -0.04442978, 0
146, 711489831, 0.016605005, 0.6387467, -0.026476108, 0.7687823, -0.532884, 0.6287878, -0.14102077, 0
147, 711506498, 0.013312031, 0.6389779, -0.015554071, 0.7689527, -0.45320573, 0.6661545, -0.19744968, 0
148, 711523165, 0.00954578, 0.6392163, -0.0044951714, 0.7689548, -0.40927708, 0.7546555, -0.28300858, 0
149, 711539832, 0.0049618604, 0.6396503, 0.007167422, 0.76861656, -0.44746912, 0.8094494, -0.37041283, 0
150, 711556499, -4.9434835E-4, 0.6405375, 0.019403044, 0.7676818, -0.48979798, 0.77912664, -0.49227428, 0
151, 711573166, -0.006842546, 0.64192665, 0.03190724, 0.76607144, -0.6775063, 0.6743482, -0.5120926, 0
152, 711589833, -0.013905062, 0.6436422, 0.044372797, 0.7639125, -0.9420262, 0.60214794, -0.4774971, 0
153, 711606500, -0.021655796, 0.6455837, 0.056630053, 0.76127917, -1.1518453, 0.5870892, -0.36168575, 0
154, 711623167, -0.030082474, 0.64758813, 0.06881558, 0.7582804, -1.1978037, 0.4306109, -0.28211784, 0
155, 711639834, -0.039164133, 0.6495331, 0.08114931, 0.7549756, -1.1626538, 0.22265197, -0.26802063, 0
156, 711656501, -0.048779022, 0.65169907, 0.09372945, 0.7510818, -0.9814483, -0.085087776, -0.3254242, 0
157, 711673168, -0.05872559, 0.6543719, 0.10635651, 0.7463491, -0.9018787, -0.43635684, -0.30923843, 0
158, 711689835, -0.06893988, 0.6573725, 0.118572205, 0.74097866, -0.8727019, -0.8289483, -0.19623375, 0
159, 711706502, -0.07938009, 0.6606249, 0.1299966, 0.73510164, -0.96568424, -1.0378985, 0.071974754, 0
160, 711723169, -0.08988096, 0.6640511, 0.14051186, 0.72884446, -1.2291561, -1.0101379, 0.27735806, 0
161, 711739836, -0.100150704, 0.66753334, 0.15044032, 0.72231346, -1.0901195, -1.2099688, 0.24317074, 0
162, 711756503, -0.10992139, 0.6709032, 0.15989496, 0.71570945, -0.6466944, -1.7280219, 0.3902893, 0
163, 711773170, -0.1185063, 0.6740144, 0.16824536, 0.70947486, -0.10681638, -2.1383023, 0.5580902, 0
164, 711789837, -0.12536705, 0.6770866, 0.17490451, 0.7037366, 0.28745797, -2.2454386, 0.69265175, 0
165, 711806504, -0.13052583, 0.6800392, 0.17978096, 0.698705, 0.39964542, -2.1823099, 0.9499264, 0
166, 711823171, -0.13424204, 0.68231076, 0.18311004, 0.69491136, 0.29863742, -1.9438359, 1.3182383, 0
167, 711839838, -0.13706693, 0.68304646, 0.18526354, 0.6930641, 0.41947913, -1.6100793, 1.3706102, 0
168, 711856505, -0.13964857, 0.68249255, 0.18700552, 0.6926263, 0.6082188, -0.95829684, 1.157114, 0
169, 711873172, -0.14262316, 0.681259, 0.18873215, 0.69276637, 0.24536593, -0.10799565, 0.9713974, 0
170, 711889839, -0.14621156, 0.67937034, 0.19103025, 0.69324297, -0.13080356, 0.51080143, 0.82161236, 0
171, 711906506, -0.15065867, 0.67666477, 0.19450998, 0.693969, -0.25741184, 0.47847396, 0.85916996, 0
172, 711923173, -0.15615626, 0.6729924, 0.1989815, 0.6950561, -0.4685286, 0.29783034, 0.9615021, 0
173, 711939840, -0.16273355, 0.6685418, 0.20385689, 0.6964281, -0.7826106, 0.22571926, 0.79209614, 0
174, 711956507, -0.17053781, 0.6637589, 0.20917065, 0.6975592, -1.1757264, 0.35406464, 0.389781, 0
175, 711973174, -0.17939079, 0.65887845, 0.21441431, 0.69837296, -1.4217248, 0.16154668, 0.112651825, 0
176, 711989841, -0.18861635, 0.65399104, 0.21845251, 0.69928396, -1.2778226, -0.22546835, 0.022893906, 0
177, 712006508, -0.19778202, 0.6493004, 0.22121331, 0.7002544, -1.3675015, -0.58487654, 0.13220787, 0
178, 712023175, -0.20759022, 0.64407563, 0.22247286, 0.7018396, -1.4786478, -0.74739355, 0.23339367, 0
179, 712039842, -0.21800259, 0.6387197, 0.22237799, 0.7036051, -1.5807036, -0.36514708, -0.13894367, 0
180, 712056509, -0.22934508, 0.6334003, 0.22187893, 0.7049643, -1.5133349, 0.096220985, -0.42514896, 0
181, 712073176, -0.24224716, 0.62775505, 0.22072043, 0.70606124, -1.6824316, 0.19898173, 0.023488045, 0
182, 712089843, -0.25610608, 0.62188107, 0.2193037, 0.7068094, -1.5534698, 0.0420524, 0.19076443, 0
183, 712106510, -0.27027816, 0.616347, 0.2192497, 0.7063964, -1.3529717, -0.22739035, -0.23595619, 0
184, 712123177, -0.28506535, 0.611115, 0.22064489, 0.7046931, -1.0551085, -0.59579337, -0.20987701, 0
185, 712139844, -0.3008912, 0.6058431, 0.222537, 0.70206547, -1.024394, -0.8608847, 0.18547821, 0
186, 712156511, -0.31701657, 0.60035515, 0.22435129, 0.6991001, -1.265687, -1.0223136, 0.4437399, 0
187, 712173178, -0.33198124, 0.5949435, 0.22532126, 0.6964634, -1.2973148, -1.1214399, -0.0451231, 0
188, 712189845, -0.34542793, 0.590086, 0.22513449, 0.69411284, -0.8215903, -0.8816571, -0.70938206, 0
189, 712206512, -0.3576637, 0.58571887, 0.22412892, 0.69193685, -0.4121058, -0.5557517, -0.7861805, 0
190, 712223179, -0.36948642, 0.5811373, 0.22315831, 0.6898984, -0.4027742, 0.06276445, -0.51672363, 0
191, 712239846, -0.3816689, 0.57572395, 0.22321339, 0.68778396, -0.7819724, 0.58499354, -0.5570946, 0
192, 712256513, -0.39405495, 0.5701146, 0.2245069, 0.68504524, -0.93478537, 1.173933, -1.0668955, 0
193, 712273180, -0.40655673, 0.5650071, 0.22768442, 0.68091005, -0.65913045, 1.4741716, -1.5008688, 0
194, 712289847, -0.41957557, 0.560241, 0.23248346, 0.6753059, -0.5495417, 1.187969, -1.3642998, 0
195, 712306514, -0.43340176, 0.5551084, 0.23851778, 0.66867554, -0.5955005, 0.71691984, -0.7674198, 0
196, 712323181, -0.44731638, 0.5497316, 0.24560966, 0.6613465, -0.7482913, 0.19093303, -0.18604374, 0
197, 712339848, -0.46067426, 0.54445565, 0.25370842, 0.65343666, -0.6836649, -0.09481755, 0.10935974, 0
198, 712356515, -0.4733677, 0.5396407, 0.262668, 0.644761, -0.37925923, -0.21080245, 0.0507946, 0
199, 712373182, -0.48511195, 0.5357539, 0.27219698, 0.6352504, 0.005150297, -0.34603807, -0.0057401657, 0
200, 712389849, -0.49580538, 0.53269464, 0.28176865, 0.62531596, 0.17132826, -0.47664115, -0.008495331, 0
201, 712406516, -0.5057628, 0.52986014, 0.29102907, 0.6154302, 0.07716349, -0.62054306, 0.09467697, 0
202, 712423183, -0.5149458, 0.52711827, 0.2994543, 0.6060564, -0.11674618, -0.45971385, 0.24045086, 0
203, 712439850, -0.52351356, 0.52443427, 0.30729115, 0.597055, -0.14541663, -0.11469143, 0.5103102, 0
204, 712456517, -0.5317668, 0.5215568, 0.31534886, 0.58801186, -0.2966303, 0.2022343, 0.6413288, 0
205, 712473184, -0.54005474, 0.5182262, 0.323995, 0.5786278, -0.44856817, 0.5514127, 0.5663786, 0
206, 712489851, -0.5485099, 0.5143977, 0.33327204, 0.56873715, -0.5556675, 0.59393495, 0.4331007, 0
207, 712506518, -0.5573662, 0.5096734, 0.34315613, 0.5584083, -0.6690742, 0.45948228, 0.33181286, 0
208, 712523185, -0.5666146, 0.503992, 0.3535792, 0.54765105, -0.7226898, 0.26450187, 0.21900749, 0
209, 712539852, -0.57608896, 0.49772537, 0.36407673, 0.5365064, -0.5974166, 0.09376056, 0.20283413, 0
210, 712556519, -0.58544034, 0.4912661, 0.37405953, 0.525354, -0.3453387, -0.02857032, 0.28651333, 0
211, 712573186, -0.5945774, 0.4845436, 0.38342357, 0.51447225, -0.19749895, -0.27044553, 0.3504467, 0
212, 712589853, -0.6036067, 0.4773361, 0.3921755, 0.5039918, -0.16568434, -0.456143, 0.30288315, 0
213, 712606520, -0.6125159, 0.46972215, 0.40055367, 0.4937027, -0.12200879, -0.4704552, 0.18223381, 0
214, 712623187, -0.6211139, 0.46203774, 0.40866378, 0.48345935, -0.019265253, -0.48286197, 0.10524082, 0
215, 712639854, -0.62932986, 0.45434576, 0.4165098, 0.47332212, 0.005699357, -0.64588135, -0.010806084, 0
216, 712656521, -0.6370955, 0.44665465, 0.4242281, 0.4632923, 0.03281729, -0.76629674, -0.19253063, 0
217, 712673188, -0.6443278, 0.43909553, 0.4317105, 0.45350075, 0.116125934, -0.8011042, -0.33237553, 0
218, 712689855, -0.6509978, 0.43179512, 0.4388471, 0.44403628, 0.21704024, -0.7608477, -0.42070484, 0
219, 712706522, -0.6572363, 0.42462215, 0.44565713, 0.43488657, 0.17743285, -0.8492189, -0.40291786, 0
220, 712723189, -0.6630733, 0.4175589, 0.4521959, 0.42602488, 0.044566248, -0.9198175, -0.5489292, 0
221, 712739856, -0.6683353, 0.41086107, 0.4585512, 0.41743508, 0.0011636084, -0.91630703, -0.6385317, 0
222, 712756523, -0.6730291, 0.40452987, 0.46474278, 0.4091475, 0.014107021, -0.8783876, -0.63877296, 0
223, 712773190, -0.6772704, 0.3984963, 0.4706872, 0.40119714, 0.036087062, -0.92645985, -0.62082005, 0
224, 712789857, -0.68121284, 0.39262244, 0.47632045, 0.3935933, -0.071796834, -0.8897577, -0.6362324, 0
225, 712806524, -0.6849735, 0.3867884, 0.48173887, 0.3861786, -0.2674811, -0.8652645, -0.7950363, 0
226, 712823191, -0.6884713, 0.3810975, 0.4871571, 0.37874782, -0.40348312, -0.78197217, -0.8671675, 0
227, 712839858, -0.69168764, 0.37555376, 0.49263847, 0.37126145, -0.3614135, -0.79351836, -0.8468714, 0
228, 712856525, -0.6945999, 0.37023643, 0.4980548, 0.36386502, -0.18065189, -0.74817497, -0.76780415, 0
229, 712873192, -0.69729364, 0.36520085, 0.5031311, 0.35674798, -0.020787822, -0.7360977, -0.6971359, 0
230, 712889859, -0.6998311, 0.3605625, 0.5076537, 0.35002726, -0.09975093, -0.6584663, -0.8142843, 0
231, 712906526, -0.70197976, 0.35659847, 0.5118638, 0.34359488, -0.26538005, -0.43058923, -0.9108753, 0
232, 712923193, -0.70372605, 0.3532509, 0.51594806, 0.33731464, -0.35795912, -0.39142483, -0.8009186, 0
233, 712939860, -0.705223, 0.35026383, 0.51986355, 0.33123687, -0.33717465, -0.5805054, -0.6092148, 0
234, 712956527, -0.70662946, 0.3474231, 0.52349204, 0.32546592, -0.2961046, -0.67771477, -0.6104975, 0
235, 712973194, -0.7078998, 0.34475043, 0.52695197, 0.3199168, -0.23852609, -0.5006046, -0.7648554, 0
236, 712989861, -0.7089154, 0.34256178, 0.53028923, 0.31445828, -0.16365016, -0.22401787, -0.63166904, 0
237, 713006528, -0.7095907, 0.34101406, 0.533484, 0.30916914, 0.024118612, -0.1319493, -0.22073555, 0
238, 713023195, -0.7099801, 0.34015402, 0.5362596, 0.3043836, 0.27441534, -0.21031094, 0.1601162, 0
239, 713039862, -0.71008754, 0.34011316, 0.5384876, 0.30021656, 0.41686285, -0.105591096, 0.57779026, 0
240, 713056529, -0.7097402, 0.34088597, 0.54059327, 0.29635212, 0.6189543, -0.051199444, 1.626277, 0
241, 713073196, -0.7088657, 0.34245515, 0.5426512, 0.29285482, 1.1936799, -0.359344, 2.9014788, 0
242, 713089863, -0.7076897, 0.34469184, 0.5440963, 0.29038292, 1.6928009, -0.6448425, 3.6950397, 0
243, 713106530, -0.70628196, 0.34704554, 0.5448809, 0.2895342, 1.343451, -0.269927, 2.995079, 0
244, 713123197, -0.7042749, 0.34944895, 0.54595065, 0.28951728, 0.23201762, 0.33193552, 1.899065, 0
245, 713139864, -0.70187426, 0.35120633, 0.54815155, 0.2890618, -0.56190574, 0.5146404, 1.5879593, 0
246, 713156531, -0.7000351, 0.35102266, 0.55119723, 0.28795063, -0.8231964, 0.2552288, 1.5869637, 0
247, 713173198, -0.6995065, 0.34815496, 0.5546482, 0.28608444, -0.76079786, 0.107445806, 1.0889559, 0
248, 713189865, -0.7001563, 0.3433632, 0.5582982, 0.2831717, -0.20385768, 0.06904449, 0.4711523, 0
249, 713206532, -0.701448, 0.3380683, 0.5618291, 0.27933654, 0.74905807, 0.13956954, 0.41807842, 0
250, 713223199, -0.7030595, 0.33350724, 0.56449604, 0.2753626, 1.5945586, 0.22586565, 0.70873547, 0
251, 713239866, -0.7048903, 0.33012632, 0.56585705, 0.2719418, 1.8875656, 0.26663664, 0.6076822, 0
252, 713256533, -0.7067048, 0.3279501, 0.5662541, 0.26902333, 1.6984482, 0.27969706, 0.26336098, 0
253, 713273200, -0.7084322, 0.32673913, 0.5661356, 0.26618776, 1.5801644, 0.29820102, 0.4478798, 0
254, 713289867, -0.7101714, 0.326061, 0.5657242, 0.26324356, 1.5748339, 0.41366315, 0.7136841, 0
255, 713306534, -0.71183026, 0.3257368, 0.5651967, 0.26028055, 1.2904538, 0.55829906, 0.3088541, 0
256, 713323201, -0.71337336, 0.32582182, 0.5646665, 0.2570807, 0.9333778, 0.6266673, -0.20224094, 0
257, 713339868, -0.7148223, 0.32631066, 0.56411356, 0.25362664, 0.7535377, 0.47728822, -0.35158157, 0
258, 713356535, -0.7162019, 0.32698753, 0.5634117, 0.25040236, 0.6815234, 0.17975672, -0.43256092, 0
259, 713373202, -0.71756685, 0.32766268, 0.5624958, 0.2476557, 0.5714149, -0.1362859, -0.70776176, 0
260, 713389869, -0.7188534, 0.32839477, 0.561474, 0.24526261, 0.46476927, -0.39313158, -0.96002865, 0
261, 713406536, -0.72027373, 0.32901597, 0.56025404, 0.2430424, 0.4594347, -0.44585603, -0.97543144, 0
262, 713423203, -0.72178596, 0.3295999, 0.55885416, 0.24097915, 0.5025582, -0.31609315, -1.0035782, 0
263, 713439870, -0.7232692, 0.33041462, 0.5572286, 0.23917416, 0.52695507, -0.14284043, -1.1098156, 0
264, 713456537, -0.7245468, 0.33168948, 0.55544466, 0.23768817, 0.65477246, -0.07477, -1.1220188, 0
265, 713473204, -0.72555584, 0.33334264, 0.5536083, 0.23657857, 0.78250813, -0.17068835, -0.93224335, 0
266, 713489871, -0.7264065, 0.3352335, 0.55160576, 0.23597299, 0.8447196, -0.28267595, -0.84432507, 0
267, 713506538, -0.7267767, 0.3375869, 0.5496343, 0.23607843, 0.7503862, -0.25190112, -0.8718033, 0
268, 713523205, -0.7266264, 0.34050882, 0.5476669, 0.23691516, 0.5594315, -0.17521404, -0.7559004, 0
269, 713539872, -0.7261053, 0.34371853, 0.5456763, 0.23846646, 0.286802, -0.18482621, -0.5871954, 0
270, 713556539, -0.72529554, 0.34692228, 0.5437634, 0.24065083, -0.038148746, -0.28739095, -0.52558136, 0
271, 713573206, -0.7244656, 0.34990478, 0.54180783, 0.2432299, -0.42329398, -0.38013408, -0.44395065, 0
272, 713589873, -0.72392863, 0.35248995, 0.53970265, 0.24576278, -0.6788929, -0.50493455, -0.29231358, 0
273, 713606540, -0.72360826, 0.3546168, 0.5377755, 0.24786223, -0.76537204, -0.60123664, -0.022809029, 0
274, 713623207, -0.7234722, 0.35638052, 0.53599125, 0.24958833, -0.6909058, -0.6734667, 0.20026302, 0
275, 713639874, -0.72350615, 0.35794473, 0.5340848, 0.25133252, -0.49918848, -0.61817735, 0.39885044, 0
276, 713656541, -0.7236195, 0.35936442, 0.53194726, 0.25350413, -0.46900618, -0.5867501, 0.41362762, 0
277, 713673208, -0.7236106, 0.36078465, 0.5297847, 0.25602803, -0.513808, -0.56334096, 0.47881317, 0
278, 713689875, -0.72358894, 0.3619501, 0.52770185, 0.25873154, -0.41405305, -0.6582696, 0.7384901, 0
279, 713706542, -0.72385824, 0.3625426, 0.5254989, 0.26161662, -0.21826711, -0.72140193, 0.7982559, 0
280, 713723209, -0.7244244, 0.36292064, 0.5229576, 0.26460057, 0.08989333, -0.6774253, 0.86959934, 0
281, 713739876, -0.7247353, 0.36399916, 0.5201476, 0.26778692, 0.5366394, -0.440595, 1.1682425, 0
282, 713756543, -0.724163, 0.36665502, 0.51702553, 0.27172932, 1.0559083, 0.041447125, 1.5205574, 0
283, 713773210, -0.7224487, 0.37100697, 0.5135878, 0.27685633, 1.2894467, 0.498779, 2.088663, 0
284, 713789877, -0.7198405, 0.3761273, 0.5100684, 0.2831752, 1.1752199, 0.4038202, 3.0714407, 0
285, 713806544, -0.7167481, 0.38070247, 0.50683117, 0.29061973, 0.58148015, 0.23284596, 3.286233, 0
286, 713823211, -0.71327597, 0.38399902, 0.50475776, 0.29833174, -0.4317068, 0.77682775, 2.0496712, 0
287, 713839878, -0.70965606, 0.38575786, 0.5045164, 0.30502877, -1.1664294, 1.5901543, 0.39593887, 0
288, 713856545, -0.70650804, 0.38594776, 0.50568295, 0.31012186, -1.1696701, 2.033706, -0.7282505, 0
289, 713873212, -0.70449036, 0.38461563, 0.5073166, 0.31367838, -0.16523375, 1.7633858, -1.0195599, 0
290, 713889879, -0.7036423, 0.38272193, 0.5082423, 0.31638795, 1.222663, 1.2781197, -0.85852623, 0
291, 713906546, -0.7032202, 0.38213578, 0.50758064, 0.3190855, 2.317645, 1.1450416, -0.9263716, 0
292, 713923213, -0.7022801, 0.38427788, 0.50512534, 0.3224619, 2.93464, 1.1771982, -0.9829731, 0
293, 713939880, -0.70022273, 0.38939902, 0.50092244, 0.3273125, 2.940696, 1.0581859, -0.88580227, 0
294, 713956547, -0.6966325, 0.39697146, 0.49546975, 0.3341058, 2.181708, 0.81328684, -0.73779106, 0
295, 713973214, -0.69156283, 0.4058012, 0.4897068, 0.3424231, 0.9537758, 0.50148976, -0.46623516, 0
296, 713989881, -0.68580836, 0.41446054, 0.48415315, 0.35140488, -0.5393665, 0.4097272, -0.4718027, 0
297, 714006548, -0.68019056, 0.42191213, 0.47939196, 0.35988125, -1.7527525, 0.719292, -0.9132824, 0
298, 714023215, -0.6753439, 0.42747495, 0.4760244, 0.3668468, -2.270298, 1.1073548, -1.3425379, 0
299, 714039882, -0.67146075, 0.43123794, 0.4739703, 0.37219197, -2.1081278, 1.3290378, -1.6458664, 0
300, 714056549, -0.66834027, 0.43410206, 0.47250438, 0.3763195, -1.6897113, 1.1467131, -1.6750526, 0
301, 714073216, -0.66564316, 0.43686634, 0.47093695, 0.37984937, -1.2277893, 0.8150581, -1.552578, 0
302, 714089883, -0.66312635, 0.43989334, 0.4690448, 0.38308534, -0.841883, 0.8098545, -1.4085426, 0
303, 714106550, -0.66053313, 0.44331118, 0.46704322, 0.38605952, -0.584435, 0.97860855, -1.2712908, 0
304, 714123217, -0.6574016, 0.4475099, 0.46505916, 0.3889452, -0.525949, 0.9898718, -1.0572071, 0
305, 714139884, -0.65358245, 0.45251054, 0.46300942, 0.39202884, -0.8088377, 1.0469662, -0.9838362, 0
306, 714156551, -0.64948994, 0.45764348, 0.46124497, 0.39494112, -1.314479, 1.3903236, -1.0405922, 0
307, 714173218, -0.64558756, 0.46226984, 0.46009308, 0.39728805, -1.5918537, 1.7040008, -1.0275927, 0
308, 714189885, -0.642124, 0.46626624, 0.45950744, 0.3989054, -1.6412735, 1.8333102, -0.83425045, 0
309, 714206552, -0.639183, 0.46973482, 0.45924947, 0.39985517, -1.5278286, 1.8219675, -0.6436796, 0
310, 714223219, -0.6366689, 0.47294435, 0.45899966, 0.40036947, -1.3075861, 1.7887615, -0.47024727, 0
311, 714239886, -0.63439804, 0.47613293, 0.45844236, 0.40083322, -1.0636749, 1.7272357, -0.25789642, 0
312, 714256553, -0.63234365, 0.47927833, 0.45732465, 0.40160683, -0.90334636, 1.5540502, -0.124643326, 0
313, 714273220, -0.6303524, 0.48247793, 0.45564535, 0.40281287, -0.9578831, 1.4923763, -0.21658039, 0
314, 714289887, -0.6284346, 0.48571083, 0.45380414, 0.40400088, -1.0095276, 1.4539583, -0.118359566, 0
315, 714306554, -0.62679374, 0.48876825, 0.45220175, 0.40465888, -0.80689853, 1.307922, 0.4366789, 0
316, 714323221, -0.6252372, 0.49184042, 0.4507424, 0.40497294, -0.41162592, 1.1930115, 1.0115004, 0
317, 714339888, -0.6231061, 0.495566, 0.44911587, 0.40552214, -0.23416491, 1.4376271, 1.1051445, 0
318, 714356555, -0.6202998, 0.5000614, 0.4473601, 0.40624586, -0.3183694, 1.629577, 1.6404982, 0
319, 714373222, -0.6173307, 0.50484455, 0.44550204, 0.4068943, -0.3229807, 1.1049147, 3.5352783, 0
320, 714389889, -0.6144542, 0.5090526, 0.44316232, 0.40855682, -0.20955949, 0.047936823, 5.4389935, 0
321, 714406556, -0.6115792, 0.5119098, 0.44040388, 0.4122666, -0.27184048, 0.1769856, 4.70135, 0
322, 714423223, -0.6088639, 0.5135771, 0.43894446, 0.41575366, -0.72719157, 1.1581565, 3.2349644, 0
323, 714439890, -0.6061892, 0.5144502, 0.4394163, 0.4180777, -0.9828332, 1.670362, 2.4136238, 0
324, 714456557, -0.60404193, 0.51404417, 0.4411155, 0.41989177, -0.77250236, 1.5214105, 1.8122826, 0
325, 714473224, -0.6032996, 0.511815, 0.44330022, 0.4213789, -0.7304439, 0.8664739, 1.1409235, 0
326, 714489891, -0.60438913, 0.5078927, 0.44560015, 0.4221367, -0.5181745, 0.15106705, 0.6034889, 0
327, 714506558, -0.60671115, 0.50317293, 0.44753313, 0.42241302, 0.14577292, -0.26098022, 0.055119514, 0
328, 714523225, -0.6095512, 0.4986766, 0.4485382, 0.42259032, 0.8678858, -0.60348094, -0.14037132, 0
329, 714539892, -0.61220926, 0.49513176, 0.44851136, 0.4229444, 1.3399271, -0.91372836, -0.027700424, 0
330, 714556559, -0.6142334, 0.49290502, 0.44738698, 0.4238007, 1.468392, -1.1510497, 0.004508972, 0
331, 714573226, -0.615587, 0.49189326, 0.4453644, 0.42514047, 1.4135965, -1.1306553, 0.035939217, 0
332, 714589893, -0.61642194, 0.49176988, 0.4428799, 0.4266658, 1.2449213, -0.86127096, -0.08636856, 0
333, 714606560, -0.61676145, 0.4923725, 0.4404563, 0.427987, 0.96054804, -0.4155714, -0.49892616, 0
334, 714623227, -0.6167852, 0.49346745, 0.43841663, 0.4287853, 0.66878027, 0.032537006, -0.9702873, 0
335, 714639894, -0.6167002, 0.49476874, 0.43682864, 0.42902878, 0.4237287, 0.28922465, -1.1924791, 0
336, 714656561, -0.6167335, 0.49592993, 0.43559584, 0.42889383, 0.22419468, 0.12379399, -0.9446478, 0
337, 714673228, -0.61714214, 0.49652743, 0.43437773, 0.42884976, -0.010016062, -0.20748104, -0.75207806, 0
338, 714689895, -0.61762697, 0.49666604, 0.43334854, 0.42903244, -0.23110904, -0.17221248, -1.0225725, 0
339, 714706562, -0.6179207, 0.49660277, 0.43266106, 0.42937645, -0.3421288, -0.15592353, -1.3788385, 0
340, 714723229, -0.61813813, 0.49638984, 0.4320185, 0.42995644, -0.36610997, -0.26843324, -1.4540958, 0
341, 714739896, -0.61829996, 0.49609554, 0.43136662, 0.4307171, -0.33025202, -0.23475699, -1.3300009, 0
342, 714756563, -0.61829513, 0.49579838, 0.43079236, 0.43164, -0.23420537, -0.24901444, -1.2072859, 0
343, 714773230, -0.61825705, 0.4955538, 0.43000925, 0.43275478, -0.110779725, -0.31979698, -1.0944004, 0
344, 714789897, -0.61811846, 0.49565336, 0.42888343, 0.4339543, -0.06009481, -0.35154432, -0.943697, 0
345, 714806564, -0.6177703, 0.4963097, 0.4271739, 0.43538365, -0.020997701, -0.284209, -0.79741, 0
346, 714823231, -0.6173598, 0.49733075, 0.42463294, 0.4372823, -0.11513599, -0.23038821, -0.6279707, 0
347, 714839898, -0.61697215, 0.49845827, 0.4214857, 0.43958443, -0.2916149, -0.18389395, -0.4480772, 0
348, 714856565, -0.6166463, 0.4994647, 0.41805345, 0.44216955, -0.47273347, -0.09093423, -0.2940235, 0
349, 714873232, -0.61631954, 0.5004107, 0.4145061, 0.444887, -0.57142806, 0.079694435, -0.17455387, 0
350, 714889899, -0.6159135, 0.5013985, 0.4109683, 0.4476107, -0.5677929, 0.1716917, 0.10783005, 0
351, 714906566, -0.6153925, 0.5022548, 0.40741074, 0.4506096, -0.62136894, 0.1588093, 0.36515808, 0
352, 714923233, -0.61450934, 0.5032406, 0.4035805, 0.45414773, -0.71472293, 0.3138276, 0.53852844, 0
353, 714939900, -0.61313325, 0.5045111, 0.39951864, 0.45817152, -0.9649747, 0.49184406, 0.7820692, 0
354, 714956567, -0.6117022, 0.50562364, 0.39554262, 0.46228912, -1.3075112, 0.37191617, 1.4161911, 0
355, 714973234, -0.6109369, 0.5057483, 0.3918369, 0.4663033, -1.4575464, 0.025452314, 2.0398083, 0
356, 714989901, -0.6110011, 0.50487363, 0.3885551, 0.46989927, -1.1675884, -0.18240446, 2.48672, 0
357, 715006568, -0.6110009, 0.5039659, 0.38602224, 0.4729519, -0.33908436, -0.20789923, 2.8793602, 0
358, 715023235, -0.6098645, 0.5040537, 0.3837038, 0.4762004, 0.64181006, -0.20324391, 2.9761934, 0
359, 715039902, -0.6075626, 0.5050363, 0.38089862, 0.480336, 1.1722839, 0.042453602, 2.715414, 0
360, 715056569, -0.60456496, 0.5062862, 0.37791735, 0.48513314, 0.85378975, 0.72395134, 1.7037363, 0
361, 715073236, -0.60140467, 0.5074265, 0.37568513, 0.48958322, 0.005806196, 1.4366577, 0.31191635, 0
362, 715089903, -0.5990554, 0.50771016, 0.37491632, 0.49274832, -0.65971416, 1.7370964, -0.7952156, 0
363, 715106570, -0.59874576, 0.5061174, 0.37584364, 0.49405524, -0.5477856, 1.1969066, -1.2652683, 0
364, 715123237, -0.6006457, 0.50278455, 0.37781015, 0.49365178, 0.47032243, 0.16058914, -1.1231241, 0
365, 715139904, -0.6032777, 0.49954557, 0.37928495, 0.49259856, 1.8056449, -0.41347373, -1.307127, 0
366, 715156571, -0.6052821, 0.49831036, 0.3790511, 0.4915698, 2.7267158, -0.58999586, -1.503726, 0
367, 715173238, -0.60583705, 0.50018674, 0.3764162, 0.49100477, 3.1432018, -0.6855289, -1.1432438, 0
368, 715189905, -0.60432976, 0.50514084, 0.37129155, 0.49169225, 2.812696, -0.69297755, -0.7389593, 0
369, 715206572, -0.60070795, 0.51207554, 0.36482784, 0.49379078, 1.659621, -0.3278984, -0.51497364, 0
370, 715223239, -0.59566903, 0.5193731, 0.35839343, 0.49697533, 0.049822155, 0.44499037, -0.5900326, 0
371, 715239906, -0.5903954, 0.52573717, 0.3529441, 0.50046414, -1.3860126, 1.3410221, -0.87573624, 0
372, 715256573, -0.58620864, 0.5300992, 0.34970894, 0.5030488, -2.216954, 1.994589, -1.0425682, 0
373, 715273240, -0.5838487, 0.53200376, 0.34914404, 0.504174, -2.333253, 2.102544, -1.1675835, 0
374, 715289907, -0.5832206, 0.5319467, 0.3507265, 0.5038627, -1.7897912, 1.9348725, -1.4900141, 0
375, 715306574, -0.5835556, 0.5311652, 0.35345683, 0.502389, -1.0612364, 1.4111267, -1.5963802, 0
376, 715323241, -0.58412856, 0.5305141, 0.3561155, 0.5005301, -0.30192444, 0.7949645, -1.3871279, 0
377, 715339908, -0.58426505, 0.5307083, 0.35761613, 0.4990929, 0.2698035, 0.4613144, -1.1428509, 0
378, 715356575, -0.5835182, 0.5321334, 0.35768387, 0.49840042, 0.3779832, 0.53677684, -0.97132397, 0
379, 715373242, -0.5819193, 0.5345947, 0.35694775, 0.49816358, -0.024394428, 0.8259559, -0.7166929, 0
380, 715389909, -0.57971394, 0.5374877, 0.35618138, 0.49817044, -0.7098081, 1.2222947, -0.4862032, 0
381, 715406576, -0.57752895, 0.5401212, 0.35618693, 0.4978557, -1.3091954, 1.7057139, -0.48084354, 0
382, 715423243, -0.57607406, 0.54186887, 0.35745484, 0.49673232, -1.6101916, 1.9850937, -0.46211815, 0
383, 715439910, -0.5757982, 0.5424295, 0.35988364, 0.49468234, -1.659621, 2.016377, -0.3840685, 0
384, 715456577, -0.5766802, 0.541883, 0.36311692, 0.491883, -1.3307685, 1.7722608, -0.28481102, 0
385, 715473244, -0.5781643, 0.5408673, 0.36633167, 0.48886585, -0.82840496, 1.4613742, -0.29707623, 0
386, 715489911, -0.57971865, 0.5400965, 0.3688134, 0.4860028, -0.43583933, 1.1501894, -0.3379774, 0
387, 715506578, -0.58110076, 0.53969663, 0.37033975, 0.4836299, -0.32734054, 0.859296, -0.20953941, 0
388, 715523245, -0.58241594, 0.53944445, 0.3713578, 0.48154417, -0.35741174, 0.6712664, -0.018797874, 0
389, 715539912, -0.5837993, 0.53929687, 0.37251928, 0.47913116, -0.21491285, 0.53087455, 0.4868641, 0
390, 715556579, -0.5848132, 0.5396371, 0.3737297, 0.4765623, 0.020351525, 0.493796, 0.73183537, 0
391, 715573246, -0.58476955, 0.54095614, 0.37468734, 0.47436345, 0.15015422, 0.9381384, 0.45299625, 0
392, 715589913, -0.5838553, 0.5431535, 0.37528938, 0.4724991, -0.14104293, 1.3930345, 0.6408272, 0
393, 715606580, -0.58268714, 0.5456298, 0.37552595, 0.47089732, -0.8375388, 1.3479437, 1.5922527, 0
394, 715623247, -0.5820071, 0.54749966, 0.3757711, 0.46936968, -1.2100064, 0.85382843, 2.9987822, 0
395, 715639914, -0.5818219, 0.5482412, 0.37649384, 0.468153, -1.2120408, 0.27247524, 3.8311014, 0
396, 715656581, -0.5814757, 0.54826367, 0.37767455, 0.4676058, -0.86472714, 0.31186494, 3.1365147, 0
397, 715673248, -0.5806803, 0.5482215, 0.3796857, 0.46701425, -0.75388324, 0.68718255, 2.461794, 0
398, 715689915, -0.57965755, 0.5479897, 0.38270357, 0.46609268, -0.88185203, 0.5918847, 2.3076105, 0
399, 715706582, -0.5790956, 0.5469196, 0.38634413, 0.46504366, -1.0425348, 0.35439858, 1.9603949, 0
400, 715723249, -0.5797157, 0.5443874, 0.3906545, 0.46363914, -1.1021688, 0.26770282, 1.332263, 0
401, 715739916, -0.58186525, 0.54040533, 0.3951594, 0.46178383, -0.8068804, -0.06974476, 0.85078716, 0
402, 715756583, -0.5852513, 0.5355677, 0.3994924, 0.45940647, -0.32852268, -0.5134837, 0.7100744, 0
403, 715773250, -0.58919334, 0.5304866, 0.40316495, 0.45704848, 0.2580998, -0.90608174, 0.6532917, 0
404, 715789917, -0.5932698, 0.5254991, 0.40586618, 0.45514226, 0.7771246, -1.1377344, 0.49830914, 0
405, 715806584, -0.59726197, 0.52082586, 0.40770864, 0.45364344, 1.0583564, -1.1839579, 0.3950796, 0
406, 715823251, -0.60096115, 0.51655924, 0.4088574, 0.45260146, 1.1659175, -1.2051504, 0.193923, 0
407, 715839918, -0.6043691, 0.51276815, 0.40946254, 0.45182657, 1.0989705, -1.0667304, -0.09405804, 0
408, 715856585, -0.6076519, 0.5094835, 0.4098614, 0.45077643, 1.1541375, -0.91770416, -0.25830173, 0
409, 715873252, -0.610993, 0.50664455, 0.41004995, 0.4492858, 1.3038832, -0.88891685, -0.32965088, 0
410, 715889919, -0.6143162, 0.5042187, 0.40976664, 0.44773936, 1.407523, -0.866568, -0.5728531, 0
411, 715906586, -0.6175315, 0.5020207, 0.4090411, 0.44644785, 1.3187062, -0.84733695, -0.9731693, 0
412, 715923253, -0.62059045, 0.5000284, 0.40766984, 0.44569567, 1.058482, -0.7601727, -0.99970055, 0
413, 715939920, -0.62361234, 0.49790215, 0.40549642, 0.44584084, 0.7117419, -0.7453518, -0.5164604, 0
414, 715956587, -0.62701005, 0.49467552, 0.40263295, 0.44725978, 0.03598089, -1.0080886, -0.11632061, 0
415, 715973254, -0.6301978, 0.49077338, 0.399787, 0.44962513, -0.65755254, -0.5864222, -0.43545437, 0
416, 715989921, -0.6326129, 0.4874021, 0.3980391, 0.4514477, -0.62405264, -0.06022154, -0.8748913, 0
417, 716006588, -0.6354455, 0.48376733, 0.39689383, 0.45238656, -0.4455809, -0.4724695, -0.56404305, 0
418, 716023255, -0.63919455, 0.47880614, 0.39588922, 0.45326227, -0.39963916, -0.87515825, -0.24584293, 0
419, 716039922, -0.6435925, 0.4727219, 0.39480752, 0.4543673, -0.33032733, -0.9443668, -0.23542595, 0
420, 716056589, -0.64827096, 0.46621338, 0.39369997, 0.45540127, -0.286475, -0.9689499, -0.2596674, 0
421, 716073256, -0.6530216, 0.45973226, 0.39229554, 0.45641354, -0.21365134, -1.0431415, -0.22371101, 0
422, 716089923, -0.6575652, 0.45373005, 0.39038187, 0.45753592, -0.1923928, -1.0045804, -0.17070675, 0
423, 716106590, -0.6618097, 0.4483515, 0.3876413, 0.45904592, -0.09859425, -0.9331373, -0.1895113, 0
424, 716123257, -0.6660365, 0.4434294, 0.3837033, 0.4610181, -0.27653223, -0.8845749, -0.054592133, 0
425, 716139924, -0.6705708, 0.43858102, 0.37861538, 0.46328387, -0.79910153, -0.836913, 0.21830177, 0
426, 716156591, -0.6762152, 0.43287408, 0.372388, 0.4654896, -1.5590256, -1.0424327, 0.80727863, 0
427, 716173258, -0.68264526, 0.42619658, 0.36556178, 0.46767157, -2.08576, -0.5661197, 1.1473475, 0
428, 716189925, -0.6894211, 0.41919333, 0.35913268, 0.46904078, -1.9165322, -0.28162655, 1.3528328, 0
429, 716206592, -0.69678944, 0.4113411, 0.35379073, 0.46916437, -1.6314745, -0.42787218, 1.3303909, 0
430, 716223259, -0.70493764, 0.40206113, 0.34984928, 0.46799102, -1.5401542, -0.6960989, 1.1732683, 0
431, 716239926, -0.71358365, 0.39198655, 0.34734443, 0.4652924, -0.9637606, -1.001136, 1.3113403, 0
432, 716256593, -0.72229415, 0.38166323, 0.3458488, 0.46153346, -0.18215926, -0.93608636, 1.2955923, 0
433, 716273260, -0.73014635, 0.37267742, 0.34496954, 0.45715868, 0.7703734, -1.3772671, 1.0545578, 0
434, 716289927, -0.737236, 0.36576894, 0.3437863, 0.45222476, 1.5399086, -1.5406104, 1.2930069, 0
435, 716306594, -0.7430211, 0.36133105, 0.34211797, 0.44756564, 1.8918123, -1.7866175, 1.4795551, 0
436, 716323261, -0.7464802, 0.35962474, 0.3406117, 0.44432098, 1.1036761, -1.1937661, 0.6802454, 0
437, 716339928, -0.74811023, 0.3595645, 0.34070498, 0.4415479, -0.102843896, -0.023586875, -0.8387308, 0
438, 716356595, -0.74897015, 0.35986373, 0.34321833, 0.4378848, -0.5691383, 0.99839395, -2.159504, 0
439, 716373262, -0.74966973, 0.3599323, 0.34813562, 0.432719, -0.43222556, 1.2923216, -2.88264, 0
440, 716389929, -0.75102115, 0.35933223, 0.35394266, 0.42611322, 0.18408906, 0.8966544, -2.8851748, 0
441, 716406596, -0.7535102, 0.35818782, 0.35952848, 0.41792727, 0.9997047, 0.16139558, -2.583623, 0
442, 716423263, -0.75653046, 0.35716337, 0.36476535, 0.40870818, 1.2459213, -0.040308326, -2.3625956, 0
443, 716439930, -0.7591167, 0.3568979, 0.3703508, 0.39900663, 1.0575042, -0.059249036, -2.4026303, 0
444, 716456597, -0.76106393, 0.35760707, 0.3767931, 0.38849214, 0.8839761, -0.043973267, -2.1366172, 0
445, 716473264, -0.7619911, 0.35980058, 0.38408655, 0.37734726, 1.0236322, -0.14641485, -1.4573002, 0
446, 716489931, -0.7610528, 0.3640711, 0.39265987, 0.36615446, 0.91238034, -0.23664658, -0.78214455, 0
447, 716506598, -0.7578598, 0.37038803, 0.40278918, 0.3552775, 0.7345769, -0.24676858, -0.42847443, 0
448, 716523265, -0.7530666, 0.37772834, 0.4137968, 0.3449411, 0.63055354, -0.36027852, -0.09793091, 0
449, 716539932, -0.7477512, 0.38485, 0.42420593, 0.3358694, 0.12599067, -0.30893403, 0.26597023, 0
450, 716556599, -0.7423925, 0.39103928, 0.4340072, 0.32799324, -0.73827827, 0.066852726, 0.42590427, 0
451, 716573266, -0.73760337, 0.3956073, 0.44360024, 0.32039848, -2.0335047, 0.51252216, 0.60890007, 0
452, 716589933, -0.73430276, 0.39719898, 0.45372266, 0.31171808, -2.7742512, 0.50200206, 0.8198767, 0
453, 716606600, -0.7339922, 0.3938125, 0.46427336, 0.30102763, -3.1562188, 0.357205, 0.9706383, 0
454, 716623267, -0.73617905, 0.38449782, 0.47684354, 0.2877881, -3.532198, 0.38644004, 1.4335089, 0
455, 716639934, -0.7404373, 0.3699856, 0.49053195, 0.2724731, -3.1133387, 0.06954226, 1.4556456, 0
456, 716656601, -0.7457024, 0.35214183, 0.50439745, 0.25594392, -2.3870347, -0.20630269, 1.2785559, 0
457, 716673268, -0.7512126, 0.3318731, 0.51818144, 0.23880531, -1.3413694, -0.2728579, 1.0439949, 0
458, 716689935, -0.75632316, 0.31021196, 0.5315563, 0.22179267, -0.3077228, -0.2232995, 0.71030426, 0
459, 716706602, -0.7610179, 0.28830537, 0.5435878, 0.20553449, 0.2922879, -0.29025415, 0.32986164, 0
460, 716723269, -0.7650124, 0.26711416, 0.5543241, 0.19008182, 0.47950816, -0.5976021, -0.08253479, 0
461, 716739936, -0.7683531, 0.24692737, 0.56389254, 0.175173, 0.4333657, -1.2207377, -0.4006605, 0
462, 716756603, -0.7713265, 0.2275863, 0.57224435, 0.16061321, 0.4082129, -1.7582306, -0.7055321, 0
463, 716773270, -0.7735889, 0.20908347, 0.580116, 0.14597927, 0.34979174, -1.6862487, -0.9453058, 0
464, 716789937, -0.77522033, 0.19116795, 0.58767533, 0.13086686, 0.26008728, -1.4771813, -0.8442707, 0
465, 716806604, -0.77640396, 0.17400852, 0.5946291, 0.11547461, 0.8778469, -1.338629, -0.66041374, 0
466, 716823271, -0.7773991, 0.15724434, 0.6008413, 0.09957347, 0.9142936, -1.3815416, -0.38608265, 0
467, 716839938, -0.7782136, 0.14098111, 0.60628074, 0.08325856, 1.0246375, -1.5910081, -0.29760456, 0
468, 716856605, -0.77855563, 0.12497047, 0.6114724, 0.06584329, 1.0594546, -1.8840779, -0.057390213, 0
469, 716873272, -0.7782011, 0.108765215, 0.61674035, 0.046954945, 1.2777306, -2.0060103, 0.50682545, 0
470, 716889939, -0.7771851, 0.092010394, 0.62193906, 0.026639454, 1.6590406, -1.8261923, 1.2565222, 0
471, 716906606, -0.77554935, 0.07446118, 0.6268581, 0.0052773943, 1.9473097, -1.3328756, 1.5789795, 0
472, 716923273, -0.77321243, 0.05654385, 0.63139975, -0.016725304, 2.237256, -0.77436304, 1.6624708, 0
473, 716939940, -0.77036667, 0.038661513, 0.63524723, -0.038748555, 2.584492, -0.17806137, 1.7258949, 0
474, 716956607, -0.76738614, 0.02101114, 0.63804156, -0.05983324, 2.882736, 0.376872, 1.4675617, 0
475, 716973274, -0.76464164, 0.003868731, 0.6395093, -0.0796, 3.0145786, 0.9153792, 0.8615179, 0
476, 716989941, -0.7623751, -0.012413986, 0.63954586, -0.098037146, 3.101214, 1.4527438, 0.113544464, 0
477, 717006608, -0.76048684, -0.02747248, 0.6384866, -0.11506557, 3.1381884, 1.9002978, -0.4253273, 0
478, 717023275, -0.7590806, -0.04095569, 0.6364107, -0.13076995, 3.2629232, 2.3924289, -0.76692677, 0
479, 717039942, -0.75820225, -0.052641362, 0.6335001, -0.14503849, 3.3978426, 2.7423236, -1.0324602, 0
480, 717056609, -0.75784004, -0.062234815, 0.6299656, -0.15795192, 3.4925275, 2.9674034, -1.2751713, 0
481, 717073276, -0.757634, -0.070034795, 0.6262591, -0.16995777, 3.5203764, 3.0270526, -1.181961, 0
482, 717089943, -0.7575532, -0.07634435, 0.62252474, -0.18096386, 3.692538, 3.0167923, -0.87290764, 0
483, 717106610, -0.75762534, -0.08149099, 0.6187779, -0.19098945, 3.7980716, 2.93593, -0.58482265, 0
484, 717123277, -0.7575915, -0.0857668, 0.6153435, -0.20012863, 3.7497463, 2.790392, -0.41708565, 0
485, 717139944, -0.75704366, -0.089144655, 0.6127462, -0.20851919, 3.4707859, 2.6225002, -0.48613834, 0
486, 717156611, -0.7554409, -0.0921226, 0.6115931, -0.21627821, 3.0843296, 2.500587, -0.44586182, 0
487, 717173278, -0.7528062, -0.09477774, 0.6118288, -0.22353065, 2.7837296, 2.501385, -0.4565916, 0
488, 717189945, -0.74925804, -0.09705138, 0.61326593, -0.23043123, 2.5917625, 2.5571644, -0.37561226, 0
489, 717206612, -0.74502724, -0.098768145, 0.61565596, -0.23695427, 2.3997464, 2.6098228, -0.28770065, 0
490, 717223279, -0.7404864, -0.099856056, 0.61858886, -0.24301577, 2.1751435, 2.6324816, -0.20828342, 0
491, 717239946, -0.73599046, -0.10034567, 0.6216568, -0.24857935, 1.8387351, 2.6516125, -0.2958107, 0
492, 717256613, -0.7315017, -0.10029921, 0.62492293, -0.25360772, 1.5947169, 2.461769, -0.32492828, 0
493, 717273280, -0.7268998, -0.09990745, 0.62859887, -0.2578734, 1.3161734, 2.2854643, -0.10877895, 0
494, 717289947, -0.7222804, -0.09972745, 0.6325089, -0.2613392, 1.23142, 2.016313, 0.14950752, 0
495, 717306614, -0.71779543, -0.100352354, 0.6362449, -0.26437038, 1.1483657, 1.7142261, 0.58148, 0
496, 717323281, -0.7136818, -0.10243244, 0.6391637, -0.26764852, 1.1653854, 1.4658145, 0.77526855, 0
497, 717339948, -0.70976037, -0.10639477, 0.6412232, -0.27157566, 1.0393782, 1.2891675, 0.87345886, 0
498, 717356615, -0.7058135, -0.11218666, 0.6426213, -0.2761874, 0.76493555, 1.3680803, 0.82099533, 0
499, 717373282, -0.701286, -0.11927125, 0.6440798, -0.28130713, 0.51067346, 1.5636389, 0.641901, 0
500, 717389949, -0.6962629, -0.1267188, 0.6457725, -0.2865975, 0.4936364, 1.9424, 0.5526495, 0
501, 717406616, -0.69127274, -0.1337011, 0.64742035, -0.29174095, 0.5590233, 2.2773504, 0.45250988, 0
502, 717423283, -0.68666327, -0.13968232, 0.6489436, -0.296403, 0.57293254, 2.424243, 0.30408478, 0
503, 717439950, -0.6823959, -0.14442176, 0.6506968, -0.30012, 0.5857318, 2.346911, 0.06291485, 0
504, 717456617, -0.6783722, -0.14786746, 0.6529412, -0.30267838, 0.66621387, 1.9280514, -0.09216595, 0
505, 717473284, -0.6745849, -0.15006362, 0.6556326, -0.30424014, 0.9137214, 1.3040705, -0.1506567, 0
506, 717489951, -0.67112714, -0.15162207, 0.6583355, -0.30527622, 1.1487535, 0.7237293, -0.06760788, 0
507, 717506618, -0.6682391, -0.15324007, 0.6603109, -0.30653483, 1.4099758, 0.2793689, 0.039596558, 0
508, 717523285, -0.6660235, -0.15535174, 0.661153, -0.30847257, 1.5534915, -0.04429323, -0.06868172, 0
509, 717539952, -0.6640593, -0.15804279, 0.6612644, -0.31109032, 1.396886, -0.15644102, -0.32312107, 0
510, 717556619, -0.66203743, -0.16097578, 0.6611399, -0.3141458, 1.0799315, -0.002884379, -0.4530859, 0
511, 717573286, -0.66009265, -0.1635501, 0.66096336, -0.31726456, 0.86306846, 0.35902864, -0.41406345, 0
512, 717589953, -0.65851384, -0.1652987, 0.6606873, -0.32020018, 0.7492266, 0.7052396, -0.10837269, 0
513, 717606620, -0.6574298, -0.1660284, 0.6603093, -0.3228193, 0.818525, 0.7993542, 0.5177059, 0
514, 717623287, -0.65660965, -0.1658222, 0.66018647, -0.3248395, 0.83923393, 0.6310443, 1.4472971, 0
515, 717639954, -0.6558478, -0.16527696, 0.66049457, -0.32602817, 0.6394835, 0.28330457, 2.185215, 0
516, 717656621, -0.6549545, -0.16550513, 0.6612542, -0.3261683, 0.26787716, -0.15744533, 2.0647764, 0
517, 717673288, -0.6541323, -0.16696984, 0.6619269, -0.3257071, -0.1216277, -0.6055059, 1.2177525, 0
518, 717689955, -0.6537085, -0.16938072, 0.66192937, -0.3253076, -0.3349838, -0.9108497, 0.16106892, 0
519, 717706622, -0.65367305, -0.17232747, 0.6611899, -0.32533494, -0.32125026, -0.9713332, -0.62583256, 0
520, 717723289, -0.65385884, -0.17562799, 0.6597684, -0.3260814, -0.16089982, -0.78161186, -0.89716053, 0
521, 717739956, -0.65418005, -0.17917076, 0.6577325, -0.32761922, 0.014096515, -0.64650583, -0.7840414, 0
522, 717756623, -0.654482, -0.1828213, 0.6553654, -0.3297364, 0.16597983, -0.6947976, -0.48941898, 0
523, 717773290, -0.65454906, -0.18650739, 0.65305406, -0.3321163, 0.30221054, -0.8382922, -0.19634342, 0
524, 717789957, -0.6542026, -0.190085, 0.6511485, -0.334503, 0.19912232, -0.94996625, 0.013879776, 0
525, 717806624, -0.6535781, -0.1929988, 0.64980924, -0.3366528, -0.16139379, -0.83582693, 0.40644836, 0
526, 717823291, -0.6528633, -0.19527936, 0.64893484, -0.3384066, -0.55986506, -0.7424155, 0.7550812, 0
527, 717839958, -0.6519228, -0.19748692, 0.64855075, -0.33967263, -0.82552856, -0.8916796, 0.90350246, 0
528, 717856625, -0.65071034, -0.20010173, 0.64825803, -0.34102324, -0.8939843, -1.0252964, 1.0536404, 0
529, 717873292, -0.64984673, -0.20281643, 0.64743954, -0.34261766, -0.87959766, -1.1572826, 1.2453184, 0
530, 717889959, -0.6493265, -0.20593049, 0.64602506, -0.34441188, -0.7607313, -1.3933823, 0.7758856, 0
531, 717906626, -0.6489568, -0.20926316, 0.6441283, -0.34664527, -0.55774933, -1.5719992, 0.28717518, 0
532, 717923293, -0.64867383, -0.2125053, 0.6417837, -0.34953913, -0.5259139, -1.5589145, 0.06824875, 0
533, 717939960, -0.648612, -0.21509436, 0.6390538, -0.353054, -0.32372364, -1.3410918, -0.056360245, 0
534, 717956627, -0.6487728, -0.21662031, 0.6361121, -0.35711506, -0.149481, -1.1148573, -0.19783592, 0
535, 717973294, -0.6490586, -0.21671903, 0.63319486, -0.3616909, -0.17333117, -0.9456195, -0.1652422, 0
536, 717989961, -0.6492156, -0.21542962, 0.6306504, -0.3665916, -0.1948814, -0.966097, -0.23307037, 0
537, 718006628, -0.6489488, -0.21301116, 0.6285182, -0.37209752, -0.07559744, -0.919231, -0.13748074, 0
538, 718023295, -0.64846665, -0.20923403, 0.62671846, -0.37806916, 0.06023361, -1.0060551, -0.11558819, 0
539, 718039962, -0.647302, -0.20419283, 0.62575334, -0.38436723, -0.04222428, -1.2737342, -0.11414719, 0
540, 718056629, -0.6453157, -0.19861959, 0.62518185, -0.3914914, 0.1412222, -1.3453075, 0.06491184, 0
541, 718073296, -0.6427118, -0.19248307, 0.62477636, -0.3994075, 0.22949149, -1.3246256, 0.39459896, 0
542, 718089963, -0.6396588, -0.18570769, 0.6245253, -0.40782055, 0.10234748, -1.0980752, 0.8833504, 0
543, 718106630, -0.6365312, -0.1786184, 0.6241471, -0.41637012, -0.01651269, -0.61119586, 0.7984228, 0
544, 718123297, -0.6329227, -0.17199183, 0.6238017, -0.4250871, -0.20527475, -0.2124247, 0.36284924, 0
545, 718139964, -0.62903506, -0.16513464, 0.62355155, -0.43385363, -0.37636766, 0.060319442, -0.26088905, 0
546, 718156631, -0.6249718, -0.15756537, 0.6235438, -0.44246653, -0.20199268, 0.12187714, -0.8146992, 0
547, 718173298, -0.62040836, -0.15067798, 0.6224048, -0.4527714, -0.38126394, -0.16374078, -0.37396145, 0
548, 718189965, -0.616889, -0.14236845, 0.6179018, -0.46623683, 0.9816917, -1.3152988, 0.8152094, 0
549, 718206632, -0.61297286, -0.12994431, 0.6158111, -0.47765625, 1.6596897, -1.7179731, 0.72679234, 0
550, 718223299, -0.6060917, -0.1202635, 0.616039, -0.48855475, 0.965787, -1.1356627, 0.50564194, 0
551, 718239966, -0.5971295, -0.11468046, 0.616075, -0.50073594, 0.6591048, 0.029623624, 0.6470032, 0
552, 718256633, -0.5880656, -0.10855192, 0.617292, -0.5112201, 0.116635315, 0.76935947, 0.5648308, 0
553, 718273300, -0.57921445, -0.10219388, 0.6197883, -0.51954764, -0.561532, 1.4083753, 0.56626797, 0
554, 718289967, -0.572123, -0.0954287, 0.6209325, -0.527268, -0.3591844, 1.3383992, 0.746439, 0
555, 718306634, -0.56506985, -0.08920649, 0.6217198, -0.5349793, -0.32559243, 0.123303495, 0.25712585, 0
556, 718323301, -0.56229514, -0.07743373, 0.61878204, -0.5430811, -0.42301503, 2.7503514, 0.5154505, 0
557, 718339968, -0.55698717, -0.06847549, 0.6157526, -0.5531052, -1.1164249, -2.5780005, -0.7277851, 0
558, 718356635, -0.549159, -0.063504025, 0.61735487, -0.55970055, -1.0101507, 0.47511876, 0.5519428, 0
559, 718373302, -0.5428411, -0.058442254, 0.619059, -0.56451213, -1.4630206, 1.4210583, -0.33248615, 0
560, 718389969, -0.5372216, -0.054212652, 0.61984116, -0.5694303, -2.0715785, 1.4313812, -1.1747179, 0
561, 718406636, -0.53224456, -0.050768528, 0.62024, -0.57396924, -2.0401714, 1.0878756, -1.4606981, 0
562, 718423303, -0.528521, -0.047069445, 0.6215027, -0.57635444, -1.9230169, 1.1074932, -1.816638, 0
563, 718439970, -0.5258923, -0.044473868, 0.6230008, -0.57734674, -2.1970067, 1.6330458, -1.9583807, 0
564, 718456637, -0.5262236, -0.0417034, 0.6194628, -0.5810467, -2.8477407, 1.5180322, -2.0276566, 0
565, 718473304, -0.5264444, -0.04016523, 0.6204247, -0.57992786, -0.28440726, -0.31914797, -0.111730576, 0
566, 718489971, -0.52777785, -0.040315434, 0.6218308, -0.57719296, -1.3198925, 0.30004835, -0.14091301, 0
567, 718506638, -0.5302149, -0.042653188, 0.62227166, -0.5743091, -1.0241319, 0.39547136, -0.04048729, 0
568, 718523305, -0.5331278, -0.046872027, 0.62183625, -0.5717495, -1.3381276, 0.28837818, -0.09636116, 0
569, 718539972, -0.53610516, -0.051277332, 0.62152386, -0.56892, -1.2146142, 0.55288285, -0.08624554, 0
570, 718556639, -0.53941405, -0.0549543, 0.6213442, -0.5656359, -1.0741417, 0.8602669, 0.02944851, 0
571, 718573306, -0.5432766, -0.057446767, 0.6210802, -0.56196964, -0.9399247, 1.1178677, 0.100634575, 0
572, 718589973, -0.54774714, -0.05863665, 0.62083375, -0.5577638, -0.6934085, 0.9400398, 0.14223099, 0
573, 718606640, -0.55244917, -0.058776107, 0.62092155, -0.5529934, -0.4264256, 0.75321656, 0.25104713, 0
574, 718623307, -0.5571795, -0.05840921, 0.6213363, -0.5477962, -0.2235029, 0.5998583, 0.37600994, 0
575, 718639974, -0.5613945, -0.058077473, 0.62242943, -0.5422591, -0.070403226, 0.18240604, 0.38810253, 0
576, 718656641, -0.5647781, -0.057500277, 0.6247994, -0.5360462, 0.14778922, -0.072400905, 0.019752502, 0
577, 718673308, -0.56777304, -0.056398608, 0.6275302, -0.5297725, 0.54312176, 0.022267366, -0.5710697, 0
578, 718689975, -0.5708963, -0.056144632, 0.62977874, -0.52374053, 0.88011175, 0.010772766, -0.62741566, 0
579, 718706642, -0.5751771, -0.056744546, 0.63076, -0.51777726, 0.59266675, 0.05336791, 0.5119171, 0
580, 718723309, -0.5813044, -0.057494834, 0.6301099, -0.5116064, 0.6698764, 0.07564402, 1.0696783, 0
581, 718739976, -0.5879337, -0.058976397, 0.6285665, -0.5057272, 0.83195347, -0.031543124, 0.07995701, 0
582, 718756643, -0.5926144, -0.061793406, 0.6284242, -0.500073, 0.8568635, 0.010888322, -0.64029884, 0
583, 718773310, -0.5966441, -0.06473544, 0.62921435, -0.49387705, -0.002628736, 0.5650258, -0.2189188, 0
584, 718789977, -0.6014512, -0.0685623, 0.62937015, -0.48728737, -0.7200736, 0.8335042, 0.10317612, 0
585, 718806644, -0.60741097, -0.074069425, 0.62869424, -0.4799055, -0.073499106, 0.70687413, -0.19304562, 0
586, 718823311, -0.6130491, -0.08233846, 0.6261081, -0.47474208, -0.51917344, 0.4135053, -0.3605957, 0
587, 718839978, -0.61787295, -0.09169768, 0.62337536, -0.47034863, 0.44745013, 0.3245061, 0.4235344, 0
588, 718856645, -0.62304604, -0.10276872, 0.619447, -0.4664096, 0.7693468, -0.0122721465, 0.47183037, 0
589, 718873312, -0.6270445, -0.116198115, 0.61537933, -0.46327272, 1.5101306, -0.45207068, -0.121990204, 0
590, 718889979, -0.6288641, -0.12994568, 0.613172, -0.46006986, 1.5294328, -0.66412663, -0.5800085, 0
591, 718906646, -0.6298491, -0.14041105, 0.61349404, -0.45519245, 0.33082867, 0.026342064, -0.22179127, 0
592, 718923313, -0.63109136, -0.1485309, 0.6147005, -0.44922802, -0.4324761, 1.1405036, 0.22338486, 0
593, 718939980, -0.6334317, -0.15677136, 0.614318, -0.4436222, -0.07881916, 1.4149467, 0.5223541, 0
594, 718956647, -0.63573533, -0.16688891, 0.6122294, -0.43950415, 0.66215914, 0.35903808, 0.29867458, 0
595, 718973314, -0.6364345, -0.17851757, 0.6104194, -0.43642974, 1.3666639, -0.6214378, -0.014183044, 0
596, 718989981, -0.6362454, -0.18908459, 0.60998, -0.43285495, 1.6697993, -0.96303654, -0.27546978, 0
597, 719006648, -0.6350899, -0.1987211, 0.611202, -0.42848912, 1.0112177, -0.675141, -0.30436325, 0
598, 719023315, -0.63354737, -0.20864683, 0.61229646, -0.42447317, 0.09080572, -0.056281343, -0.006152153, 0
599, 719039982, -0.6322031, -0.21916258, 0.61265403, -0.4206447, -0.76059645, 0.12452689, 0.25418186, 0
600, 719056649, -0.63185173, -0.22886474, 0.61289227, -0.4156291, -1.0356319, 0.60874355, 0.58127975, 0
601, 719073316, -0.63319296, -0.23692612, 0.612469, -0.40965182, -0.9102514, 0.5284254, 0.7042017, 0
602, 719089983, -0.6365317, -0.24356358, 0.6112288, -0.40237257, -1.0002388, 0.3828369, 1.1628399, 0
603, 719106650, -0.6412747, -0.24951755, 0.60900784, -0.39448375, -1.6394447, 0.35569248, 1.290638, 0
604, 719123317, -0.64689744, -0.25462708, 0.60594517, -0.3866773, -1.8722486, 0.10735908, 1.3105783, 0
605, 719139984, -0.65229, -0.2588205, 0.6035219, -0.37853828, -0.5626796, 0.03436914, 1.0760498, 0
606, 719156651, -0.6574802, -0.26133585, 0.6015781, -0.37084648, 1.0523616, 0.16992795, 0.9145746, 0
607, 719173318, -0.66255057, -0.26260126, 0.5989827, -0.36508533, 1.703636, -0.55488956, 0.8098326, 0
608, 719189985, -0.6661456, -0.26459002, 0.5965891, -0.36100346, 2.1405427, -0.96208805, 0.25035954, 0
609, 719206652, -0.6684535, -0.2660114, 0.5951068, -0.35812822, 1.7940415, -0.17554606, -0.34129238, 0
610, 719223319, -0.66940147, -0.2663507, 0.5946745, -0.35682097, 1.6562397, -0.33725178, -0.2771654, 0
611, 719239986, -0.66979253, -0.26565784, 0.5946639, -0.35662138, 1.6196891, -0.43375906, -0.34002495, 0
612, 719256653, -0.66948974, -0.2639655, 0.5952431, -0.3574792, 1.4475296, -0.6921025, -0.54241276, 0
613, 719273320, -0.66845155, -0.2608499, 0.5968067, -0.35909858, 1.1714491, -0.98988813, -0.44699955, 0
614, 719289987, -0.6670963, -0.25628537, 0.5989769, -0.36128542, 0.9333722, -0.88166195, -0.034754753, 0
615, 719306654, -0.6659459, -0.250139, 0.60158145, -0.36338204, 0.5935883, -0.6420785, 0.23892689, 0
616, 719323321, -0.6650113, -0.24211845, 0.60488087, -0.36504513, 0.006844414, -0.5036016, 0.31943226, 0
617, 719339988, -0.6644282, -0.23208134, 0.6087884, -0.36612853, -0.60817695, -0.31424892, 0.40644646, 0
618, 719356655, -0.6645252, -0.22086413, 0.61248344, -0.3667282, -0.80752283, -0.31234205, 0.4923582, 0
619, 719373322, -0.66542894, -0.20888644, 0.6154726, -0.3671028, -0.7953244, -0.51942945, 0.52952003, 0
620, 719389989, -0.666795, -0.19638823, 0.6181632, -0.3670018, -0.6669609, -0.65918505, 0.48094845, 0
621, 719406656, -0.668524, -0.18347335, 0.62031853, -0.36690366, -0.5394673, -0.6591656, 0.44178963, 0
622, 719423323, -0.6705333, -0.17019719, 0.62183666, -0.3670656, -0.3566833, -0.6414007, 0.43882465, 0
623, 719439990, -0.6726003, -0.15639208, 0.62320787, -0.3670997, -0.14614707, -0.3529151, 0.5003128, 0
624, 719456657, -0.6753606, -0.14186691, 0.62320274, -0.36794055, 0.018100973, -0.39859277, 0.32826996, 0
625, 719473324, -0.67718774, -0.12843299, 0.6232688, -0.3694023, 0.47690737, -0.83418477, 0.28427315, 0
626, 719489991, -0.67842454, -0.11597307, 0.6236324, -0.37063912, 0.6962393, -1.1728871, 0.26395702, 0
627, 719506658, -0.6787688, -0.10479658, 0.6244249, -0.3720006, 0.598177, -0.9254735, 0.2086134, 0
628, 719523325, -0.67861634, -0.095144846, 0.624771, -0.37428406, 0.4351498, -0.75783145, 0.18024158, 0
629, 719539992, -0.6778388, -0.087143555, 0.6247923, -0.37759137, 0.19136912, -0.7606143, 0.10929108, 0
630, 719556659, -0.6768792, -0.08057377, 0.62360835, -0.38269475, 0.2677493, -0.8279268, 0.3395567, 0
631, 719573326, -0.67572016, -0.07412399, 0.6221464, -0.38838348, 0.81879544, -1.0565532, 0.02051258, 0
632, 719589993, -0.6738497, -0.06827776, 0.62123233, -0.39412585, 0.961561, -0.9586412, -0.42057037, 0
633, 719606660, -0.6704712, -0.063796766, 0.6217319, -0.39980984, 0.58120143, -0.672772, -0.61685944, 0
634, 719623327, -0.66637784, -0.060804598, 0.6226914, -0.40558487, 0.53706497, 0.0010539194, -0.3418913, 0
635, 719639994, -0.66250795, -0.058283497, 0.62344366, -0.41110167, 0.87620366, 0.5707872, -0.18535995, 0
636, 719656661, -0.6595127, -0.0544649, 0.6236656, -0.41607442, 0.9032726, 0.6429101, -0.25715256, 0
637, 719673328, -0.65623015, -0.048678275, 0.62529415, -0.41952333, 0.7266174, 0.016509086, -0.45397758, 0
638, 719689995, -0.65197265, -0.041487355, 0.629062, -0.4212973, 0.66417146, 0.01768035, -0.2929411, 0
639, 719706662, -0.6481743, -0.033238944, 0.6322796, -0.42306945, 0.41197416, -0.089086145, 0.35658932, 0
640, 719723329, -0.6443656, -0.025310611, 0.634448, -0.42617884, -0.14275415, -0.3256695, 0.87312603, 0
641, 719739996, -0.64074045, -0.017206918, 0.63615596, -0.4294899, 0.20448932, -0.6394496, 1.0606565, 0
642, 719756663, -0.6366715, -0.010436029, 0.6378504, -0.4332289, 0.07574362, -0.93863016, 0.84369755, 0
643, 719773330, -0.6320852, -0.0066215275, 0.6389216, -0.43841052, 0.10703275, -0.6183932, 0.76948166, 0
644, 719789997, -0.62758905, -0.005772764, 0.63848335, -0.4454638, -0.18423368, -0.43158045, 0.62001324, 0
645, 719806664, -0.6237682, -0.0059154695, 0.6368141, -0.45315164, -0.69617045, -0.035261527, 0.4296837, 0
646, 719823331, -0.6207621, -0.005837801, 0.6348333, -0.46000794, -1.4166486, 0.5121395, -0.30088806, 0
647, 719839998, -0.61788285, -0.0057863863, 0.6334281, -0.46578553, -1.6197568, 1.2172211, -1.04533, 0
648, 719856665, -0.61518836, -0.0056949444, 0.6326479, -0.4703909, -1.6062318, 1.723844, -1.2645121, 0
649, 719873332, -0.61323684, -0.0047894046, 0.63266593, -0.47291818, -1.2324058, 1.7154492, -0.93207073, 0
650, 719889999, -0.61246616, -0.0028094184, 0.63334453, -0.47302446, -1.1618463, 1.2861872, -0.45144463, 0
651, 719906666, -0.6127414, -9.724208E-4, 0.63404703, -0.47173253, -1.1483687, 0.58930755, -0.10636997, 0
652, 719923333, -0.61347044, -5.0695246E-4, 0.63474363, -0.46984512, -1.0325683, -0.013757054, -0.04065323, 0
653, 719940000, -0.61400366, -0.0016357602, 0.63563746, -0.4679337, -0.68689734, -0.24172066, 0.09988499, 0
654, 719956667, -0.6145024, -0.0037822248, 0.63639075, -0.46623975, -0.68411684, -0.07134572, 0.27242374, 0
655, 719973334, -0.6154299, -0.006182365, 0.6369303, -0.4642499, -0.9239532, 0.18766038, 0.11934376, 0
656, 719990001, -0.61709654, -0.008411899, 0.6370075, -0.46189046, -0.6199351, 0.4788422, -0.06502628, 0
657, 720006668, -0.6192082, -0.010169599, 0.6368762, -0.45920196, -0.18835706, 0.40174788, -0.10765934, 0
658, 720023335, -0.6212308, -0.011758333, 0.636872, -0.45642975, 0.2159171, 0.17473933, -0.038506508, 0
659, 720040002, -0.623109, -0.013568919, 0.6369054, -0.45376495, 0.4085723, -0.085381374, 0.15719223, 0
660, 720056669, -0.624825, -0.015526076, 0.6369777, -0.45123416, 0.25839707, -0.280048, 0.39089012, 0
661, 720073336, -0.62666243, -0.01767166, 0.6367996, -0.44885236, 0.09608018, -0.47165772, 0.60013103, 0
662, 720090003, -0.6286715, -0.020316387, 0.6365583, -0.44626594, -0.05522245, -0.48773628, 0.41159534, 0
663, 720106670, -0.63031876, -0.023410123, 0.63675296, -0.44350427, -0.24825539, -0.2799209, -0.28436852, 0
664, 720123337, -0.6307536, -0.02574661, 0.6382352, -0.44061658, -0.3522457, 0.2311289, -0.6444912, 0
665, 720140004, -0.6316681, -0.027262809, 0.63945276, -0.4374386, -0.24866085, 0.5967355, -0.038455963, 0
666, 720156671, -0.6342595, -0.029338595, 0.638961, -0.4342616, 0.05750273, 0.21169902, 0.7128668, 0
667, 720173338, -0.6376561, -0.032566834, 0.6376684, -0.43094453, 0.36842713, -0.59175456, 0.408679, 0
668, 720190005, -0.63947, -0.036298122, 0.6381453, -0.42723677, 0.39954236, -0.87945396, -0.89165115, 0
669, 720206672, -0.6391843, -0.037093252, 0.6417298, -0.4221976, -0.16149974, -0.32608902, -1.1043034, 0
670, 720223339, -0.63918096, -0.035458233, 0.6463049, -0.41530782, -1.2850498, 0.6710786, -0.045639038, 0
671, 720240006, -0.64336956, -0.035315774, 0.64588314, -0.40946746, -1.1138544, 1.5496807, 2.1651583, 0
672, 720256673, -0.6510192, -0.039762672, 0.63967717, -0.40670142, 0.6074148, -0.09539687, 1.7056961, 0
673, 720273340, -0.65658057, -0.048550628, 0.63428855, -0.4052444, 0.8204119, -1.9927454, -0.9326534, 0
674, 720290007, -0.65710294, -0.057734367, 0.6344781, -0.4028896, 0.3002112, -1.7440358, -1.4593, 0
675, 720306674, -0.65664536, -0.064605094, 0.6367449, -0.39899728, -0.8874779, 0.34016684, -0.14771271, 0
676, 720323341, -0.65970945, -0.07111929, 0.6353454, -0.39504662, -1.8168191, 2.139167, 1.3760672, 0
677, 720340008, -0.6657654, -0.079652786, 0.6294436, -0.3926991, -0.65558136, 1.2295064, 1.2277803, 0
678, 720356675, -0.67067486, -0.0890696, 0.6241468, -0.3907721, 0.8912999, -0.71770513, 0.21755886, 0
679, 720373342, -0.6727927, -0.09700251, 0.6227579, -0.3874446, 1.1409968, -1.6235994, -0.55607414, 0
680, 720390009, -0.6728498, -0.1033372, 0.6246599, -0.3826159, 0.54230636, -1.0675962, -0.7614565, 0
681, 720406676, -0.67371976, -0.108640194, 0.625404, -0.37837678, -0.76622254, 0.2492641, 0.20525837, 0
682, 720423343, -0.67709893, -0.114361115, 0.62242764, -0.37555644, -1.052405, 0.557334, 0.7412672, 0
683, 720440010, -0.6809778, -0.12138971, 0.618345, -0.3730727, -0.037045483, -0.3122402, 0.4403925, 0
684, 720456677, -0.6835436, -0.12952004, 0.6155052, -0.37033257, 0.7357144, -1.216008, -0.21008968, 0
685, 720473344, -0.68404305, -0.13827206, 0.6145378, -0.3678443, 0.77613175, -1.3537476, -0.34027767, 0
686, 720490011, -0.68362033, -0.1471414, 0.6140494, -0.36600003, 0.5634511, -0.77029014, -0.10039616, 0
687, 720506678, -0.683334, -0.15590416, 0.6128161, -0.36497265, 0.18599318, -0.29964963, -0.096580505, 0
688, 720523345, -0.6828631, -0.16502483, 0.61136174, -0.36428282, -0.13091557, -0.39935893, -0.1257639, 0
689, 720540012, -0.6824011, -0.17415209, 0.60975677, -0.36358836, -0.1125124, -0.45605063, -0.120542526, 0
690, 720556679, -0.6816694, -0.18323535, 0.6087472, -0.362186, -0.27794954, -0.31370804, -0.16880608, 0
691, 720573346, -0.6808619, -0.19198671, 0.6081597, -0.3601528, -0.6080527, 0.12218537, -0.27436543, 0
692, 720590013, -0.68007874, -0.20000628, 0.6078326, -0.35781303, -0.7214616, 0.6707941, -0.15159416, 0
693, 720606680, -0.6797263, -0.20621726, 0.607842, -0.3549293, -0.7556003, 0.86969507, 0.1811285, 0
694, 720623347, -0.6799639, -0.21024215, 0.6085925, -0.35080278, -0.5863979, 0.7837624, 0.33340836, 0
695, 720640014, -0.68052816, -0.21208155, 0.6103899, -0.3454374, -0.6187478, 0.44641528, 0.29636383, 0
696, 720656681, -0.68128306, -0.21202901, 0.61279047, -0.33968374, -0.52886873, 0.11947684, 0.4368267, 0
697, 720673348, -0.68246925, -0.21045847, 0.61504626, -0.3341574, -0.23601761, -0.2901872, 0.54662037, 0
698, 720690015, -0.6838908, -0.20799656, 0.6169103, -0.3293217, 0.18820015, -0.8515447, 0.45347023, 0
699, 720706682, -0.6850649, -0.20539936, 0.61840594, -0.3256861, 0.6331232, -1.50998, 0.34674358, 0
700, 720723349, -0.68562615, -0.20328824, 0.6196595, -0.3234391, 0.719882, -1.8286978, 0.2578144, 0
701, 720740016, -0.6855575, -0.2018418, 0.6205653, -0.3227532, 0.65936816, -1.7392709, 0.2818451, 0
702, 720756683, -0.6850656, -0.2006387, 0.6212201, -0.3232875, 0.51753753, -1.5113039, 0.25535202, 0
703, 720773350, -0.68441856, -0.19898155, 0.62181157, -0.3245427, 0.4278713, -1.1457404, 0.21278667, 0
704, 720790017, -0.68395877, -0.19629931, 0.62234485, -0.32611957, 0.23726213, -0.8141608, 0.23042202, 0
705, 720806684, -0.6839568, -0.19236167, 0.62281054, -0.32757813, -0.08514011, -0.5663303, 0.29416943, 0
706, 720823351, -0.6842219, -0.18742576, 0.6234962, -0.32857984, -0.45553997, -0.39236024, 0.2832079, 0
707, 720840018, -0.6847692, -0.18170173, 0.6242506, -0.32922202, -0.52538466, -0.17668006, 0.4642563, 0
708, 720856685, -0.68571365, -0.17532694, 0.6248409, -0.32959253, -0.4517085, -0.23266749, 0.40536022, 0
709, 720873352, -0.6867107, -0.16858794, 0.62539816, -0.3299754, -0.21710037, -0.39431754, 0.40265083, 0
710, 720890019, -0.68788487, -0.16143231, 0.62572414, -0.33048972, -0.13048641, -0.62769985, 0.3328085, 0
711, 720906686, -0.6888439, -0.1539066, 0.62626475, -0.3310582, -0.18621849, -0.8044853, 0.1609726, 0
712, 720923353, -0.6896453, -0.14576699, 0.6268864, -0.33189595, -0.13810508, -0.6642637, 0.265275, 0
713, 720940020, -0.6905941, -0.13714059, 0.6271731, -0.33305654, -0.16724536, -0.7660703, 0.24840355, 0
714, 720956687, -0.6915149, -0.12855114, 0.627134, -0.3346412, 0.17644739, -0.7594149, 0.28254128, 0
715, 720973354, -0.69248223, -0.11953847, 0.6267938, -0.33661342, 0.2226587, -0.9211995, 0.15675831, 0
716, 720990021, -0.692938, -0.110716805, 0.6265488, -0.3391393, 0.3387929, -1.2005668, 0.029266357, 0
717, 721006688, -0.69303656, -0.102180734, 0.6261615, -0.3423174, 0.40666753, -1.2007532, -0.10461998, 0
718, 721023355, -0.69277596, -0.09407687, 0.6255244, -0.34630984, 0.02065081, -1.0954335, -0.22554207, 0
719, 721040022, -0.6918771, -0.08573442, 0.62556374, -0.35017982, -0.2788865, -0.5546094, 0.047501564, 0
720, 721056689, -0.6905841, -0.07789308, 0.62541306, -0.35480258, -0.12359954, -0.07193384, 0.44535446, 0
721, 721073356, -0.68971056, -0.07183779, 0.62274253, -0.3623956, 0.23930414, -0.81639564, 1.023529, 0
722, 721090023, -0.6894225, -0.066335075, 0.6169927, -0.37365302, 1.0387125, -2.2885156, 0.8157406, 0
723, 721106690, -0.6871538, -0.060246184, 0.61232996, -0.38631868, 1.4688597, -2.7424834, 0.008851051, 0
724, 721123357, -0.6809826, -0.05641945, 0.6110382, -0.39964032, 1.4713608, -2.7238843, -0.44381046, 0
725, 721140024, -0.6711255, -0.053127684, 0.61425674, -0.41165125, 1.2967379, -0.6436562, -0.3375635, 0
726, 721156691, -0.6613276, -0.04887531, 0.61806613, -0.4221984, 0.69949275, 1.5487291, 0.076226234, 0
727, 721173358, -0.6543127, -0.041891135, 0.62024117, -0.43060532, 0.41185078, 2.115876, 0.04954624, 0
728, 721190025, -0.64936084, -0.03232966, 0.62128997, -0.43736026, 0.118573844, 1.1768934, -0.48723602, 0
729, 721206692, -0.64336294, -0.022144308, 0.6244478, -0.44233334, -0.1871322, -0.14018975, -0.8722353, 0
730, 721223359, -0.6365931, -0.012434009, 0.62856364, -0.44665718, -0.35957804, 0.21290228, -0.77961826, 0
731, 721240026, -0.6291904, -0.004171524, 0.6329032, -0.45114937, -0.553402, -0.49327555, -0.3319168, 0
732, 721256693, -0.62090766, 0.0024558608, 0.6382766, -0.45505035, -0.3772854, -1.1570271, 0.44669724, 0
733, 721273360, -0.6129632, 0.0066921357, 0.6427939, -0.45939904, -0.10287675, 0.026573738, 1.054182, 0
734, 721290027, -0.60697556, 0.008704988, 0.6445607, -0.46480823, 0.19970748, -0.3343276, 0.82266617, 0
735, 721306694, -0.6008206, 0.008646892, 0.6461888, -0.4705103, -0.3494777, -0.7152113, 2.3555756E-4, 0
736, 721323361, -0.5941956, 0.007750864, 0.64832485, -0.47596934, -1.3021489, 0.076077566, -0.07254505, 0
737, 721340028, -0.58972055, 0.0067810616, 0.64850163, -0.48127905, -1.9889358, 0.7448341, 0.08259964, 0
738, 721356695, -0.58722895, 0.006048413, 0.64709944, -0.48619756, -1.8760337, 0.6580915, -0.20313072, 0
739, 721373362, -0.58472234, 0.006119295, 0.6469314, -0.48943058, -1.7865074, 0.6519665, -0.68084717, 0
740, 721390029, -0.582421, 0.0073143793, 0.64842993, -0.4901744, -1.7206622, 1.0987606, -0.70613, 0
741, 721406696, -0.5816159, 0.009137509, 0.64988434, -0.48917267, -1.9675859, 1.1141453, -0.50972843, 0
742, 721423363, -0.58300495, 0.010870807, 0.6499283, -0.4874222, -1.8442202, 0.4725777, -0.26945305, 0
743, 721440030, -0.58536154, 0.011494861, 0.6493815, -0.48530778, -1.4164441, -0.20841902, -0.08271599, 0
744, 721456697, -0.5883327, 0.01085717, 0.6484145, -0.48301712, -1.0282164, -0.19503818, 0.2818451, 0
745, 721473364, -0.5920732, 0.008778038, 0.64676243, -0.48069853, -1.0432401, -0.12804607, 0.17034721, 0
746, 721490031, -0.5960383, 0.0057567, 0.64506394, -0.47811902, -1.1183035, -0.06945053, -0.09805393, 0
747, 721506698, -0.600071, 0.0028396328, 0.64371645, -0.47490636, -1.1337308, 0.16944191, -0.25170708, 0
748, 721523365, -0.6047415, 4.5475154E-4, 0.642119, -0.47113788, -0.8932776, 0.45359758, -0.16589165, 0
749, 721540032, -0.6101076, -0.001787567, 0.6403396, -0.46661615, -0.6635932, 0.3947265, -0.030939102, 0
750, 721556699, -0.6155093, -0.004098935, 0.6391855, -0.46105704, -0.5492165, 0.389752, 0.028865814, 0
751, 721573366, -0.620646, -0.006260942, 0.6386845, -0.4547984, -0.2756621, 0.326034, 0.14126968, 0
752, 721590033, -0.6254034, -0.008069031, 0.6386834, -0.4482066, -0.0013482302, 0.14130564, 0.22446632, 0
753, 721606700, -0.6301658, -0.0101779215, 0.6384566, -0.44177, 0.52218884, -0.28948376, 0.28321075, 0
754, 721623367, -0.63500434, -0.013385726, 0.63758713, -0.43597373, 1.0436441, -0.9367002, 0.21816063, 0
755, 721640034, -0.6387665, -0.018116068, 0.6370865, -0.43101043, 1.0537064, -1.4414598, -0.24916744, 0
756, 721656701, -0.6405666, -0.022771543, 0.638314, -0.42627585, 0.5023572, -1.1057421, -0.30114365, 0
757, 721673368, -0.6418863, -0.026245823, 0.6407146, -0.42044958, 0.2536881, -0.47859532, -0.09408569, 0
758, 721690035, -0.64436114, -0.029625947, 0.6419624, -0.41449425, 0.3630655, -0.22085969, 0.111058235, 0
759, 721706702, -0.64719886, -0.032217182, 0.64245486, -0.4090814, 0.48698243, -0.6622964, -0.13270283, 0
760, 721723369, -0.6494255, -0.033395436, 0.643836, -0.40324503, 0.17318454, -0.8265829, -0.46929646, 0
761, 721740036, -0.6513766, -0.0333385, 0.6461426, -0.39635468, -0.33554032, -0.21149656, 0.22131348, 0
762, 721756703, -0.6546035, -0.034592446, 0.64667356, -0.3900143, 0.14261736, -0.1299096, 1.0471363, 0
763, 721773370, -0.6585373, -0.0404335, 0.6445989, -0.38624606, 0.75768745, -1.7814058, 0.063295364, 0
764, 721790037, -0.66013896, -0.050797038, 0.64274544, -0.38537574, 0.558946, -2.493981, -0.72967625, 0
765, 721806704, -0.6594612, -0.062055208, 0.6428241, -0.38475636, -0.24445432, -1.40888, -0.14272976, 0
766, 721823371, -0.6583787, -0.0729869, 0.6433677, -0.38378173, -0.6042963, 0.24175139, 0.6614437, 0
767, 721840038, -0.658307, -0.08417774, 0.64211076, -0.3837186, 0.23166269, 0.51527935, 0.6320162, 0
768, 721856705, -0.6582598, -0.0961144, 0.64038223, -0.38388374, 0.6056696, -0.8098327, -0.6457224, 0
769, 721873372, -0.65643024, -0.10696914, 0.6408298, -0.3833982, 0.212363, -0.9544904, -1.0297241, 0
770, 721890039, -0.65482426, -0.11382805, 0.6428132, -0.38084093, -0.98683316, 0.31173632, -0.012781143, 0
771, 721906706, -0.65510815, -0.1187382, 0.6442463, -0.3764058, -1.2885062, 1.2337317, 0.37860775, 0
772, 721923373, -0.6565238, -0.124415606, 0.64408016, -0.37236837, -0.14858069, 0.71589345, 0.5909958, 0
773, 721940040, -0.65778905, -0.13109899, 0.6434547, -0.36890757, 0.6371232, -1.0111185, 0.4401722, 0
774, 721956707, -0.65770984, -0.13785431, 0.64434457, -0.36501262, 0.64969134, -1.6792159, 0.06270027, 0
775, 721973374, -0.6562329, -0.14460385, 0.64642566, -0.36136165, 0.10187765, -1.1685257, 0.17146778, 0
776, 721990041, -0.6547111, -0.15178503, 0.6473851, -0.35945442, -0.24302742, -0.8398155, 0.43292046, 0
777, 722006708, -0.6535394, -0.15936449, 0.64707947, -0.35885584, -0.44019133, -0.96746176, 0.44828892, 0
778, 722023375, -0.6531466, -0.16650143, 0.64592415, -0.35841158, -0.20935431, -0.80903345, 0.35229778, 0
779, 722040042, -0.6530768, -0.17313674, 0.64475524, -0.35749865, -0.32683092, -0.6812903, 0.034067154, 0
780, 722056709, -0.6529412, -0.1796199, 0.64379835, -0.35626984, -0.5966424, -0.22235125, 0.082286835, 0
781, 722073376, -0.6529178, -0.18596222, 0.642857, -0.3547555, -0.7829395, 0.09666701, 0.22088432, 0
782, 722090043, -0.65342766, -0.19178033, 0.6418777, -0.3524853, -0.8557426, 0.27834302, 0.27473354, 0
783, 722106710, -0.65425783, -0.19684267, 0.6413165, -0.3491603, -0.8959246, 0.2324252, 0.24747944, 0
784, 722123377, -0.65559274, -0.20062232, 0.6410355, -0.3449961, -0.83710384, 0.25902078, 0.3835249, 0
785, 722140044, -0.657654, -0.20315583, 0.6407594, -0.34006846, -0.95324075, 0.29342377, 0.5174837, 0
786, 722156711, -0.66022885, -0.20499064, 0.6405368, -0.33434945, -1.14139, -0.18808839, 0.25417614, 0
787, 722173378, -0.6629299, -0.20619106, 0.6405146, -0.32825345, -0.57489544, -0.35614386, 0.22924328, 0
788, 722190045, -0.66569173, -0.2068916, 0.6402553, -0.32268193, -0.009760364, -0.935948, 0.27807045, 0
789, 722206712, -0.66830355, -0.20749219, 0.6397241, -0.3179162, 0.3330276, -1.1985947, 0.27614975, 0
790, 722223379, -0.67025554, -0.20868182, 0.6391288, -0.31420344, 0.41931298, -1.3062773, 0.23292828, 0
791, 722240046, -0.67137283, -0.2102641, 0.6387119, -0.3116002, 0.54742527, -1.2436885, -5.092621E-4, 0
792, 722256713, -0.6714647, -0.21176226, 0.6389143, -0.30996856, 0.65399843, -1.1263144, -0.10675526, 0
793, 722273380, -0.6709705, -0.21242413, 0.6395532, -0.3092673, 0.65891796, -0.92506707, -0.11921406, 0
794, 722290047, -0.67015165, -0.21211897, 0.6403943, -0.30951184, 0.62732977, -0.76371425, -0.009029388, 0
795, 722306714, -0.66925347, -0.21085945, 0.6412218, -0.3106006, 0.4744362, -0.7440813, -0.0142765045, 0
796, 722323381, -0.6681788, -0.20877205, 0.64236414, -0.31196102, 0.21724968, -0.8103239, -0.05730152, 0
797, 722340048, -0.6670103, -0.20563133, 0.6439303, -0.31331605, -0.007662471, -0.7802305, 0.18527603, 0
798, 722356715, -0.66646594, -0.20149969, 0.64509475, -0.31476015, -0.30663162, -0.6949848, 0.41975784, 0
799, 722373382, -0.6661302, -0.19738954, 0.64597195, -0.31627256, -0.60338485, -0.6273544, 0.32218266, 0
800, 722390049, -0.66575474, -0.1934228, 0.6466201, -0.31818354, -0.43761334, -0.43646055, 0.40920448, 0
801, 722406716, -0.66562986, -0.18927346, 0.64694047, -0.32028207, -0.4202276, -0.5356524, 0.40268326, 0
802, 722423383, -0.66564554, -0.18459378, 0.6472695, -0.3223099, -0.36837393, -0.6100423, 0.3110094, 0
803, 722440050, -0.66576463, -0.17898019, 0.64773625, -0.32428598, -0.2290449, -0.5738376, 0.24848557, 0
804, 722456717, -0.66579103, -0.17290188, 0.648206, -0.32658306, -0.15560257, -0.6739923, 0.28423405, 0
805, 722473384, -0.66584957, -0.16653945, 0.6484108, -0.32935184, 0.07987504, -0.64348024, 0.30826378, 0
806, 722490051, -0.66584796, -0.15971833, 0.64858764, -0.3323713, 0.06249601, -0.8231305, 0.23163986, 0
807, 722506718, -0.665596, -0.15216708, 0.6489967, -0.33560497, 0.13524143, -0.9122833, 0.22083378, 0
808, 722523385, -0.6650057, -0.14419174, 0.64953405, -0.33923706, 0.22853574, -1.0155321, 0.11885357, 0
809, 722540052, -0.66388255, -0.1362495, 0.6503567, -0.34312135, 0.060993556, -0.97647756, -0.05676174, 0
810, 722556719, -0.6623069, -0.12837167, 0.65115285, -0.34766397, -0.008787189, -0.7833427, 0.024298668, 0
811, 722573386, -0.6603807, -0.12017686, 0.6519901, -0.35265285, 0.081663586, -0.63987195, 0.31321335, 0
812, 722590053, -0.65829456, -0.11160825, 0.6528952, -0.35765877, 0.2812088, -0.724196, 0.35392284, 0
813, 722606720, -0.6557118, -0.10339485, 0.6537558, -0.36325657, 0.60433656, -0.9045072, 0.35918903, 0
814, 722623387, -0.6524271, -0.09599661, 0.65461916, -0.36959094, 0.5106252, -1.091639, 0.50256824, 0
815, 722640054, -0.648643, -0.08897728, 0.6555709, -0.37626067, 0.1497568, -1.26144, 0.37361622, 0
816, 722656721, -0.6445378, -0.08288346, 0.6553252, -0.3850328, 0.17499366, -1.2475346, 0.6380663, 0
817, 722673388, -0.64113116, -0.07569204, 0.6538178, -0.39464438, 0.09857994, -1.7433913, 0.8186588, 0
818, 722690055, -0.6372531, -0.06903367, 0.65240645, -0.40436205, 0.3905348, -1.5972202, 0.5678692, 0
819, 722706722, -0.6323107, -0.06393466, 0.6511572, -0.41483712, 0.23908064, -1.0146098, 0.25630856, 0
820, 722723389, -0.6260738, -0.060374662, 0.65058845, -0.42558336, 0.29563567, -0.060864367, 0.12465763, 0
821, 722740056, -0.6194512, -0.05722343, 0.65076613, -0.43532643, 0.39711905, 0.76010865, 0.11561012, 0
822, 722756723, -0.6137919, -0.05322654, 0.6506993, -0.44386578, 0.53655493, 1.0870141, -0.07660961, 0
823, 722773390, -0.60850483, -0.047496114, 0.6516632, -0.45033458, 0.015279569, 0.8057433, -0.5919905, 0
824, 722790057, -0.60473645, -0.03591072, 0.65307176, -0.45442465, -0.937387, 1.0841373, -0.9279747, 0
825, 722806724, -0.59889686, -0.025031334, 0.65737784, -0.4566733, -1.5211862, -0.27269453, -1.0553102, 0
826, 722823391, -0.59395087, -0.016124094, 0.66086245, -0.4585011, 0.08790317, 0.04625599, 0.3064518, 0
827, 722840058, -0.59023345, -0.008829771, 0.66193867, -0.46193463, 0.70188206, -0.39808327, 0.5253506, 0
828, 722856725, -0.5847314, -0.0036176126, 0.66471857, -0.46500066, 0.53449726, -1.7899119, 0.561676, 0
829, 722873392, -0.57844204, -0.0018101204, 0.66721433, -0.46928328, -0.6280464, -0.8281746, 0.76902103, 0
830, 722890059, -0.5737077, -0.0017271265, 0.6667067, -0.475772, -1.2480854, -0.25259337, 0.6120167, 0
831, 722906726, -0.5697448, -0.002901304, 0.6644854, -0.483572, -1.2018242, -0.22005013, -0.013122559, 0
832, 722923393, -0.56537795, -0.0041537476, 0.6632515, -0.49033463, -1.1852053, 0.1671387, -0.5781412, 0
833, 722940060, -0.56116074, -0.004887405, 0.6631286, -0.49531353, -1.3525319, 1.0159181, -0.72664547, 0
834, 722956727, -0.5584995, -0.0048187952, 0.6628008, -0.4987487, -1.5906429, 1.481405, -0.73672676, 0
835, 722973394, -0.5574863, -0.003763387, 0.66226536, -0.50059927, -1.8680505, 1.1047244, -0.7843971, 0
836, 722990061, -0.55728364, -0.002377444, 0.6622247, -0.50088704, -1.8116091, 0.42968312, -0.6752033, 0
837, 723006728, -0.5575053, -0.0016977269, 0.6624937, -0.5002872, -1.5040733, 0.031789776, -0.49833012, 0
838, 723023395, -0.5582468, -0.002263633, 0.66239995, -0.49958184, -1.1279564, -0.062270187, -0.3007717, 0
839, 723040062, -0.5598336, -0.0038545066, 0.6615163, -0.4989667, -1.0460675, -0.018631335, -0.11525154, 0
840, 723056729, -0.5619209, -0.005914131, 0.6603653, -0.4981245, -1.1970893, -0.0278341, -0.07024479, 0
841, 723073396, -0.56424475, -0.007879854, 0.6594785, -0.4966427, -1.2015004, 0.023969183, -0.06308937, 0
842, 723090063, -0.56697845, -0.010113393, 0.6585067, -0.49477494, -1.1322585, 0.120237395, -0.15351677, 0
843, 723106730, -0.5699874, -0.0127490945, 0.6573865, -0.49274236, -0.94859326, 0.15081364, -0.04031658, 0
844, 723123397, -0.5730974, -0.014890073, 0.6566425, -0.49005976, -0.87754875, 0.061749756, 0.059741974, 0
845, 723140064, -0.5759343, -0.016446993, 0.65657187, -0.4867676, -0.5988223, 0.19029072, 0.16230202, 0
846, 723156731, -0.5794053, -0.017523315, 0.6563417, -0.4829059, -0.116143145, 0.2460482, 0.4299717, 0
847, 723173398, -0.58337134, -0.018606488, 0.6560301, -0.478494, -0.3503912, -0.4943214, 0.32877064, 0
848, 723190065, -0.58679163, -0.018835483, 0.6565827, -0.4735188, -0.62756044, -1.0094827, 0.18584442, 0
849, 723206732, -0.5900407, -0.018531855, 0.6571884, -0.46862778, -0.40810516, -1.0313938, -0.027014732, 0
850, 723223399, -0.5935922, -0.019121017, 0.6569807, -0.46439096, 0.23324114, -0.43851995, 0.25468445, 0
851, 723240066, -0.5986422, -0.021369226, 0.6547421, -0.46095952, 0.97899413, -0.51618296, 0.540617, 0
852, 723256733, -0.6030906, -0.02438967, 0.6531486, -0.45725688, 0.3077199, -1.1365672, -0.23808289, 0
853, 723273400, -0.60583943, -0.026574835, 0.65398186, -0.45228317, -0.43445128, -0.71096057, -0.88379955, 0
854, 723290067, -0.6087259, -0.028583858, 0.65497077, -0.4468213, 0.0068555893, 0.06871572, -0.32001877, 0
855, 723306734, -0.6131076, -0.031369902, 0.6538575, -0.44225028, 0.22223535, 0.14746737, 0.64567375, 0
856, 723323401, -0.61806893, -0.035561092, 0.6519207, -0.43786502, -0.07756168, -0.5817, 0.13765526, 0
857, 723340068, -0.6217091, -0.041541148, 0.6512736, -0.43312204, -0.3989912, -0.71564853, -0.79725933, 0
858, 723356735, -0.624639, -0.048672546, 0.650934, -0.42865163, -0.4989368, -0.0670637, -0.3404112, 0
859, 723373402, -0.6279849, -0.05634822, 0.6496863, -0.4246971, -0.64316034, 0.18446432, 0.70031166, 0
860, 723390069, -0.63249433, -0.06440951, 0.64706993, -0.4208359, -0.6206284, -0.19398636, 0.8865757, 0
861, 723406736, -0.63677174, -0.07385583, 0.64457715, -0.41663846, -0.22326799, -1.3223227, -0.31744766, 0
862, 723423403, -0.6399602, -0.08294007, 0.6432683, -0.41204104, -0.1420512, -1.2730321, -0.6275587, 0
863, 723440070, -0.64268553, -0.09054813, 0.6425098, -0.40735412, -0.80181026, -0.6260464, 0.14766693, 0
864, 723456737, -0.6465784, -0.09721928, 0.64055747, -0.4027048, -0.73017836, 0.2963899, 0.9848671, 0
865, 723473404, -0.6519091, -0.10474987, 0.63619965, -0.39911434, 0.18990242, -0.046170235, 1.0117273, 0
866, 723490071, -0.65670866, -0.11415837, 0.6313323, -0.39638543, 0.819162, -1.71274, 0.050510406, 0
867, 723506738, -0.6588213, -0.1254932, 0.6283648, -0.39416206, 0.7714789, -2.1772923, -0.56696606, 0
868, 723523405, -0.6592062, -0.1371257, 0.6266333, -0.392396, 0.07874451, -1.1943306, -0.17029285, 0
869, 723540072, -0.6596965, -0.14884949, 0.62445015, -0.39077663, -0.74268574, -0.18173403, 0.0683651, 0
870, 723556739, -0.6601648, -0.16104583, 0.62190574, -0.38920456, -0.5569762, 0.012998731, -0.13080978, 0
871, 723573406, -0.6605112, -0.17308839, 0.61908686, -0.38793954, 0.22059834, -0.09487466, -0.02565384, 0
872, 723590073, -0.6606561, -0.18470967, 0.61647964, -0.38648272, 0.31853682, -0.63635266, -0.08312321, 0
873, 723606740, -0.66010183, -0.19621706, 0.6147405, -0.3845239, -0.059600625, -0.5746185, -0.14582348, 0
874, 723623407, -0.6585971, -0.20774011, 0.6138151, -0.38252437, -0.32625604, -0.22137383, -0.095282555, 0
875, 723640074, -0.6566167, -0.21886073, 0.61342657, -0.38034537, -0.3458284, -0.046275564, -0.13229942, 0
876, 723656741, -0.65442395, -0.22931343, 0.6136988, -0.37751627, -0.40611947, -0.19865765, -0.22262955, 0
877, 723673408, -0.65186274, -0.2389962, 0.61490977, -0.3739547, -0.36287686, -0.3774699, -0.21068859, 0
878, 723690075, -0.64911956, -0.24786785, 0.6165757, -0.3701887, -0.123106465, -0.2990628, 0.008324623, 0
879, 723706742, -0.64667034, -0.25598532, 0.6178698, -0.36677802, -0.15385559, -0.34331802, 0.40383434, 0
880, 723723409, -0.6451704, -0.2636582, 0.61796683, -0.36380878, -0.3811276, -0.26759273, 0.61727905, 0
881, 723740076, -0.64461565, -0.27027595, 0.61760753, -0.36053133, -1.1643465, -0.3437627, 0.45422173, 0
882, 723756743, -0.6444827, -0.27510047, 0.6181508, -0.3561619, -1.5344356, -0.19344912, 0.48456478, 0
883, 723773410, -0.6449391, -0.27773237, 0.6196196, -0.350699, -1.2001537, -0.04114605, 0.68685246, 0
884, 723790077, -0.6463917, -0.2780526, 0.62122005, -0.34489173, -0.6003571, -0.14425527, 0.7122793, 0
885, 723806744, -0.6484801, -0.27670282, 0.62270045, -0.33934253, 0.06265381, -0.6125595, 0.5165415, 0
886, 723823411, -0.65058446, -0.27428105, 0.6242093, -0.33447358, 0.5971984, -1.1821618, 0.28196812, 0
887, 723840078, -0.65241146, -0.2710347, 0.62576175, -0.33063865, 0.8681359, -1.630021, 0.16034794, 0
888, 723856745, -0.6536206, -0.26751047, 0.62730813, -0.328181, 0.90363157, -2.0595894, 0.0022563934, 0
889, 723873412, -0.65387964, -0.26448527, 0.62860805, -0.3276292, 0.89154, -2.1879406, 0.057948112, 0
890, 723890079, -0.6533192, -0.26204848, 0.6295215, -0.328949, 0.82746595, -1.9944892, 0.08533764, 0
891, 723906746, -0.65212965, -0.2597474, 0.63025016, -0.33172774, 0.6879921, -1.6462641, 0.12088013, 0
892, 723923413, -0.6508116, -0.2565992, 0.6310959, -0.3351407, 0.32240045, -1.22048, 0.16555405, 0
893, 723940080, -0.6498064, -0.25201872, 0.6320927, -0.3386695, -0.19538832, -0.79933697, 0.30858612, 0
894, 723956747, -0.64964736, -0.24569479, 0.63309735, -0.34173128, -0.72327673, -0.4094792, 0.44525814, 0
895, 723973414, -0.6502654, -0.23788857, 0.6341942, -0.3440376, -1.0469539, -0.13375686, 0.53932095, 0
896, 723990081, -0.65138763, -0.2291229, 0.6354247, -0.34558994, -1.0127515, 0.007846087, 0.5043812, 0
897, 724006748, -0.65299207, -0.21936563, 0.63678765, -0.34638375, -0.9957346, -0.11110248, 0.47587204, 0
898, 724023415, -0.6550138, -0.2087608, 0.63790625, -0.34706113, -0.73591465, -0.4541791, 0.32539558, 0
899, 724040082, -0.6566676, -0.19775118, 0.6391523, -0.34809005, -0.33899495, -0.7867323, 0.24806786, 0
900, 724056749, -0.65801316, -0.18648955, 0.6403095, -0.34963423, 0.0957981, -0.9698245, 0.21276188, 0
901, 724073416, -0.6593758, -0.17471373, 0.64108133, -0.35172924, 0.30004022, -0.9248918, 0.15165329, 0
902, 724090083, -0.6603771, -0.16314998, 0.6413262, -0.35494366, 0.108001016, -1.3671083, 0.032370567, 0
903, 724106750, -0.66035193, -0.15203473, 0.64217967, -0.35836613, 0.30835086, -1.1395508, 0.08742523, 0
904, 724123417, -0.6600788, -0.14099167, 0.64278585, -0.36227572, 0.11177168, -0.9679746, 0.09085369, 0
905, 724140084, -0.65906113, -0.13016404, 0.6437327, -0.36647528, 0.12620883, -0.88617355, 0.043094635, 0
906, 724156751, -0.6573678, -0.11978077, 0.6449687, -0.37085795, 0.30947694, -0.7735832, 0.01918602, 0
907, 724173418, -0.65516394, -0.10980508, 0.6463952, -0.37533513, 0.37453306, -0.848217, -0.025122643, 0
908, 724190085, -0.65265864, -0.100016885, 0.6479406, -0.37974554, -0.031626638, -0.7697379, 0.04200077, 0
909, 724206752, -0.6498492, -0.090713926, 0.6494707, -0.3842591, -0.2819732, -0.29973686, 0.28059292, 0
910, 724223419, -0.6476493, -0.08273043, 0.64977354, -0.38923064, -0.39907256, -0.49244145, 0.47755814, 0
911, 724240086, -0.6463554, -0.07686292, 0.64720505, -0.3967902, -0.5114701, -1.7325481, 0.7232895, 0
912, 724256753, -0.6452105, -0.07054299, 0.6436426, -0.40552598, 0.5962342, -2.3605256, 0.52260303, 0
913, 724273420, -0.64210194, -0.06590006, 0.64128286, -0.41487184, 0.5340216, -1.9907284, -0.06904125, 0
914, 724290087, -0.6363338, -0.065882444, 0.63989896, -0.42575622, 0.6824789, -0.92755413, -0.18876648, 0
915, 724306754, -0.6293828, -0.06765521, 0.639414, -0.4364056, 1.1058913, 0.51763844, -0.19737148, 0
916, 724323421, -0.6229969, -0.06689221, 0.6403642, -0.44422305, 0.5776321, 1.5098271, -0.5611, 0
917, 724340088, -0.6174614, -0.061229073, 0.6435111, -0.44820315, -0.56345093, 1.425024, -0.8290701, 0
918, 724356755, -0.6131789, -0.051794894, 0.6475554, -0.44944552, -1.3751197, 1.1911063, -0.34409332, 0
919, 724373422, -0.6117725, -0.040441167, 0.64864653, -0.4509511, -1.178727, 0.7074898, -0.05989933, 0
920, 724390089, -0.60989505, -0.030719433, 0.6496239, -0.45285028, -0.5315663, -1.0232083, -0.24610615, 0
921, 724406756, -0.6060124, -0.023303978, 0.65218127, -0.4548248, -0.13025843, -1.7715138, 0.043909073, 0
922, 724423423, -0.6000966, -0.018534852, 0.65623444, -0.45705277, -0.2084996, -1.6400955, 0.52840996, 0
923, 724440090, -0.59509695, -0.016905656, 0.657705, -0.46151713, -0.17872007, -0.5807456, 1.0404387, 0
924, 724456757, -0.5921512, -0.017283974, 0.65596294, -0.46772927, -0.31570402, -0.35308534, 0.7814579, 0
925, 724473424, -0.5894903, -0.018491834, 0.65384656, -0.47396627, -0.99422497, -0.44279817, 0.18885136, 0
926, 724490091, -0.5864521, -0.020045595, 0.65259135, -0.47937128, -1.390343, 0.26890424, -0.28124714, 0
927, 724506758, -0.58397627, -0.020932607, 0.6516732, -0.48358622, -1.6440607, 1.0388006, -0.61004925, 0
928, 724523425, -0.5824134, -0.020380229, 0.65138984, -0.48587105, -1.8241711, 1.1593227, -0.82642555, 0
929, 724540092, -0.58177173, -0.018735435, 0.65170723, -0.48628026, -1.6574379, 0.9262317, -0.62998104, 0
930, 724556759, -0.58217263, -0.016824055, 0.65192986, -0.4855715, -1.3733239, 0.28835025, -0.2705679, 0
931, 724573426, -0.5830306, -0.015481221, 0.65207934, -0.4843844, -1.3346341, -0.3875819, -0.02462101, 0
932, 724590093, -0.58411473, -0.015274462, 0.6519927, -0.48319998, -1.2534195, -0.5182558, 0.076613426, 0
933, 724606760, -0.58550483, -0.016032407, 0.65134484, -0.48236609, -0.8904555, -0.25702167, 0.21259499, 0
934, 724623427, -0.5872248, -0.017166013, 0.6504537, -0.48143825, -1.026369, -0.36570057, 0.3133707, 0
935, 724640094, -0.58944434, -0.018573642, 0.649246, -0.48030207, -1.1692106, -0.28449225, 0.22900105, 0
936, 724656761, -0.59208065, -0.020063734, 0.6478775, -0.4788452, -1.0461109, -0.1152872, -0.08992195, 0
937, 724673428, -0.5951315, -0.021446921, 0.6465614, -0.4767776, -0.6397826, 0.0700875, -0.38169765, 0
938, 724690095, -0.59848034, -0.022390287, 0.64579374, -0.47357205, -0.51149285, -0.004750069, -0.5198879, 0
939, 724706762, -0.60182196, -0.022821298, 0.6455025, -0.46969792, -0.37876907, -0.07288961, -0.046504974, 0
940, 724723429, -0.60558105, -0.022659935, 0.6449787, -0.46557575, -0.36652413, -0.35436398, 0.54915047, 0
941, 724740096, -0.60980386, -0.023071125, 0.6434112, -0.4622005, 0.17677952, -0.59889734, 0.5714073, 0
942, 724756763, -0.61378425, -0.024421917, 0.64182144, -0.45906186, 0.3498161, -1.1123976, 0.010891914, 0
943, 724773430, -0.61607885, -0.026960153, 0.6417991, -0.45586625, -0.22692488, -1.1075448, -0.63685703, 0
944, 724790097, -0.61730397, -0.029825399, 0.6427873, -0.45262688, -0.42619026, -0.31674528, -0.37063122, 0
945, 724806764, -0.61928934, -0.03223142, 0.64305055, -0.449364, -0.2667256, 0.10825135, 0.37601376, 0
946, 724823431, -0.622514, -0.035210203, 0.64170194, -0.4466043, 0.37139225, -0.10714381, 0.7162571, 0
947, 724840098, -0.62628275, -0.040083226, 0.6396759, -0.44382218, 0.8159622, -0.9894362, -0.53398037, 0
948, 724856765, -0.6274309, -0.04515413, 0.64051634, -0.44048885, 0.07474564, -1.0903257, -1.3808498, 0
949, 724873432, -0.62690735, -0.047857113, 0.6438041, -0.43613467, -0.44533527, -0.20182934, -0.7781458, 0
950, 724890099, -0.6278788, -0.049579807, 0.6456642, -0.43177307, -0.7350031, 0.77868783, 0.68277836, 0
951, 724906766, -0.6313521, -0.052127067, 0.6449298, -0.4274843, -0.22435068, 0.42756605, 1.2846031, 0
952, 724923433, -0.63534933, -0.057281595, 0.64333797, -0.42328063, -0.16275185, -1.0560073, -0.40926838, 0
953, 724940100, -0.6369984, -0.0633495, 0.64356357, -0.41957822, -0.50995886, -1.596475, -0.9022808, 0
954, 724956767, -0.6377003, -0.06986258, 0.64416033, -0.41655132, -0.44044614, -0.89199615, -0.036668777, 0
955, 724973434, -0.6396949, -0.07721487, 0.6427876, -0.41430992, -0.38069665, -0.10387748, 1.1527443, 0
956, 724990101, -0.6423773, -0.086213924, 0.6399309, -0.41280425, -0.25971088, -0.2897834, 0.9937153, 0
957, 725006768, -0.64447767, -0.09791309, 0.63680327, -0.4117564, -0.13593298, -0.9428415, -0.23772335, 0
958, 725023435, -0.6453045, -0.109766655, 0.6351562, -0.4100123, -0.29941303, -1.0334066, -0.6616802, 0
959, 725040102, -0.6455344, -0.12011573, 0.6350539, -0.40689594, -0.6092833, -0.6146083, -0.6100807, 0
960, 725056769, -0.6454635, -0.12985902, 0.635452, -0.4033788, -0.5428258, 0.29785252, 0.13500595, 0
961, 725073436, -0.6473228, -0.13908775, 0.6336806, -0.40009612, -0.3404375, 0.37343433, 0.3142233, 0
962, 725090103, -0.649416, -0.14913633, 0.6309242, -0.39743188, -0.120266065, -0.69390607, -0.06246662, 0
963, 725106770, -0.650306, -0.15922387, 0.6289814, -0.3951358, 0.4563741, -0.92107195, 0.0045671463, 0
964, 725123437, -0.649356, -0.16961676, 0.62876064, -0.39271754, 0.63840085, -1.1933904, -0.057561874, 0
965, 725140104, -0.647248, -0.17967188, 0.62953866, -0.39047322, 0.5285775, -0.88395655, -0.39439774, 0
966, 725156771, -0.64453256, -0.18865024, 0.6304459, -0.3892647, 0.33144513, -0.6696573, -0.17007065, 0
967, 725173438, -0.6418235, -0.19615646, 0.631536, -0.38826257, 0.20599043, -0.7495539, 0.06384945, 0
968, 725190105, -0.6384749, -0.20345369, 0.6332994, -0.38715416, 0.33639997, -0.55248255, 0.114014626, 0
969, 725206772, -0.6346203, -0.2115699, 0.63489693, -0.3865246, 0.3252127, -0.5114198, 0.094893456, 0
970, 725223439, -0.63104635, -0.22038318, 0.6353244, -0.38674912, 0.0038864433, -0.51750535, -0.18040466, 0
971, 725240106, -0.62744015, -0.22865804, 0.6358158, -0.3870049, -0.48919877, -0.55022943, -0.0015087128, 0
972, 725256773, -0.62387854, -0.23536006, 0.6373252, -0.3862614, -0.78810644, -0.40465164, 0.1946392, 0
973, 725273440, -0.6205135, -0.2403964, 0.6399429, -0.38424695, -1.0994216, -0.24647065, 0.35478306, 0
974, 725290107, -0.6180404, -0.24371783, 0.6427507, -0.38144386, -1.4086604, -0.030675588, 0.67275333, 0
975, 725306774, -0.6169445, -0.2454193, 0.6449934, -0.3783285, -1.509383, -0.06784143, 0.8793392, 0
976, 725323441, -0.6171599, -0.24584626, 0.6465812, -0.37497506, -1.3101025, -0.25529772, 1.058527, 0
977, 725340108, -0.6184852, -0.24535652, 0.64763314, -0.37127843, -1.035937, -0.5128548, 0.99703217, 0
978, 725356775, -0.62050426, -0.24401753, 0.6484223, -0.3673941, -0.683221, -0.7998792, 0.8198719, 0
979, 725373442, -0.62281734, -0.24200326, 0.64886624, -0.3640135, -0.23220806, -1.0108598, 0.58682346, 0
980, 725390109, -0.62515366, -0.23930116, 0.6489722, -0.3615979, 0.026925711, -1.1597593, 0.46780014, 0
981, 725406776, -0.6276719, -0.23590373, 0.64864033, -0.36005998, 0.15496913, -1.1992176, 0.3825884, 0
982, 725423443, -0.629934, -0.2318609, 0.6484715, -0.35903847, 0.027631566, -1.1849766, 0.07805061, 0
983, 725440110, -0.63190013, -0.22715543, 0.64851713, -0.35850847, 0.13533755, -1.022712, 0.20117569, 0
984, 725456777, -0.6340491, -0.22208695, 0.6481512, -0.3585519, 0.22865018, -0.8269387, 0.2794733, 0
985, 725473444, -0.6364024, -0.21672261, 0.64754, -0.3587692, -0.20375843, -0.6741369, 0.17877865, 0
986, 725490111, -0.6388108, -0.21099469, 0.64709705, -0.35870266, -0.44932318, -0.46967694, 0.16837311, 0
987, 725506778, -0.64119333, -0.2047532, 0.6469492, -0.35833526, -0.42259416, -0.3459815, 0.126791, 0
988, 725523445, -0.64359003, -0.1977628, 0.64695776, -0.35794914, -0.33655018, -0.40844345, 0.18616295, 0
989, 725540112, -0.6460471, -0.1902442, 0.6469046, -0.35769382, -0.18449788, -0.56617564, 0.25905418, 0
990, 725556779, -0.64842594, -0.18240872, 0.6467109, -0.35782117, 0.004382642, -0.72309357, 0.22358894, 0
991, 725573446, -0.6504288, -0.17448749, 0.64664495, -0.35825548, 0.09250039, -0.9526052, 0.014069557, 0
992, 725590113, -0.6517072, -0.1666737, 0.6469219, -0.35915178, 0.14289229, -1.0338492, -0.09099388, 0
993, 725606780, -0.6525276, -0.1589631, 0.64707917, -0.36086985, 0.30466872, -0.94417995, 0.014750481, 0
994, 725623447, -0.6530553, -0.1511141, 0.6472299, -0.3630111, 0.21211156, -0.93370193, 0.10149288, 0
995, 725640114, -0.6530657, -0.14342108, 0.6475375, -0.36555532, 0.3113151, -0.9872944, 0.062729836, 0
996, 725656781, -0.6524215, -0.13579035, 0.64815867, -0.36850718, 0.3094014, -1.0408027, 0.10612106, 0
997, 725673448, -0.65130717, -0.1284039, 0.6487478, -0.3720723, 0.33803475, -0.9518885, 0.046952248, 0
998, 725690115, -0.649619, -0.12097401, 0.64973676, -0.37576917, 0.13951366, -1.094686, -0.0510149, 0
999, 725706782, -0.64722073, -0.113801286, 0.65128225, -0.37945533, 0.049888093, -0.8672578, 0.06543064, 0
1000, 725723449, -0.6451108, -0.10667386, 0.6520621, -0.38375518, 0.0059230933, -0.48517573, 0.13228703, 0
1001, 725740116, -0.643045, -0.10087728, 0.652099, -0.38869512, -0.34488362, -0.64481205, 0.28509426, 0
1002, 725756783, -0.6416255, -0.09583994, 0.65055627, -0.39485222, -0.4219835, -1.1706578, 0.5563383, 0
1003, 725773450, -0.6412634, -0.09024032, 0.6474377, -0.40182394, -0.05356488, -1.406054, 0.5854397, 0
1004, 725790117, -0.6400473, -0.08577757, 0.64459926, -0.40923554, 0.09715125, -1.773914, -0.15178871, 0
1005, 725806784, -0.6359365, -0.08470511, 0.6434769, -0.41754922, 0.3063102, -1.1278325, -0.52941036, 0
1006, 725823451, -0.63017577, -0.08508978, 0.64384013, -0.42556843, 0.6633688, 0.27923736, -0.3101616, 0
1007, 725840118, -0.62459123, -0.084808506, 0.6448418, -0.43228766, 0.48744085, 1.1512738, -0.13990879, 0
1008, 725856785, -0.62015283, -0.08200924, 0.6461758, -0.4371977, 0.0861857, 1.2607803, -0.33761978, 0
1009, 725873452, -0.61695355, -0.076045915, 0.6474649, -0.44087973, -0.620984, 1.0983858, -0.5408354, 0
1010, 725890119, -0.6140148, -0.068178155, 0.6492092, -0.44369465, -0.79445535, 0.39493465, -0.53231144, 0
1011, 725906786, -0.61113614, -0.05903131, 0.6517629, -0.4452338, -0.6311257, -0.5285397, 1.3542175E-4, 0
1012, 725923453, -0.6074655, -0.050536197, 0.6554911, -0.44582874, -0.8281379, -0.9145916, 0.31573105, 0
1013, 725940120, -0.60357946, -0.04458957, 0.65837044, -0.4474954, -0.29105052, -0.74244195, 0.68728256, 0
1014, 725956787, -0.59998643, -0.041099194, 0.6596333, -0.45078948, -0.43181363, -0.9678294, 0.8256235, 0
1015, 725973454, -0.5967351, -0.039381213, 0.6596439, -0.45522118, -0.8852919, -0.94476914, 0.7311382, 0
1016, 725990121, -0.5939782, -0.039282307, 0.65857387, -0.46035546, -1.1178052, -0.46723372, 0.4123335, 0
1017, 726006788, -0.591584, -0.040104624, 0.65717834, -0.465335, -1.4906099, 0.13429703, 0.01710701, 0
1018, 726023455, -0.5896263, -0.04111469, 0.65585446, -0.46958026, -1.7122847, 0.7294447, -0.35137463, 0
1019, 726040122, -0.5883952, -0.041487068, 0.6549131, -0.47239673, -1.7456008, 0.99242413, -0.5911417, 0
1020, 726056789, -0.5881539, -0.041199062, 0.6544102, -0.47341844, -1.6039075, 0.8425348, -0.67298126, 0
1021, 726073456, -0.588655, -0.040653553, 0.6543118, -0.47297865, -1.366623, 0.49230573, -0.5375452, 0
1022, 726090123, -0.5898158, -0.040052976, 0.65439236, -0.4714703, -1.4089304, 0.16181265, -0.26617718, 0
1023, 726106790, -0.59131837, -0.040051937, 0.65454024, -0.46937782, -1.1199944, -0.13692535, -0.15367508, 0
1024, 726123457, -0.59293646, -0.0408681, 0.65453625, -0.46726716, -0.7262801, -0.3059832, 0.1138649, 0
1025, 726140124, -0.5950521, -0.042083908, 0.65403646, -0.46516475, -0.89246064, -0.43217582, 0.27574062, 0
1026, 726156791, -0.59767133, -0.043888383, 0.65304494, -0.46302834, -0.90699744, -0.34749836, 0.19612312, 0
1027, 726173458, -0.5998997, -0.047365118, 0.6521213, -0.4611017, -0.40344915, -0.27235344, -0.1556921, 0
1028, 726190125, -0.6013588, -0.051776327, 0.6516323, -0.45941535, 0.22736251, -0.13446876, -0.010334969, 0
1029, 726206792, -0.60316163, -0.0551543, 0.6512647, -0.4571744, -0.22813028, -0.2173015, 0.29719257, 0
1030, 726223459, -0.6056696, -0.057302848, 0.6510815, -0.45384347, -1.0387641, -0.35513705, 0.1915493, 0
1031, 726240126, -0.6080966, -0.05899234, 0.6516134, -0.44959822, -1.0737784, 0.0131852245, -0.13126945, 0
1032, 726256793, -0.6105762, -0.06098026, 0.6520002, -0.44539198, -0.020464847, 0.2864608, -0.13169098, 0
1033, 726273460, -0.61289537, -0.062819436, 0.65216494, -0.4416944, 0.5304993, -0.1616677, 0.007577896, 0
1034, 726290127, -0.6144451, -0.06369116, 0.6533224, -0.43768778, 0.114391245, -0.748969, -0.053565025, 0
1035, 726306794, -0.6160019, -0.0633276, 0.65548825, -0.4322805, -0.39017227, -0.76008165, 0.12684536, 0
1036, 726323461, -0.6191339, -0.0639136, 0.6557925, -0.42722908, -0.02001469, -0.5435881, 0.67572975, 0
1037, 726340128, -0.6230105, -0.06688099, 0.65369236, -0.42434818, 0.66711915, -1.1602219, 0.57403564, 0
1038, 726356795, -0.62504005, -0.07124106, 0.65242124, -0.42260662, 0.5702812, -1.6363195, -0.24587727, 0
1039, 726373462, -0.62486815, -0.07504994, 0.6539887, -0.4197692, -0.08129814, -1.1623861, -0.79056454, 0
1040, 726390129, -0.6242578, -0.078408726, 0.6564796, -0.41615966, -0.123204365, -0.0070711398, -0.032648087, 0
1041, 726406796, -0.6255911, -0.082545616, 0.6565523, -0.41323274, -0.26316103, 0.30893257, 0.61413, 0
1042, 726423463, -0.62785375, -0.088759445, 0.65441954, -0.411894, -0.27586684, -0.44713545, -0.14473629, 0
1043, 726440130, -0.6289859, -0.09632209, 0.6529212, -0.41084403, -0.5127088, -0.7227702, -0.6271486, 0
1044, 726456797, -0.6291904, -0.10318677, 0.653264, -0.40831158, -0.9156222, -0.27876508, -0.30308533, 0
1045, 726473464, -0.62925935, -0.10948091, 0.65453273, -0.4045166, -0.53277487, 0.5923443, 0.18684769, 0
1046, 726490131, -0.6304176, -0.11589878, 0.654416, -0.40109962, -0.07391529, 0.4456731, 0.21691513, 0
1047, 726506798, -0.63153636, -0.1229691, 0.65361863, -0.39852607, 0.2870054, -0.5444797, -0.16649723, 0
1048, 726523465, -0.63195044, -0.12958539, 0.65370363, -0.39562348, 0.071374394, -0.9968698, -0.32691383, 0
1049, 726540132, -0.6320735, -0.13438544, 0.6551379, -0.39143088, -0.53439176, -0.6943992, -0.06162834, 0
1050, 726556799, -0.6323913, -0.13853633, 0.6568441, -0.38658133, -1.0011487, -0.1893746, 0.156456, 0
1051, 726573466, -0.633133, -0.1435814, 0.65718925, -0.38292205, -0.8062658, -0.14984141, 0.60106087, 0
1052, 726590133, -0.6340119, -0.14960235, 0.6565921, -0.3801775, -0.25748336, -0.6149218, 0.5510702, 0
1053, 726606800, -0.63409925, -0.15554097, 0.6567714, -0.37732828, 0.32098293, -0.9126166, 0.2475996, 0
1054, 726623467, -0.63330394, -0.1611707, 0.6576947, -0.37468407, 0.44129726, -1.0379726, 0.041083336, 0
1055, 726640134, -0.6319198, -0.16712143, 0.65830386, -0.37334168, 0.4966936, -1.096976, 0.088074684, 0
1056, 726656801, -0.63034254, -0.1731584, 0.6583851, -0.3731135, 0.4830763, -1.1180887, -0.045199394, 0
1057, 726673468, -0.6284224, -0.17854981, 0.6586625, -0.37332165, 0.51029664, -1.1747125, -0.24741364, 0
1058, 726690135, -0.6257627, -0.1832783, 0.65986323, -0.37337756, 0.512496, -0.8908361, -0.3223343, 0
1059, 726706802, -0.62291026, -0.18721604, 0.6614258, -0.37342867, 0.07355856, -0.594188, -0.024671555, 0
1060, 726723469, -0.6205358, -0.19086997, 0.6623463, -0.37390035, -0.16883364, -0.5363096, 0.22332764, 0
1061, 726740136, -0.61872625, -0.19490285, 0.6623828, -0.37475297, -0.25401533, -0.8496914, 0.23262501, 0
1062, 726756803, -0.6171848, -0.19946824, 0.6621153, -0.3753648, -0.51732165, -1.0129939, 0.23352623, 0
1063, 726773470, -0.61591315, -0.20465119, 0.6615842, -0.3756, -1.0743619, -0.64910597, 0.29299927, 0
1064, 726790137, -0.61533946, -0.21021807, 0.6605659, -0.37525785, -1.706453, 0.17995977, 0.58226013, 0
1065, 726806804, -0.61593646, -0.21544863, 0.659299, -0.373536, -2.1605778, 1.0497067, 0.7475996, 0
1066, 726823471, -0.6176024, -0.21953748, 0.65843886, -0.36990377, -1.9898524, 1.2521856, 0.6494217, 0
1067, 726840138, -0.6198357, -0.22181289, 0.6583687, -0.364902, -1.2070374, 0.6385612, 0.5040455, 0
1068, 726856805, -0.6223988, -0.22220585, 0.6587347, -0.3596014, -0.40075114, -0.2973147, 0.39822674, 0
1069, 726873472, -0.62482715, -0.22150348, 0.6590327, -0.35525092, 0.26777837, -1.0612901, 0.12105274, 0
1070, 726890139, -0.62653935, -0.22015007, 0.6593974, -0.35238805, 0.8316385, -1.3040847, -0.043932915, 0
1071, 726906806, -0.6276007, -0.21821012, 0.6596954, -0.35114688, 1.1892313, -1.4916942, -0.06336784, 0
1072, 726923473, -0.6277777, -0.21605785, 0.6601355, -0.35133362, 1.264274, -1.6708484, -0.17774582, 0
1073, 726940140, -0.6271593, -0.21382384, 0.66068405, -0.35277098, 1.0719749, -1.7285153, -0.029935837, 0
1074, 726956807, -0.62597346, -0.21171603, 0.66114837, -0.3552698, 0.694048, -1.5803678, 0.10233688, 0
1075, 726973474, -0.62475514, -0.2094068, 0.66141456, -0.3582748, 0.12348867, -1.2524383, 0.4772129, 0
1076, 726990141, -0.6241491, -0.20668285, 0.6611505, -0.36138654, -0.44292355, -0.857655, 0.65316105, 0
1077, 727006808, -0.62403023, -0.20370354, 0.66052663, -0.364412, -0.82782537, -0.5201867, 0.631567, 0
1078, 727023475, -0.6242544, -0.20034818, 0.65977585, -0.36723685, -0.91227216, -0.24882703, 0.6032028, 0
1079, 727040142, -0.62481403, -0.1965796, 0.6588318, -0.3700063, -0.76434815, -0.20397311, 0.44887733, 0
1080, 727056809, -0.6254882, -0.19237797, 0.6578844, -0.3727513, -0.4830182, -0.15930551, 0.24144459, 0
1081, 727073476, -0.62634045, -0.18742801, 0.65696454, -0.37545452, -0.39770734, -0.25215772, 0.13528538, 0
1082, 727090143, -0.6272569, -0.18153833, 0.6563394, -0.3779039, -0.34865025, -0.37565085, 0.15329456, 0
1083, 727106810, -0.6281283, -0.1748788, 0.65615004, -0.3799201, -0.3374715, -0.48162964, 0.14211082, 0
1084, 727123477, -0.62890315, -0.16761385, 0.6563778, -0.38151652, -0.3984695, -0.5499088, 0.09716225, 0
1085, 727140144, -0.6295149, -0.16006054, 0.6567003, -0.3831926, -0.2647274, -0.54375625, 0.14149761, 0
1086, 727156811, -0.62998354, -0.15278272, 0.656582, -0.38558838, 0.03468161, -0.639043, 0.22169876, 0
1087, 727173478, -0.6303758, -0.14577112, 0.6561356, -0.38841122, 0.31080818, -0.82367927, 0.10059738, 0
1088, 727190145, -0.63038856, -0.13895574, 0.6558638, -0.3913367, 0.21278434, -1.0552005, -0.058548927, 0
1089, 727206812, -0.62957346, -0.13267025, 0.6557591, -0.3949888, 0.30322126, -0.90598625, 0.295928, 0
1090, 727223479, -0.6284754, -0.12668905, 0.6555743, -0.3989875, 0.36571592, -0.77775264, 0.38334465, 0
1091, 727240146, -0.6268476, -0.12139375, 0.6554587, -0.40336037, 0.33412415, -0.7242063, 0.07070255, 0
1092, 727256813, -0.62470716, -0.1169308, 0.6551802, -0.40842032, 0.05426805, -0.5911909, 0.10906029, 0
1093, 727273480, -0.62299097, -0.11285876, 0.65352756, -0.41478565, -0.19982862, -0.7996754, 0.36223412, 0
1094, 727290147, -0.6217711, -0.10900635, 0.6501217, -0.4229189, -0.12138184, -1.4583845, 0.2594509, 0
1095, 727306814, -0.6209134, -0.102738, 0.64715433, -0.4302361, 1.0976315, -1.4097273, 0.44559097, 0
1096, 727323481, -0.6184367, -0.09635278, 0.64629805, -0.43652156, 0.68296146, -1.1657016, -0.18412018, 0
1097, 727340148, -0.6135493, -0.09391747, 0.64637715, -0.4437718, 0.11359063, -0.20232314, -0.46032047, 0
1098, 727356815, -0.6080982, -0.092850335, 0.64727545, -0.4501444, 0.018206695, 0.9907348, -0.70736504, 0
1099, 727373482, -0.6035162, -0.09079553, 0.64847577, -0.4549764, -0.451329, 1.6791764, -0.73495483, 0
1100, 727390149, -0.6001311, -0.08530241, 0.65115786, -0.45668343, -1.0885385, 1.3877897, -0.6079426, 0
1101, 727406816, -0.5970744, -0.078173116, 0.6549278, -0.45657524, -1.3948709, 0.398452, -0.23326778, 0
1102, 727423483, -0.59419286, -0.07284279, 0.65697384, -0.45827314, 0.73779416, -0.1850763, 0.122722626, 0
1103, 727440150, -0.5908018, -0.06874231, 0.658497, -0.46109593, 1.3870606, -0.76725584, 0.15042305, 0
1104, 727456817, -0.5853231, -0.066123545, 0.6621941, -0.46316695, -0.119625024, -1.2796901, -0.12463093, 0
1105, 727473484, -0.57979435, -0.065236636, 0.6655058, -0.46549404, -1.3333639, -0.2761029, 0.49236202, 0
1106, 727490151, -0.57661474, -0.065592475, 0.6651489, -0.4698833, -1.5590371, 0.16945328, 0.5320196, 0
1107, 727506818, -0.57462436, -0.06618814, 0.6633988, -0.47468743, -1.3022419, -7.886655E-4, 0.23903084, 0
1108, 727523485, -0.5723777, -0.06698193, 0.66291004, -0.4779618, -1.3027288, -0.07169745, -0.31279278, 0
1109, 727540152, -0.57019204, -0.06835497, 0.6634031, -0.47969285, -1.6329751, 0.6759055, -0.50465965, 0
1110, 727556819, -0.56912017, -0.06973103, 0.6633487, -0.48084122, -1.7917295, 1.0073477, -0.31382275, 0
1111, 727573486, -0.5694168, -0.07023958, 0.6628801, -0.48106226, -1.6360214, 0.67663, -0.16146088, 0
1112, 727590153, -0.5703836, -0.07043929, 0.6629105, -0.47984415, -1.4137758, 0.09410407, -0.09666157, 0
1113, 727606820, -0.57195073, -0.070805155, 0.6628788, -0.4779651, -1.2551936, -0.1888459, 0.16146469, 0
1114, 727623487, -0.57387024, -0.071885705, 0.66208863, -0.4765964, -0.9425519, -0.28996566, 0.38327122, 0
1115, 727640154, -0.5760031, -0.073273465, 0.66100526, -0.4753141, -0.6273338, -0.33025992, 0.5086012, 0
1116, 727656821, -0.5785962, -0.074704394, 0.65968925, -0.47376794, -0.8884765, -0.40034926, 0.42795563, 0
1117, 727673488, -0.58161587, -0.07615091, 0.6579113, -0.47231004, -0.89426684, -0.2620937, 0.28351974, 0
1118, 727690155, -0.58479065, -0.07761571, 0.6557479, -0.4711587, -0.4653924, -0.06667905, 0.22825432, 0
1119, 727706822, -0.5878426, -0.07872118, 0.6538869, -0.46976176, -0.011095183, -0.008163671, 0.10598469, 0
1120, 727723489, -0.59032774, -0.07908647, 0.6529404, -0.46789703, 0.01068839, -0.1525923, 2.040863E-4, 0
1121, 727740156, -0.5919947, -0.07855033, 0.65332854, -0.46533248, -0.20395759, -0.4562531, -0.009458542, 0
1122, 727756823, -0.5941528, -0.078010306, 0.65336347, -0.4626156, -0.11787447, -0.58691245, 0.24398994, 0
1123, 727773490, -0.5974295, -0.07858943, 0.65208614, -0.46009302, 0.079510264, -0.8641107, 0.28867912, 0
1124, 727790157, -0.60060686, -0.08072914, 0.6503447, -0.45804584, 0.3470385, -0.9558289, -0.066067696, 0
1125, 727806824, -0.60279137, -0.08323042, 0.6493079, -0.4561957, -0.25698626, -0.5463756, -0.43848133, 0
1126, 727823491, -0.60405177, -0.083917804, 0.6504631, -0.45274392, -1.4162433, 0.6428388, -0.43064117, 0
1127, 727840158, -0.6064294, -0.08245203, 0.6524427, -0.4469495, -1.2988391, 1.5692464, 0.06779289, 0
1128, 727856825, -0.61126065, -0.080526635, 0.6522793, -0.4409168, -0.05907358, 0.91968006, 0.47747803, 0
1129, 727873492, -0.61678845, -0.08022564, 0.64983654, -0.43686214, 1.21581, -1.1253861, -0.07287216, 0
1130, 727890159, -0.61992836, -0.08250307, 0.6481963, -0.43442377, 1.4697155, -2.337736, -0.18572426, 0
1131, 727906826, -0.62132895, -0.084538005, 0.6489247, -0.43092987, -0.37272438, -1.3979274, 0.35472107, 0
1132, 727923493, -0.62298197, -0.08637931, 0.64985347, -0.42675832, -1.6061074, 0.2914931, 0.6655607, 0
1133, 727940160, -0.6262645, -0.089841574, 0.64798075, -0.4240783, -0.48307586, 0.79191947, 0.5305414, 0
1134, 727956827, -0.6298042, -0.096621305, 0.6436358, -0.4239623, 1.1536237, -0.6261943, -0.30349445, 0
1135, 727973494, -0.6311378, -0.1064191, 0.6401206, -0.42495403, 1.6311998, -1.7764957, -1.159442, 0
1136, 727990161, -0.6305993, -0.11644544, 0.6389131, -0.42494142, 0.441114, -0.83669615, -0.58932114, 0
1137, 728006828, -0.6307492, -0.1254492, 0.6380781, -0.42340818, -1.1354607, 0.38650212, -0.17150307, 0
1138, 728023495, -0.6307102, -0.13465542, 0.6377738, -0.4210904, -1.2118709, 1.0566933, -0.10632324, 0
1139, 728040162, -0.63123345, -0.14353997, 0.6373142, -0.41805667, -0.54075605, 1.144901, -0.23627853, 0
1140, 728056829, -0.632055, -0.1504291, 0.6375175, -0.41406453, -0.31621227, 0.32746464, -0.6536484, 0
1141, 728073496, -0.63257617, -0.15506169, 0.6394008, -0.40861985, -0.29867432, -0.3400208, -0.1733141, 0
1142, 728090163, -0.6337116, -0.15780927, 0.64163196, -0.40226156, -0.6542881, -0.5053894, 0.44827175, 0
1143, 728106830, -0.63589275, -0.1601619, 0.6425994, -0.39630142, -0.791897, -0.68022937, 0.773468, 0
1144, 728123497, -0.6378234, -0.16408111, 0.6423848, -0.39191902, -0.32108888, -1.3925956, 0.49460506, 0
1145, 728140164, -0.6387204, -0.16970897, 0.6415442, -0.38943076, 0.739477, -1.6975873, 0.31890488, 0
1146, 728156831, -0.6383171, -0.1767838, 0.6404719, -0.38870904, 1.2316265, -1.8283851, 0.1510458, 0
1147, 728173498, -0.6367849, -0.18506311, 0.6390989, -0.38962713, 1.1149253, -1.5780886, -0.114803314, 0
1148, 728190165, -0.63472784, -0.19345023, 0.63788515, -0.39089665, 0.39271718, -0.8202322, -0.39898777, 0
1149, 728206832, -0.6321519, -0.20133755, 0.6374061, -0.3918683, -0.18113892, -0.34985533, -0.37203598, 0
1150, 728223499, -0.62974244, -0.20765963, 0.637636, -0.39207458, -0.6030565, 0.42194116, -0.13531971, 0
1151, 728240166, -0.62778777, -0.21271689, 0.63827676, -0.3914549, -0.69429964, 0.5394027, 0.08527565, 0
1152, 728256833, -0.6262402, -0.2166392, 0.63945186, -0.38986152, -0.92844826, 0.50144315, -0.06315899, 0
1153, 728273500, -0.62493753, -0.2191919, 0.6416055, -0.38697618, -1.1464235, 0.5600134, 0.14374065, 0
1154, 728290167, -0.62434673, -0.22028951, 0.64429253, -0.38281962, -1.3119788, 0.57682836, 0.706769, 0
1155, 728306834, -0.6250552, -0.22039634, 0.64647, -0.3778997, -1.3357943, 0.38769272, 1.09373, 0
1156, 728323501, -0.6267942, -0.21996681, 0.64786685, -0.3728438, -1.0150934, -0.24692415, 0.95228577, 0
1157, 728340168, -0.62884444, -0.21924232, 0.64867824, -0.36838037, -0.38273466, -1.110206, 0.6761379, 0
1158, 728356835, -0.6305157, -0.2185772, 0.64889365, -0.3655286, 0.33058104, -1.7215312, 0.3961048, 0
