DeviceTag:,Xsens DOT 3,,,,,,,,,,,,,,,,,
FirmwareVersion:,1.3.0,,,,,,,,,,,,,,,,,
AppVersion:,2020.1.1,,,,,,,,,,,,,,,,,
Measurement Mode:,Sensor fusion Mode - Extended (Quaternion),,,,,,,,,,,,,,,,,
StartTime:,2020-08-03 15:46:12.323 +0200,,,,,,,,,,,,,,,,,
© Xsens Technologies B. V. 2005-2020,,,,,,,,,,,,,,,,,,,
PacketCounter,SampleTimeFine,Quat_W,Quat_X,Quat_Y,Quat_Z,FreeAcc_X,FreeAcc_Y,FreeAcc_Z,Status
1, 3680470813, 0.1691294, -0.090401, 0.0038062823, -0.98143303, 0.10205652, -0.024138352, 0.16374016, 0
2, 3680487480, 0.16917636, -0.08931004, 0.0032354947, -0.9815266, 0.028175207, -0.0034614473, 0.20615292, 0
3, 3680504147, 0.16926527, -0.08848439, 0.0027703336, -0.9815876, 0.088788345, 0.028451957, 0.17137527, 0
4, 3680520814, 0.16933522, -0.08767369, 0.0024953247, -0.98164904, 0.104439095, -0.039146673, 0.11581802, 0
5, 3680537481, 0.16929707, -0.086995564, 0.0021624698, -0.98171663, 0.031547774, -0.023354003, 0.12702847, 0
6, 3680554148, 0.16934532, -0.08661051, 0.001993239, -0.98174274, 0.012492432, 0.008287176, 0.14495754, 0
7, 3680570815, 0.16947663, -0.08633886, 0.0019684846, -0.98174417, -0.027656514, -0.0010773184, 0.16063786, 0
8, 3680587482, 0.16954568, -0.08617038, 0.0020121431, -0.98174685, -0.020791221, 0.01695948, 0.13964939, 0
9, 3680604149, 0.16958027, -0.086051695, 0.0019680548, -0.9817513, -0.0014265047, 0.030492714, 0.14365292, 0
10, 3680620816, 0.16963008, -0.085911185, 0.0017472687, -0.9817555, -0.026338713, 0.040012382, 0.16774845, 0
11, 3680637483, 0.16965917, -0.08576407, 0.001575251, -0.98176366, -6.90623E-4, -0.03949421, 0.21076679, 0
12, 3680654150, 0.16968356, -0.08573107, 0.0017197247, -0.98176205, 0.002055275, -0.036871087, 0.17495346, 0
13, 3680670817, 0.16968645, -0.085702226, 0.0019242959, -0.98176366, -0.061495148, 0.051545616, 0.18277454, 0
14, 3680687484, 0.16974369, -0.08562038, 0.0019434282, -0.981761, -0.07809199, 0.0453536, 0.13887024, 0
15, 3680704151, 0.16964643, -0.08555917, 0.0019647547, -0.9817831, -0.077400535, -0.014065335, 0.07724953, 0
16, 3680720818, 0.16978271, -0.0855681, 0.0020236843, -0.98175865, -0.07643297, -0.027445588, 0.08138847, 0
17, 3680737485, 0.16997264, -0.08549923, 0.0019799704, -0.9817319, -0.08475951, 0.029741682, 0.11941242, 0
18, 3680754152, 0.1714078, -0.0854154, 0.0016921777, -0.9814901, -0.008462104, -0.04032734, 0.10545349, 0
19, 3680770819, 0.17155218, -0.08543059, 0.001617362, -0.9814637, 0.021891974, -0.076259814, 0.13503647, 0
20, 3680787486, 0.17234522, -0.08545675, 0.0015391536, -0.98132265, -0.009496701, -0.07811253, 0.17323971, 0
21, 3680804153, 0.1720838, -0.08543013, 0.0014887175, -0.9813708, 0.009512798, -0.036826637, 0.20911312, 0
22, 3680820820, 0.17233306, -0.085365646, 0.0013672686, -0.9813329, 0.0016018491, -0.0551477, 0.17860603, 0
23, 3680837487, 0.17138475, -0.08524018, 0.0014177568, -0.9815098, 0.005432377, -0.079171225, 0.1715126, 0
24, 3680854154, 0.17112733, -0.08517663, 0.0015438254, -0.98156, 0.004595576, -0.069622025, 0.133502, 0
25, 3680870821, 0.17059128, -0.085015476, 0.0016585127, -0.98166716, -0.044241127, 7.397161E-4, 0.14982033, 0
26, 3680887488, 0.16987076, -0.08485032, 0.001752394, -0.98180616, 0.008448125, -0.008417973, 0.14170933, 0
27, 3680904155, 0.16934401, -0.08463485, 0.001741294, -0.98191583, -0.0033247452, -0.054827087, 0.16961002, 0
28, 3680920822, 0.169287, -0.084356405, 0.0016800781, -0.9819497, 0.063826084, -0.1020877, 0.14191532, 0
29, 3680937489, 0.1690322, -0.08407369, 0.0016910168, -0.98201793, 0.038577393, -0.14507367, 0.13457108, 0
30, 3680954156, 0.16884756, -0.08379503, 0.0017062539, -0.98207337, 0.040178243, -0.11925725, 0.11102867, 0
31, 3680970823, 0.16827548, -0.08358361, 0.0016927761, -0.9821897, 0.01733505, -0.096169464, 0.09443188, 0
32, 3680987490, 0.16812724, -0.08330383, 0.0014713621, -0.9822391, 0.0138465855, -0.10494362, 0.12466526, 0
33, 3681004157, 0.16750038, -0.08288293, 0.00115949, -0.9823822, 0.032794748, -0.16680595, 0.11378002, 0
34, 3681020824, 0.16672617, -0.082368754, 8.356256E-4, -0.98255754, 0.1438006, -0.22500233, 0.08052921, 0
35, 3681037491, 0.16593812, -0.08186418, 7.7935227E-4, -0.9827332, 0.17359157, -0.28765967, 0.12783146, 0
36, 3681054158, 0.16438402, -0.081168436, 7.2127196E-4, -0.983052, 0.14754316, -0.18485485, 0.15390873, 0
37, 3681070825, 0.1630597, -0.080400445, 5.257528E-4, -0.9833357, 0.12641624, -0.17354336, 0.15938473, 0
38, 3681087492, 0.16109319, -0.079600155, 3.1379354E-4, -0.98372513, 0.13694392, -0.11714756, 0.17786789, 0
39, 3681104159, 0.15921673, -0.0789513, 2.818188E-4, -0.98408264, 0.17928031, -0.070884496, 0.19146919, 0
40, 3681120826, 0.15671644, -0.078278854, 5.930909E-4, -0.98453766, 0.12741986, -0.04782001, 0.29189205, 0
41, 3681137493, 0.154513, -0.077158205, 7.457986E-4, -0.984974, 0.0060746237, 0.05434934, 0.36325645, 0
42, 3681154160, 0.15257698, -0.0755102, 5.425671E-4, -0.9854037, 0.06302571, 0.05940625, 0.30259418, 0
43, 3681170827, 0.1505393, -0.073710985, 3.4630357E-4, -0.98585325, 0.17188595, 0.0042167534, 0.17271328, 0
44, 3681187494, 0.14882608, -0.07206703, 4.2790337E-4, -0.98623496, 0.17085433, -0.02767807, 0.09059811, 0
45, 3681204161, 0.14607158, -0.07061296, 6.7389954E-4, -0.9867515, 0.27121136, 0.10763375, -0.027894974, 0
46, 3681220828, 0.14382085, -0.06984503, 7.9277577E-4, -0.9871366, 0.3349334, 0.23999076, -0.10987377, 0
47, 3681237495, 0.14185075, -0.06958549, 5.761533E-4, -0.98744017, 0.2451253, 0.13233347, -0.043198586, 0
48, 3681254162, 0.13942139, -0.06917836, 5.048425E-4, -0.9878149, 0.17124057, 0.11111057, 0.045627594, 0
49, 3681270829, 0.13928011, -0.06909978, 3.420849E-4, -0.9878401, 0.20141813, 0.19670199, 0.004360199, 0
50, 3681287496, 0.13639438, -0.06923031, 1.9418146E-4, -0.9882336, 0.0049432605, 0.28168213, 0.04885006, 0
51, 3681304163, 0.13489035, -0.06941074, -1.4491915E-4, -0.98842734, 0.006400001, 0.2217337, 0.09026623, 0
52, 3681320830, 0.13095185, -0.06982815, -3.0738418E-5, -0.98892766, -0.04785954, 0.14999457, 0.070757866, 0
53, 3681337497, 0.12913847, -0.070287734, -5.42216E-6, -0.98913336, -0.11688524, 0.19250871, 0.068449974, 0
54, 3681354164, 0.12680295, -0.07080248, -2.1966407E-6, -0.9893989, -0.122699544, 0.18407184, 0.026209831, 0
55, 3681370831, 0.12420459, -0.071225785, -5.2256626E-5, -0.989698, -0.161829, 0.15702774, 0.075032234, 0
56, 3681387498, 0.12314703, -0.07171735, -2.4894555E-4, -0.98979473, -0.13227211, 0.15289128, 0.09245682, 0
57, 3681404165, 0.12117649, -0.07252917, -3.5037054E-4, -0.9899788, -0.1420785, 0.15454498, 0.110219, 0
58, 3681420832, 0.119047575, -0.07361149, -3.948114E-4, -0.99015707, -0.20497552, 0.08947832, 0.06188965, 0
59, 3681437499, 0.116711475, -0.07492526, -3.0373852E-4, -0.9903366, -0.22422457, -5.9817656E-4, 0.0015010834, 0
60, 3681454166, 0.115114205, -0.07631324, -2.9061444E-4, -0.9904177, -0.22030365, -0.035673507, -0.0085840225, 0
61, 3681470833, 0.11284044, -0.07773702, -2.1941215E-4, -0.99056864, -0.28263053, -0.057766538, -0.022844315, 0
62, 3681487500, 0.11193648, -0.07901788, -9.051757E-5, -0.9905699, -0.32554162, -0.09170799, 0.01142025, 0
63, 3681504167, 0.11123156, -0.08015712, 1.6510137E-4, -0.99055773, -0.31350505, 0.014599685, 0.059285164, 0
64, 3681520834, 0.11094368, -0.08136845, 3.1777425E-4, -0.9904912, -0.40962237, 0.19043218, -0.019177437, 0
65, 3681537501, 0.1111701, -0.082472034, 2.97972E-5, -0.9903746, -0.51325476, 0.15871969, -0.014928818, 0
66, 3681554168, 0.11192101, -0.08343676, -3.5386882E-4, -0.9902091, -0.43045425, 0.065500766, 0.0131111145, 0
67, 3681570835, 0.11296252, -0.084324785, -0.0010845563, -0.990015, -0.37681323, 0.085902594, 0.10575485, 0
68, 3681587502, 0.11223951, -0.08496254, -0.0019918508, -0.99004126, -0.20573905, -0.06661086, 0.08234024, 0
69, 3681604169, 0.11286325, -0.08558291, -0.0028651326, -0.98991483, -0.07074899, -0.16694593, 0.09088898, 0
70, 3681620836, 0.1128027, -0.08629695, -0.0032408123, -0.9898585, -0.0035726132, -0.24777828, 0.09702492, 0
71, 3681637503, 0.11228299, -0.08713428, -0.003253072, -0.98984444, -0.080645904, -0.12095565, 0.11175537, 0
72, 3681654170, 0.11116883, -0.08794285, -0.0032799293, -0.98989844, -0.11238334, -0.11773467, 0.10435009, 0
73, 3681670837, 0.10994044, -0.08881071, -0.0034855031, -0.9899575, -0.119520105, -0.16268764, 0.03985977, 0
74, 3681687504, 0.10907142, -0.08976739, -0.003632757, -0.98996675, -0.055836827, -0.19383502, -0.042580605, 0
75, 3681704171, 0.10930599, -0.09078366, -0.003876001, -0.98984724, -0.027233342, -0.1660536, 0.058600426, 0
76, 3681720838, 0.10785673, -0.09183221, -0.004070812, -0.98990875, -0.15121937, -0.11145398, 0.08150482, 0
77, 3681737505, 0.107323095, -0.09264747, -0.0045737857, -0.9898886, -0.14320701, -0.18475403, 0.125494, 0
78, 3681754172, 0.10660945, -0.09338981, -0.0049331207, -0.9898942, -0.016424114, -0.1853725, 0.116007805, 0
79, 3681770839, 0.10609596, -0.093980856, -0.004826868, -0.98989403, -0.10775736, -0.065526165, 0.37956715, 0
80, 3681787506, 0.10576642, -0.09379012, -0.0045778067, -0.98994845, -0.14157093, 0.2059506, 0.62933445, 0
81, 3681804173, 0.10571603, -0.09329012, -0.0044727176, -0.9900016, 0.093090914, 0.25110254, 0.48636913, 0
82, 3681820840, 0.105078205, -0.09287325, -0.0045571495, -0.9901084, 0.2541298, 0.10589331, 0.37800503, 0
83, 3681837507, 0.10512235, -0.09258225, -0.004444403, -0.99013144, 0.21722217, 0.03632715, 0.30209923, 0
84, 3681854174, 0.10448448, -0.09227962, -0.004073713, -0.9902289, 0.18001044, 0.059423015, 0.26105118, 0
85, 3681870841, 0.10423412, -0.09204971, -0.0036106594, -0.9902783, 0.0941296, 0.03495466, 0.18970871, 0
86, 3681887508, 0.10363052, -0.0919177, -0.0030141096, -0.990356, 0.030334601, 0.13219151, 0.12769794, 0
87, 3681904175, 0.10263691, -0.09174066, -0.0025515303, -0.9904771, -0.025565626, 0.22706434, 0.20699596, 0
88, 3681920842, 0.10241367, -0.09136683, -0.0023799716, -0.9905353, -0.08296769, 0.1492669, 0.24869823, 0
89, 3681937509, 0.10193798, -0.09081718, -0.0022814465, -0.99063504, 0.04380322, 0.15393938, 0.19919014, 0
90, 3681954176, 0.10164566, -0.09039471, -0.002270901, -0.99070376, 0.1437396, 0.018536342, 0.07182884, 0
91, 3681970843, 0.10154254, -0.09027363, -0.0021126822, -0.99072576, 0.087462366, 0.04934898, 0.014685631, 0
92, 3681987510, 0.101371154, -0.09028381, -0.0019907798, -0.99074256, 0.00447364, 0.12602933, 0.07407093, 0
93, 3682004177, 0.101095095, -0.09029262, -0.0020391403, -0.9907699, -0.14163806, 0.14332204, 0.116045, 0
94, 3682020844, 0.10097801, -0.09030531, -0.0022138124, -0.9907803, -0.20907588, 0.12489974, 0.17583084, 0
95, 3682037511, 0.10111271, -0.09039357, -0.0024236322, -0.99075806, -0.17506927, 0.031183096, 0.18986797, 0
96, 3682054178, 0.10083446, -0.09044619, -0.002673658, -0.99078095, -0.2319121, -0.03329878, 0.21466446, 0
97, 3682070845, 0.09993151, -0.090410665, -0.00283779, -0.99087524, -0.27469712, -0.106754564, 0.14994526, 0
98, 3682087512, 0.09892667, -0.09029496, -0.0029936633, -0.99098605, -0.24518032, -0.001467111, 0.16374302, 0
99, 3682104179, 0.09947237, -0.09010486, -0.0034049305, -0.9909475, -0.15304883, 0.047287315, 0.14178848, 0
100, 3682120846, 0.09954002, -0.08987561, -0.0037786989, -0.99096006, -0.14573155, 0.005223805, 0.17305374, 0
101, 3682137513, 0.09980999, -0.08941171, -0.004098614, -0.9909737, -0.11274847, -0.13157232, 0.19582653, 0
102, 3682154180, 0.09877464, -0.08875859, -0.0041269, -0.9911361, -0.13809642, -0.20152074, 0.15927029, 0
103, 3682170847, 0.098259695, -0.088027135, -0.0039752554, -0.9912531, -0.14598121, -0.19823359, 0.09239197, 0
104, 3682187514, 0.097415835, -0.08725585, -0.0038025812, -0.99140525, -0.1751662, -0.17490418, 0.07840824, 0
105, 3682204181, 0.09674642, -0.08648048, -0.0036785621, -0.9915392, -0.22548404, -0.15752324, 0.019304276, 0
106, 3682220848, 0.095838696, -0.08566769, -0.0035357992, -0.9916984, -0.22194646, -0.014547187, 0.17621899, 0
107, 3682237515, 0.095457494, -0.0844116, -0.003577917, -0.9918427, -0.1799994, 0.1462922, 0.41092587, 0
108, 3682254182, 0.09542861, -0.0826909, -0.0036292877, -0.99199015, -0.060472228, 0.1231824, 0.5090637, 0
109, 3682270849, 0.09552778, -0.08101632, -0.0036804334, -0.9921186, 0.10870087, 0.03810101, 0.36011028, 0
110, 3682287516, 0.09520315, -0.08009584, -0.0034467967, -0.99222547, 0.25625798, -0.09195053, 0.210845, 0
111, 3682304183, 0.0949796, -0.079744376, -0.0034350231, -0.99227524, 0.17537329, 0.00582261, 0.238307, 0
112, 3682320850, 0.0944604, -0.079781674, -0.004276325, -0.9923186, 0.022154264, 0.17054726, 0.38032818, 0
113, 3682337517, 0.09449899, -0.0800355, -0.005491048, -0.9922885, -0.16732211, 0.127812, 0.36559963, 0
114, 3682354184, 0.0943938, -0.08023525, -0.0060499804, -0.99227905, -0.27145454, 0.038904548, 0.21325874, 0
115, 3682370851, 0.094477884, -0.08045558, -0.0064101974, -0.992251, -0.003947562, 0.20470649, 0.130929, 0
116, 3682387518, 0.09510672, -0.08077246, -0.008112894, -0.99215263, 0.09334519, 0.33053574, 0.12385464, 0
117, 3682404185, 0.09555122, -0.081193544, -0.010941999, -0.99204856, 0.06260372, 0.077147305, 0.10155392, 0
118, 3682420852, 0.0965554, -0.08180268, -0.013454084, -0.9918703, -0.0020528215, -0.24839129, 0.034179688, 0
119, 3682437519, 0.09614507, -0.082804546, -0.014838319, -0.99180716, -0.06655044, -0.14269584, -0.021900177, 0
120, 3682454186, 0.09619096, -0.08401208, -0.016792139, -0.99167, -0.14297165, 0.51605713, 0.16522598, 0
121, 3682470853, 0.09708256, -0.08423196, -0.021516662, -0.9914731, -0.4888244, 0.8881009, 0.29047108, 0
122, 3682487520, 0.09935272, -0.08304263, -0.029107498, -0.99115473, -0.28351507, 0.60948926, 0.07126713, 0
123, 3682504187, 0.10203688, -0.082050405, -0.03641112, -0.9907233, 0.24280763, -0.34134686, -0.099494934, 0
124, 3682520854, 0.10382359, -0.08216966, -0.040918414, -0.9903518, 0.44705865, -0.74153787, -0.0061740875, 0
125, 3682537521, 0.102876835, -0.08333166, -0.042983904, -0.990266, 0.4736575, -0.60051537, 0.29332256, 0
126, 3682554188, 0.10145888, -0.084983885, -0.04429585, -0.990214, 0.14801495, -0.28530642, 0.7691927, 0
127, 3682570855, 0.10065207, -0.08641732, -0.045903295, -0.9900992, -0.6023121, -0.14433992, 0.5696621, 0
128, 3682587522, 0.10043748, -0.086057484, -0.045818295, -0.99015623, -1.5841304, -0.33663067, 0.3563528, 0
129, 3682604189, 0.10116108, -0.08562932, -0.04319018, -0.99023783, -1.2967801, 0.42994168, -0.044748306, 0
130, 3682620856, 0.102859266, -0.08273065, -0.040915627, -0.99040586, -2.2396824, 0.85547435, 0.6607008, 0
131, 3682637523, 0.10582988, -0.07915008, -0.038545188, -0.99048054, -1.8638777, 0.9504949, 0.6039047, 0
132, 3682654190, 0.10973142, -0.07534745, -0.0350071, -0.99048394, -1.7965969, 0.96654344, 0.60446644, 0
133, 3682670857, 0.11415595, -0.07188977, -0.029928206, -0.9904074, -1.608543, 1.0462952, 0.22506428, 0
134, 3682687524, 0.1190344, -0.069354616, -0.02420694, -0.9901703, -1.6666198, 1.1283903, -0.23457432, 0
135, 3682704191, 0.12496938, -0.06789962, -0.018433617, -0.98966396, -1.9716855, 1.2838417, -0.67248535, 0
136, 3682720858, 0.1321577, -0.067373574, -0.013049897, -0.9888514, -2.2015097, 1.3289952, -1.0011902, 0
137, 3682737525, 0.14118774, -0.06832042, -0.008106378, -0.9875905, -2.1230884, 1.4273618, -1.2257919, 0
138, 3682754192, 0.15200841, -0.07080747, -0.0041189045, -0.9858322, -2.152683, 1.4400855, -1.1909771, 0
139, 3682770859, 0.16442585, -0.07499034, -5.988274E-4, -0.9835356, -2.0555902, 1.1767803, -1.141406, 0
140, 3682787526, 0.17806381, -0.08142902, 0.003376943, -0.98063916, -1.8666563, 0.932244, -1.2118425, 0
141, 3682804193, 0.19334233, -0.091217555, 0.008478641, -0.9768461, -1.5281597, 0.70743656, -1.3016958, 0
142, 3682820860, 0.21133575, -0.106493235, 0.016085662, -0.97146267, -1.0885249, 0.2602279, -1.8225627, 0
143, 3682837527, 0.23217757, -0.1292234, 0.027571589, -0.96365815, -1.2287924, 0.44785044, -2.112082, 0
144, 3682854194, 0.2538946, -0.15569106, 0.038765587, -0.9538331, -2.593936, 1.0241159, -1.1718473, 0
145, 3682870861, 0.27439117, -0.18160926, 0.04637835, -0.9431749, -3.1469831, 0.8579311, -0.6595526, 0
146, 3682887528, 0.29425812, -0.2058659, 0.04946748, -0.93197984, -2.7464795, 0.40258518, -0.6673708, 0
147, 3682904195, 0.3129939, -0.2305765, 0.04966615, -0.92000264, -1.9150152, 0.0024594807, -1.1577711, 0
148, 3682920862, 0.3307217, -0.25795877, 0.048161846, -0.90651155, -1.4318503, -0.27474844, -1.5869665, 0
149, 3682937529, 0.3468631, -0.2892153, 0.04468152, -0.8910928, -1.3175797, -0.50791085, -1.8708935, 0
150, 3682954196, 0.36080563, -0.32387167, 0.03823723, -0.8737657, -1.4612892, -0.6979434, -1.7198772, 0
151, 3682970863, 0.37220252, -0.35948122, 0.027950313, -0.85525405, -1.6685468, -1.284472, -1.1397877, 0
152, 3682987530, 0.38108584, -0.39343643, 0.014577365, -0.8365231, -1.4599633, -1.7125671, -0.31177616, 0
153, 3683004197, 0.38875332, -0.42319772, -0.0010617431, -0.8183981, -0.9991543, -1.7503717, 0.62022495, 0
154, 3683020864, 0.39668274, -0.44788238, -0.017973844, -0.80107623, -0.41366187, -1.5636675, 1.0861378, 0
155, 3683037531, 0.40530354, -0.46783447, -0.035160024, -0.7846183, 0.22202641, -1.4714879, 1.3512735, 0
156, 3683054198, 0.41392958, -0.4837957, -0.05227911, -0.76933295, 0.8058871, -1.3119625, 1.3865223, 0
157, 3683070865, 0.42158735, -0.4965192, -0.06928988, -0.7556017, 1.291216, -1.1293584, 1.3178749, 0
158, 3683087532, 0.42818022, -0.5068718, -0.085692935, -0.7432373, 1.7401981, -1.1661116, 1.2303467, 0
159, 3683104199, 0.4339658, -0.51580644, -0.10032765, -0.7318154, 2.088037, -1.1273901, 1.3237991, 0
160, 3683120866, 0.43831035, -0.5238455, -0.113194905, -0.7215671, 2.2211878, -0.6318025, 1.7776566, 0
161, 3683137533, 0.44178733, -0.53045285, -0.12482496, -0.7126462, 2.0894303, -0.0805002, 2.5347376, 0
162, 3683154200, 0.44530702, -0.5349088, -0.13528639, -0.7051767, 1.7404943, 0.55587965, 3.079193, 0
163, 3683170867, 0.4493216, -0.53658473, -0.14432499, -0.6995422, 1.2188051, 1.0266134, 3.6460857, 0
164, 3683187534, 0.45429182, -0.53635097, -0.1503831, -0.6952221, 0.8649154, 1.108413, 3.8907804, 0
165, 3683204201, 0.4598441, -0.5360737, -0.15183152, -0.69146055, 0.6581001, 1.2143629, 3.8976402, 0
166, 3683220868, 0.46444362, -0.53735685, -0.14738292, -0.68834585, 0.7003508, 1.3919184, 3.925436, 0
167, 3683237535, 0.46759397, -0.54091084, -0.1355962, -0.68584794, 0.7587302, 1.4134241, 3.8008146, 0
168, 3683254202, 0.46886593, -0.5468904, -0.11641237, -0.68375874, 0.6100668, 1.3155463, 3.6335974, 0
169, 3683270869, 0.468019, -0.55497384, -0.090302765, -0.6817696, 0.45593375, 1.3717881, 3.58745, 0
170, 3683287536, 0.46342108, -0.5659028, -0.058768164, -0.6793697, 0.20965818, 1.3711885, 3.1760073, 0
171, 3683304203, 0.45460147, -0.5795086, -0.02383, -0.67597467, -0.33496594, 1.6127607, 3.2092133, 0
172, 3683320870, 0.4434782, -0.59378713, 0.011921838, -0.6712705, -0.9513438, 1.7389845, 3.3223772, 0
173, 3683337537, 0.4329842, -0.60734427, 0.04612597, -0.66447896, -1.6672872, 1.974062, 3.3916187, 0
174, 3683354204, 0.4266388, -0.6182307, 0.07649716, -0.65568304, -2.1305566, 2.5500436, 4.118948, 0
175, 3683370871, 0.42643547, -0.6246161, 0.101885706, -0.6462422, -1.9847844, 2.1100345, 4.101322, 0
176, 3683387538, 0.43074262, -0.62745875, 0.12313755, -0.63686395, -1.90065, 1.2114264, 3.1971493, 0
177, 3683404205, 0.4369263, -0.6291395, 0.14198612, -0.62699354, -1.8539257, 0.43907085, 1.8774643, 0
178, 3683420872, 0.4439591, -0.6314039, 0.15962383, -0.6154282, -1.9373223, -0.047244605, 1.151495, 0
179, 3683437539, 0.45124763, -0.6356657, 0.17652816, -0.600953, -2.263907, -0.34400567, 0.79433346, 0
180, 3683454206, 0.45868328, -0.6414749, 0.1923198, -0.5840675, -2.3331556, -0.6559171, 1.0600691, 0
181, 3683470873, 0.46779564, -0.6463101, 0.20629984, -0.5664742, -2.2741942, -1.129584, 1.5813942, 0
182, 3683487540, 0.47982794, -0.6480016, 0.2180704, -0.5498241, -2.073571, -1.8041289, 1.7169914, 0
183, 3683504207, 0.49417862, -0.6463459, 0.2282393, -0.53472745, -1.9374208, -2.4350715, 0.79848003, 0
184, 3683520874, 0.51028794, -0.6422943, 0.23695093, -0.5205004, -2.1674547, -2.6058035, -0.6821213, 0
185, 3683537541, 0.52734613, -0.63737833, 0.24332613, -0.50640845, -2.3132253, -3.0598402, -1.8585172, 0
186, 3683554208, 0.5441144, -0.633672, 0.2468713, -0.49138182, -2.4138784, -3.5378497, -2.5915465, 0
187, 3683570875, 0.55965954, -0.63234824, 0.24807842, -0.4747381, -2.3320026, -3.759973, -2.7047305, 0
188, 3683587542, 0.57437325, -0.63262504, 0.2477389, -0.45662737, -1.9721726, -3.7171743, -2.791297, 0
189, 3683604209, 0.5899056, -0.63247955, 0.24536529, -0.43792605, -1.5620198, -3.4589248, -3.18436, 0
190, 3683620876, 0.6070528, -0.63049114, 0.24009499, -0.4199097, -1.107456, -3.214007, -4.0844893, 0
191, 3683637543, 0.6255388, -0.626538, 0.23139793, -0.4032473, -0.738533, -2.7940304, -4.874543, 0
192, 3683654210, 0.64459604, -0.6208875, 0.21915993, -0.38854304, -0.21179643, -2.295537, -4.900237, 0
193, 3683670877, 0.6638118, -0.6135077, 0.20436591, -0.37576443, 0.2992225, -1.7315304, -4.4564104, 0
194, 3683687544, 0.6828074, -0.60444444, 0.18921392, -0.36417234, 0.936365, -1.457139, -3.8883247, 0
195, 3683704211, 0.70037615, -0.5947237, 0.17630574, -0.35312253, 1.5488547, -1.0510786, -3.220015, 0
196, 3683720878, 0.71556234, -0.58574593, 0.16697453, -0.34204388, 1.7964622, -0.7209305, -2.512238, 0
197, 3683737545, 0.72754866, -0.57919365, 0.16049978, -0.33083162, 1.6559328, -0.25532487, -2.0986977, 0
198, 3683754212, 0.73657715, -0.5746786, 0.15568413, -0.3208788, 2.009664, 0.28693765, -1.2775116, 0
199, 3683770879, 0.7421861, -0.5732282, 0.15184352, -0.31227386, 2.08543, 0.57340324, -1.4849281, 0
200, 3683787546, 0.7437457, -0.5766988, 0.14864905, -0.3035892, 1.322347, 0.6369719, -0.95434856, 0
201, 3683804213, 0.7419044, -0.5846322, 0.14496377, -0.29456872, 1.1247948, 0.2754815, -0.8396721, 0
202, 3683820880, 0.73780006, -0.59590894, 0.14031668, -0.28435352, 0.6934369, -0.037783526, -0.5495014, 0
203, 3683837547, 0.7334944, -0.60741675, 0.1344156, -0.27379793, 0.95144796, -0.44143406, 0.3526497, 0
204, 3683854214, 0.7320954, -0.61497897, 0.12784907, -0.2636172, 1.1794682, -0.8223091, 1.5055485, 0
205, 3683870881, 0.73576576, -0.6159564, 0.121852055, -0.25377268, 1.2722632, -0.6745272, 2.0082178, 0
206, 3683887548, 0.7441536, -0.6107717, 0.11669001, -0.2440878, 1.1654453, -0.12967417, 1.217166, 0
207, 3683904215, 0.75437367, -0.602933, 0.111517385, -0.23443203, 0.9508611, 0.34570658, -0.13505363, 0
208, 3683920882, 0.7634716, -0.59597594, 0.10635509, -0.22497688, 1.1484536, 0.68783164, -0.97799015, 0
209, 3683937549, 0.7702906, -0.5912651, 0.10177946, -0.21610497, 1.2573693, 0.8302749, -1.093585, 0
210, 3683954216, 0.7752631, -0.5884744, 0.09776772, -0.20762643, 1.2972391, 0.6160674, -0.69194317, 0
211, 3683970883, 0.77923846, -0.5864573, 0.094858535, -0.19964746, 1.4184262, 0.37272885, -0.31469727, 0
212, 3683987550, 0.78270924, -0.5846974, 0.09253806, -0.19218212, 1.2613654, 0.26034433, -0.1240139, 0
213, 3684004217, 0.7861695, -0.58275545, 0.089701116, -0.18517424, 0.9365959, 0.15739469, 0.117723465, 0
214, 3684020884, 0.78996664, -0.5803386, 0.086208776, -0.17812918, 0.87003094, 0.09890448, 0.17304802, 0
215, 3684037551, 0.79418254, -0.57735723, 0.08248343, -0.17067903, 0.91954136, 0.048430786, 0.089035034, 0
216, 3684054218, 0.7985869, -0.5740597, 0.078558594, -0.16292672, 0.8303719, 0.09230236, -0.055451393, 0
217, 3684070885, 0.8028335, -0.57094514, 0.074390635, -0.1547522, 0.6809604, 0.21659166, -0.32358742, 0
218, 3684087552, 0.8065253, -0.5685422, 0.0699576, -0.14623608, 0.5766899, 0.3691473, -0.55339813, 0
219, 3684104219, 0.8095306, -0.5670468, 0.06474429, -0.1375811, 0.39261553, 0.5005179, -0.5922613, 0
220, 3684120886, 0.8121484, -0.5660776, 0.05830405, -0.12873992, 0.15929782, 0.41257676, -0.49037457, 0
221, 3684137553, 0.8144376, -0.56549984, 0.051053163, -0.119568825, 0.15434156, 0.4490192, -0.44346142, 0
222, 3684154220, 0.8162414, -0.5653536, 0.04402408, -0.11040431, 0.288651, 0.49674815, -0.4259882, 0
223, 3684170887, 0.81746453, -0.5656778, 0.037464764, -0.10177876, 0.19040549, 0.53354377, -0.46026134, 0
224, 3684187554, 0.8181448, -0.56646526, 0.031330653, -0.09368459, 0.057611946, 0.53845835, -0.51101494, 0
225, 3684204221, 0.81846213, -0.56752753, 0.025624631, -0.08589466, -0.029466705, 0.5097629, -0.4568987, 0
226, 3684220888, 0.81891066, -0.5682207, 0.020213844, -0.07812972, -0.12222214, 0.41287982, -0.22560596, 0
227, 3684237555, 0.81986153, -0.56802315, 0.015242844, -0.07033268, -0.15013768, 0.44657174, -0.08235073, 0
228, 3684254222, 0.82110095, -0.56724066, 0.010865801, -0.06257394, -0.13477936, 0.5803863, -0.058229446, 0
229, 3684270889, 0.8221451, -0.5665619, 0.007185932, -0.055096872, -0.15197292, 0.7019362, -0.13556385, 0
230, 3684287556, 0.8226149, -0.56654567, 0.003926945, -0.04813902, -0.35818332, 0.78663105, -0.16725159, 0
231, 3684304223, 0.82264, -0.56704515, 8.389307E-4, -0.041530143, -0.50739896, 0.8925905, -0.118857384, 0
232, 3684320890, 0.8223437, -0.5679082, -0.0020281244, -0.035061028, -0.5566664, 0.977525, -0.0766201, 0
233, 3684337557, 0.82215685, -0.56852007, -0.0044292836, -0.02873234, -0.48156804, 1.0387188, 0.097720146, 0
234, 3684354224, 0.82200104, -0.5690023, -0.006234793, -0.022670766, -0.4498015, 1.1627283, 0.09502506, 0
235, 3684370891, 0.8216106, -0.5697528, -0.0074407198, -0.016871652, -0.49736148, 1.1737537, 0.13453388, 0
236, 3684387558, 0.821026, -0.5707217, -0.008099855, -0.011385105, -0.41882282, 1.159034, 0.34387493, 0
237, 3684404225, 0.82044125, -0.5716376, -0.008322847, -0.006320659, -0.29191652, 1.1149944, 0.46383953, 0
238, 3684420892, 0.8199132, -0.5724259, -0.00839698, -0.0016273484, -0.2509516, 1.0750437, 0.4028015, 0
239, 3684437559, 0.8193624, -0.5732075, -0.008591797, 0.002645973, -0.22528718, 0.94928634, 0.4601431, 0
240, 3684454226, 0.818886, -0.57385695, -0.00885525, 0.006132357, 0.001343243, 0.78986347, 0.5928898, 0
241, 3684470893, 0.81842935, -0.5744711, -0.009510576, 0.008234579, 0.16877697, 0.6296588, 0.84702873, 0
242, 3684487560, 0.8176882, -0.57547086, -0.011800861, 0.009062748, 0.3649124, 0.45617384, 1.5192146, 0
243, 3684504227, 0.8169907, -0.5763639, -0.015886616, 0.008993715, 0.834377, 0.2483962, 2.3092232, 0
244, 3684520894, 0.8162532, -0.57727104, -0.02025042, 0.008997776, 1.402452, 0.3722604, 2.5252447, 0
245, 3684537561, 0.8153173, -0.57844555, -0.023635168, 0.010099135, 1.3604714, 0.4423612, 2.313447, 0
246, 3684554228, 0.8141961, -0.57985383, -0.026504532, 0.0124047585, 0.9185542, 0.59630483, 1.4409122, 0
247, 3684570895, 0.8123284, -0.5822602, -0.029249843, 0.015569931, 0.5447136, 0.82918924, 0.20959854, 0
248, 3684587562, 0.8093931, -0.5860957, -0.032107443, 0.018599046, 0.2562797, 0.68950933, -0.2381239, 0
249, 3684604229, 0.8057948, -0.5907706, -0.035473205, 0.020704772, 0.15662265, 0.5447829, -0.032170296, 0
250, 3684620896, 0.8021721, -0.59539723, -0.0392723, 0.021956807, 0.13681921, 0.36788356, 0.44100285, 0
251, 3684637563, 0.79948676, -0.598682, -0.04306432, 0.023417186, 0.27815646, 0.23080485, 1.1433191, 0
252, 3684654230, 0.7982605, -0.59998786, -0.046267856, 0.025613224, 0.45107523, 0.2627055, 1.4544058, 0
253, 3684670897, 0.79881215, -0.5989556, -0.048599347, 0.028139088, 0.56801724, 0.36698413, 1.7150621, 0
254, 3684687564, 0.8013361, -0.5953789, -0.049948484, 0.029862309, 0.7617557, 0.5307279, 2.0709677, 0
255, 3684704231, 0.80581594, -0.5892727, -0.05040214, 0.029668747, 0.8126435, 0.6822085, 1.9488049, 0
256, 3684720898, 0.81107485, -0.5821648, -0.04950411, 0.028161926, 0.7058028, 0.9176168, 1.2308617, 0
257, 3684737565, 0.81604373, -0.5754652, -0.04726755, 0.026086772, 0.3229851, 0.93347144, 0.46764755, 0
258, 3684754232, 0.82059747, -0.56923896, -0.04476845, 0.024179913, -0.012444754, 0.8079497, -0.40253258, 0
259, 3684770899, 0.8249677, -0.56312776, -0.042489786, 0.022633076, -0.11557436, 0.6665297, -0.96280766, 0
260, 3684787566, 0.8291966, -0.55710626, -0.04028536, 0.02109699, -0.11118789, 0.66934556, -1.2596569, 0
261, 3684804233, 0.83377767, -0.55047834, -0.037943717, 0.018726954, -0.06897512, 0.6416849, -1.3523903, 0
262, 3684820900, 0.83857983, -0.54339486, -0.035710454, 0.0152536575, -0.049119152, 0.61954236, -1.6395426, 0
263, 3684837567, 0.8426972, -0.5372376, -0.03338224, 0.0111840535, -0.004884401, 0.74287724, -1.6339407, 0
264, 3684854234, 0.8459595, -0.53230155, -0.031032179, 0.0068473704, -0.1028791, 0.7220226, -1.3760996, 0
265, 3684870901, 0.84863853, -0.5281829, -0.028835284, 0.0024223384, -0.0382132, 0.8090358, -1.0879126, 0
266, 3684887568, 0.85116833, -0.52423096, -0.026269991, -0.0025460422, 0.014706175, 0.7244683, -0.973979, 0
267, 3684904235, 0.8534193, -0.52062005, -0.024019124, -0.0074564796, 0.17422304, 0.523527, -1.0046988, 0
268, 3684920902, 0.85530555, -0.51753545, -0.021722483, -0.011825079, 0.14648849, 0.40577146, -1.0013275, 0
269, 3684937569, 0.8565174, -0.5155196, -0.01936623, -0.015642103, 0.12526831, 0.49003473, -0.95254993, 0
270, 3684954236, 0.85728216, -0.5142057, -0.016886933, -0.019411022, 0.027917663, 0.3681522, -0.61404324, 0
271, 3684970903, 0.85809517, -0.5127549, -0.014180574, -0.02358811, -0.08851915, 0.1614452, -0.2659855, 0
272, 3684987570, 0.8594473, -0.51033014, -0.010867155, -0.028240075, -0.1486799, -0.005345536, 0.056912422, 0
273, 3685004237, 0.8613554, -0.5069022, -0.0064821364, -0.032817464, -0.25068948, -0.026253385, 0.34404373, 0
274, 3685020904, 0.86393553, -0.5022188, -0.0013705743, -0.037310082, -0.4785667, -0.048545226, 0.5577259, 0
275, 3685037571, 0.86704314, -0.4964483, 0.004019687, -0.041967697, -0.33235145, 0.12735902, 0.3476658, 0
276, 3685054238, 0.8697801, -0.49111786, 0.009771556, -0.046822816, -0.28933495, 0.37400958, 0.15721226, 0
277, 3685070905, 0.87204003, -0.4864133, 0.015873712, -0.051946715, -0.3660111, 0.4955412, 0.27504158, 0
278, 3685087572, 0.8739813, -0.48202172, 0.02191256, -0.05773838, -0.4138792, 0.52813745, 0.4437151, 0
279, 3685104239, 0.8758956, -0.47733173, 0.027637897, -0.06480557, -0.59246814, 0.4527796, 0.7118101, 0
280, 3685120906, 0.8777693, -0.4723844, 0.033210278, -0.07261702, -0.5288522, 0.525061, 0.96301746, 0
281, 3685137573, 0.87963796, -0.4671228, 0.039041243, -0.080693126, -0.075869784, 0.60691947, 1.1644154, 0
282, 3685154240, 0.8816249, -0.46126613, 0.044893935, -0.08920803, 0.23516935, 0.75023466, 1.1312532, 0
283, 3685170907, 0.8835857, -0.4549634, 0.050296802, -0.09877781, 0.6070634, 0.74035, 0.9348068, 0
284, 3685187574, 0.8853533, -0.44841397, 0.054854773, -0.109853335, 0.9000119, 0.878823, 0.9114561, 0
285, 3685204241, 0.8865968, -0.44250506, 0.058417656, -0.121346734, 1.0984058, 1.0119326, 1.1418695, 0
286, 3685220908, 0.8873309, -0.4375401, 0.060905166, -0.13227038, 1.244052, 1.3019801, 1.5292892, 0
287, 3685237575, 0.88733643, -0.4339586, 0.06349373, -0.14242491, 1.4470325, 1.5629039, 1.4518833, 0
288, 3685254242, 0.88613224, -0.43281332, 0.06695329, -0.15153147, 1.1044797, 1.8768991, 0.5038185, 0
289, 3685270909, 0.88326526, -0.43520933, 0.07069269, -0.15949932, 0.99091834, 1.3034173, 1.3659163, 0
290, 3685287576, 0.88083977, -0.43655285, 0.07533054, -0.16694486, 0.8847961, 1.074176, 0.92006207, 0
291, 3685304243, 0.8791847, -0.43595356, 0.08119347, -0.17432286, 1.0773246, 0.9988018, 0.4179392, 0
292, 3685320910, 0.8777006, -0.4348084, 0.087297186, -0.18156143, 1.0089861, 1.3179879, -0.28467178, 0
293, 3685337577, 0.8757297, -0.43459633, 0.09274364, -0.18874426, 0.94175196, 1.4771551, -0.8300123, 0
294, 3685354244, 0.8727826, -0.43674028, 0.09656214, -0.19541346, 0.8747716, 1.454148, -0.8731775, 0
295, 3685370911, 0.8688432, -0.44103166, 0.09886314, -0.20206627, 1.0918545, 1.2159017, -0.67190266, 0
296, 3685387578, 0.8639468, -0.44700828, 0.10018534, -0.20915237, 0.9376614, 1.0964916, -0.818738, 0
297, 3685404245, 0.8580508, -0.4555512, 0.101126224, -0.21447006, 0.31702653, 0.9165464, -1.2809963, 0
298, 3685420912, 0.8519223, -0.46525842, 0.10150714, -0.21785668, 0.016501347, 0.17742011, -0.9057188, 0
299, 3685437579, 0.8463094, -0.47409838, 0.10248203, -0.22020619, 0.24383682, -0.011686374, -0.86092377, 0
300, 3685454246, 0.8417803, -0.48008952, 0.10536494, -0.22320527, 0.55122334, -0.24837117, -0.48234272, 0
301, 3685470913, 0.83862567, -0.4827292, 0.109969206, -0.22713104, 0.019628294, -0.13564688, -0.4515581, 0
302, 3685487580, 0.83693916, -0.48259658, 0.11487425, -0.23117012, -0.5319262, 0.21275327, -0.6043539, 0
303, 3685504247, 0.8363373, -0.4804655, 0.119082876, -0.23561436, -0.5116214, 0.53312665, -0.79867077, 0
304, 3685520914, 0.836441, -0.47685003, 0.12240814, -0.24082953, -0.5723303, 0.83540493, -1.0207577, 0
305, 3685537581, 0.8361089, -0.47380605, 0.1252254, -0.24647646, -0.22064623, 1.2671269, -1.353816, 0
306, 3685554248, 0.83484584, -0.47211364, 0.1278411, -0.25258628, 0.07088121, 1.3273776, -1.1830196, 0
307, 3685570915, 0.83318913, -0.47089976, 0.13033582, -0.25896704, 0.05412545, 1.1126889, -0.7393093, 0
308, 3685587582, 0.8317873, -0.4693293, 0.13295406, -0.2649254, -0.07379537, 0.9135659, -0.38506985, 0
309, 3685604249, 0.83072746, -0.4674179, 0.13597612, -0.27004611, -0.07787046, 0.92263913, -0.23515987, 0
310, 3685620916, 0.82982165, -0.465478, 0.13930139, -0.27445146, -0.111994185, 1.0498288, -0.06303501, 0
311, 3685637583, 0.82940996, -0.4631438, 0.14248168, -0.27798924, -0.24551815, 1.154596, 0.15116405, 0
312, 3685654250, 0.8293734, -0.46080855, 0.14550154, -0.28040424, -0.24996516, 1.397318, 0.2900753, 0
313, 3685670917, 0.8294787, -0.45856038, 0.14846423, -0.28221983, -0.16337378, 1.6181784, 0.3051672, 0
314, 3685687584, 0.82953334, -0.45636266, 0.15122765, -0.2841475, -0.063937, 1.6540055, 0.36682415, 0
315, 3685704251, 0.8294644, -0.4542522, 0.15367411, -0.28640902, 0.076180145, 1.5463717, 0.55694675, 0
316, 3685720918, 0.8294208, -0.45197994, 0.15581946, -0.28895962, 0.2091975, 1.2929858, 0.8105993, 0
317, 3685737585, 0.8295737, -0.44938287, 0.1576401, -0.29157186, 0.22114909, 1.0519933, 0.8990383, 0
318, 3685754252, 0.82907414, -0.44811788, 0.15870646, -0.294348, 0.21497521, 1.092509, 0.67652607, 0
319, 3685770919, 0.82762975, -0.44882864, 0.15812148, -0.29762703, 0.011170954, 0.82099485, 1.2323532, 0
320, 3685787586, 0.8259142, -0.4503651, 0.15575822, -0.30129474, 0.31016892, 0.42346764, 1.7776852, 0
321, 3685804253, 0.8240698, -0.45280567, 0.1523699, -0.30440366, 0.5132635, 0.37105563, 2.1574135, 0
322, 3685820920, 0.82167464, -0.45761248, 0.14830963, -0.305693, 0.6721199, 0.38251516, 2.34309, 0
323, 3685837587, 0.8181852, -0.4652536, 0.14393783, -0.30560777, 0.9001954, 0.18055555, 2.605136, 0
324, 3685854254, 0.8139022, -0.47404152, 0.14053044, -0.305125, 0.90880996, -0.012570816, 2.3348236, 0
325, 3685870921, 0.8100072, -0.48176616, 0.13829078, -0.30441338, 0.50334996, -0.3548353, 2.0129051, 0
326, 3685887588, 0.80774105, -0.48655024, 0.13684537, -0.30347785, 0.036925346, -0.4738497, 1.622509, 0
327, 3685904255, 0.80762196, -0.4879294, 0.13551594, -0.30217412, -0.4920478, -0.42046764, 0.934432, 0
328, 3685920922, 0.80880135, -0.4875986, 0.13390419, -0.30026606, -0.59748614, -0.22065422, 0.10791397, 0
329, 3685937589, 0.81010973, -0.4876976, 0.13181534, -0.29748985, -0.7068041, 0.02697712, -0.31306458, 0
330, 3685954256, 0.8108426, -0.48914653, 0.12920126, -0.2942436, -0.4551073, -0.06231854, -0.16509533, 0
331, 3685970923, 0.8109979, -0.4912041, 0.1259936, -0.2917686, -0.011972583, -0.4353384, 0.2810135, 0
332, 3685987590, 0.8106294, -0.4934206, 0.122494385, -0.29053962, 0.19275042, -0.6568228, 0.5654869, 0
333, 3686004257, 0.80991626, -0.49580318, 0.119321935, -0.28979185, 0.3771571, -0.8268969, 0.8447113, 0
334, 3686020924, 0.8093051, -0.497547, 0.11730092, -0.28933555, 0.71218944, -0.8980156, 0.8189621, 0
335, 3686037591, 0.8091969, -0.49787727, 0.11710535, -0.289149, 0.68192685, -0.75703794, 0.4251566, 0
336, 3686054258, 0.8101797, -0.49602467, 0.118192144, -0.28913853, 0.41221622, -0.58773226, -0.15506458, 0
337, 3686070925, 0.81210095, -0.49244887, 0.119609974, -0.28927806, 0.19401361, -0.1963454, -1.12574, 0
338, 3686087592, 0.814215, -0.48834467, 0.120854594, -0.28977546, -0.021162039, 0.2829846, -1.8584404, 0
339, 3686104259, 0.81582034, -0.48489314, 0.121555045, -0.29076162, -0.06610714, 0.71008503, -2.2937503, 0
340, 3686120926, 0.81642175, -0.48331845, 0.12183145, -0.2915785, -0.2887503, 1.0702968, -2.396741, 0
341, 3686137593, 0.81632555, -0.48299927, 0.12179838, -0.29238936, -0.23447905, 1.0084757, -1.6643734, 0
342, 3686154260, 0.8161698, -0.48258537, 0.12190886, -0.29346, -0.21116878, 0.7570478, -1.1773119, 0
343, 3686170927, 0.8162129, -0.4817384, 0.12218129, -0.29461628, -0.39879885, 0.5834171, -0.7642603, 0
344, 3686187594, 0.8163116, -0.48077336, 0.12237839, -0.29583448, -0.46496144, 0.49232617, -0.602725, 0
345, 3686204261, 0.8163213, -0.47998244, 0.122430384, -0.29706818, -0.44090965, 0.5201075, -0.36436558, 0
346, 3686220928, 0.8165494, -0.47907987, 0.12241453, -0.29790345, -0.41304246, 0.53455025, -0.12534142, 0
347, 3686237595, 0.817213, -0.4781335, 0.12215851, -0.29770944, -0.4886014, 0.6891304, -0.036953926, 0
348, 3686254262, 0.8180782, -0.47786817, 0.12166605, -0.29595545, -0.5982531, 0.9099885, -0.04175377, 0
349, 3686270929, 0.81908953, -0.47855097, 0.1205507, -0.29249102, -0.64863414, 1.0758168, 0.0178051, 0
350, 3686287596, 0.8199858, -0.4805384, 0.11834825, -0.28757957, -0.57685375, 1.1833022, 0.0058937073, 0
351, 3686304263, 0.8204239, -0.4843426, 0.11451876, -0.28143317, -0.64039695, 1.1336197, -0.02744484, 0
352, 3686320930, 0.8201953, -0.48995537, 0.109000996, -0.2744891, -0.5942412, 0.9288684, -0.08111, 0
353, 3686337597, 0.8196755, -0.4963612, 0.10235509, -0.26698917, -0.7201442, 0.4955745, 0.37566185, 0
354, 3686354264, 0.8196248, -0.5016034, 0.09534365, -0.25984818, -0.5909069, 0.08274941, 1.0316181, 0
355, 3686370931, 0.820727, -0.5044336, 0.08863513, -0.2531793, -0.6500311, -0.0937999, 1.4359121, 0
356, 3686387598, 0.8230288, -0.50480926, 0.08269881, -0.24688925, -0.37944832, -0.19048803, 2.0385075, 0
357, 3686404265, 0.8263117, -0.50261617, 0.07779557, -0.24194238, -0.036697865, -0.30654132, 2.2486496, 0
358, 3686420932, 0.8298756, -0.49868312, 0.07341131, -0.23923746, 0.32448667, -0.35802528, 2.327898, 0
359, 3686437599, 0.8328065, -0.49441108, 0.06893077, -0.2392526, 0.5781218, -0.54383653, 2.5003061, 0
360, 3686454266, 0.8346775, -0.4912524, 0.064336754, -0.24051544, 0.9842698, -0.71647483, 2.4237146, 0
361, 3686470933, 0.83572453, -0.4888419, 0.062157907, -0.24235637, 1.1164966, -0.41716146, 2.1418924, 0
362, 3686487600, 0.83659726, -0.48656455, 0.063093334, -0.24368262, 0.7852312, -0.13434112, 1.251996, 0
363, 3686504267, 0.8375801, -0.48402378, 0.06623304, -0.24453226, 0.4582698, 0.08528405, 0.72903347, 0
364, 3686520934, 0.8390573, -0.4803499, 0.07006094, -0.24564259, 0.23741636, 0.21583886, 0.3448019, 0
365, 3686537601, 0.8411015, -0.4750632, 0.07357597, -0.247895, 0.28261063, 0.18096682, 0.20402622, 0
366, 3686554268, 0.8435422, -0.4680329, 0.0767844, -0.2519685, 0.47712523, 0.01343447, 0.122341156, 0
367, 3686570935, 0.8460626, -0.4599171, 0.08004069, -0.25739098, 0.5918521, -0.12939076, -0.22434235, 0
368, 3686587602, 0.84813714, -0.45282707, 0.08369487, -0.2619318, 0.6771912, -0.12394598, -0.45604324, 0
369, 3686604269, 0.84947395, -0.44753313, 0.08722564, -0.26552218, 0.67068166, -0.19864804, -0.2769165, 0
370, 3686620936, 0.850081, -0.44384518, 0.09054653, -0.2686393, 0.72411954, -0.14720564, -0.5187645, 0
371, 3686637603, 0.8502042, -0.44121924, 0.09381713, -0.27143893, 0.390385, -0.09608152, -0.9742069, 0
372, 3686654270, 0.85016453, -0.4389365, 0.09714927, -0.2740789, 0.043973155, -0.14134938, -1.2021227, 0
373, 3686670937, 0.8501764, -0.43636063, 0.10087501, -0.27679586, -0.25734934, -0.19280183, -1.331397, 0
374, 3686687604, 0.8504124, -0.4336637, 0.10504441, -0.27875108, -0.5074307, -0.07167055, -1.6672745, 0
375, 3686704271, 0.8508271, -0.43170828, 0.10923738, -0.2789094, -0.76400596, 0.1148984, -1.5987883, 0
376, 3686720938, 0.8511212, -0.43046162, 0.11283486, -0.27850637, -0.62066495, 0.34349114, -1.4647093, 0
377, 3686737605, 0.8513873, -0.42936876, 0.11587182, -0.27813256, -0.4584634, 0.57608473, -1.1736317, 0
378, 3686754272, 0.85174036, -0.42815468, 0.1184843, -0.27782273, -0.34785506, 0.8047401, -1.0900688, 0
379, 3686770939, 0.85222125, -0.42687997, 0.12035431, -0.27750564, -0.3076634, 0.7728253, -1.0085878, 0
380, 3686787606, 0.8528464, -0.42550293, 0.12148917, -0.2772054, -0.3953036, 0.6562919, -1.0643063, 0
381, 3686804273, 0.8535861, -0.42407745, 0.122117184, -0.27683726, -0.40948573, 0.5979801, -1.0106363, 0
382, 3686820940, 0.85447127, -0.42258772, 0.12238028, -0.2762675, -0.46762806, 0.63294756, -0.9302721, 0
383, 3686837607, 0.8556894, -0.42091113, 0.12199866, -0.27522367, -0.50664324, 0.55828106, -0.7259779, 0
384, 3686854274, 0.85723627, -0.4186453, 0.12132219, -0.27416307, -0.4538083, 0.6048303, -0.16749, 0
385, 3686870941, 0.8580452, -0.41789094, 0.12031018, -0.27322748, -0.27905962, 1.4148875, -0.45137978, 0
386, 3686887608, 0.85752296, -0.42018226, 0.11929569, -0.27179438, -0.3196757, 1.0822077, 0.59187603, 0
387, 3686904275, 0.85799736, -0.42135006, 0.11879759, -0.26868916, -0.3288906, 0.84440714, 0.8934374, 0
388, 3686920942, 0.8588958, -0.42201167, 0.11925995, -0.2645436, 0.014620989, 1.3123304, 0.78138924, 0
389, 3686937609, 0.85942626, -0.42425072, 0.11972892, -0.25896937, -0.16500889, 1.5277877, 0.8110075, 0
390, 3686954276, 0.8595191, -0.42832124, 0.119332336, -0.25205094, -0.033205196, 1.2897298, 1.0132837, 0
391, 3686970943, 0.857964, -0.43545532, 0.11838423, -0.24548684, 0.3478016, 1.4545311, 0.68556213, 0
392, 3686987610, 0.85391957, -0.4467015, 0.117736466, -0.23962355, 0.28999203, 1.4138042, 0.6689682, 0
393, 3687004277, 0.8477964, -0.46108797, 0.117453985, -0.23419206, -0.22155587, 1.2767644, 0.71159554, 0
394, 3687020944, 0.8406656, -0.47716743, 0.11657091, -0.22804852, -0.7030833, 1.0963718, 1.0298939, 0
395, 3687037611, 0.8335679, -0.49275443, 0.11419874, -0.22207755, -0.6074357, 0.84464204, 1.7510242, 0
396, 3687054278, 0.8272405, -0.5062153, 0.110966675, -0.21704307, -0.2570597, 0.76407146, 1.9002943, 0
397, 3687070945, 0.8215159, -0.51772416, 0.10756175, -0.21332106, -0.032190334, 0.8742852, 1.6738338, 0
398, 3687087612, 0.815834, -0.52844924, 0.10428394, -0.21043682, -0.12431595, 0.9746296, 1.047493, 0
399, 3687104279, 0.8095706, -0.53975177, 0.10074936, -0.2076422, -0.5129717, 0.8790103, 0.71380615, 0
400, 3687120946, 0.80241066, -0.55198836, 0.09660819, -0.20521984, -0.61028266, 0.67289203, 0.24052906, 0
401, 3687137613, 0.7947288, -0.56466645, 0.09194638, -0.20274574, -0.73495877, 0.2891578, 0.10850239, 0
402, 3687154280, 0.7872855, -0.5766505, 0.08687184, -0.20027807, -0.6765166, -0.1418069, 0.026081085, 0
403, 3687170947, 0.78062606, -0.5871378, 0.08136459, -0.19817664, -0.64335644, -0.56928927, -0.17668438, 0
404, 3687187614, 0.77423376, -0.5970453, 0.07538138, -0.19600675, -0.6537973, -0.9754472, -0.6080446, 0
405, 3687204281, 0.76779383, -0.6069679, 0.06838817, -0.193411, -0.62707514, -1.3964307, -0.42242432, 0
406, 3687220948, 0.7617089, -0.6164756, 0.0602169, -0.19008756, -0.57644296, -1.6007184, -0.3533249, 0
407, 3687237615, 0.756631, -0.62466526, 0.0509977, -0.1862905, -0.34372073, -1.6704844, -0.10924816, 0
408, 3687254282, 0.75345117, -0.6302601, 0.04112957, -0.1827404, -0.16524489, -1.6136742, -0.18024921, 0
409, 3687270949, 0.7521135, -0.6334906, 0.031065684, -0.17903036, 0.024108052, -1.4662083, -0.5046663, 0
410, 3687287616, 0.75145775, -0.6357155, 0.020463536, -0.17538649, 0.3399545, -1.4402674, -0.5310612, 0
411, 3687304283, 0.75109583, -0.63728565, 0.009565978, -0.17214172, 0.492035, -1.3177358, -0.47266865, 0
412, 3687320950, 0.75135475, -0.6379276, -6.752331E-4, -0.16886769, 0.5269634, -1.1420336, -0.5409422, 0
413, 3687337617, 0.753007, -0.63681364, -0.010312894, -0.16536206, 0.31864458, -0.9363333, -0.7970505, 0
414, 3687354284, 0.7562783, -0.6337245, -0.020021647, -0.16136155, 0.01980554, -0.7773486, -1.3505945, 0
415, 3687370951, 0.76047415, -0.6294213, -0.030727442, -0.15673505, -0.19520305, -0.6273135, -2.0544581, 0
416, 3687387618, 0.7646535, -0.6247806, -0.0429897, -0.15201403, -0.22823833, -0.42027566, -2.527762, 0
417, 3687404285, 0.7684448, -0.61988807, -0.056857638, -0.14832644, -0.0876389, -0.26501596, -2.579979, 0
418, 3687420952, 0.7724221, -0.61389965, -0.071709365, -0.14612128, -0.13437963, -0.16433701, -2.5123682, 0
419, 3687437619, 0.7765346, -0.6070124, -0.086925745, -0.14483096, -0.1244547, -0.13970968, -2.5061502, 0
420, 3687454286, 0.78083557, -0.59902835, -0.10236211, -0.144862, -0.10311921, -0.033203296, -2.0083904, 0
421, 3687470953, 0.7852363, -0.58992475, -0.1182584, -0.1463212, -0.23793222, 0.014491686, -1.7549238, 0
422, 3687487620, 0.78941566, -0.5802464, -0.13473931, -0.14827217, -0.34347302, -0.07234265, -1.3974686, 0
423, 3687504287, 0.79362607, -0.5698706, -0.15162602, -0.14972204, -0.57681555, 0.0034921665, -0.8722992, 0
424, 3687520954, 0.79863924, -0.55755556, -0.16911082, -0.15070039, -0.7421747, 0.12288027, -0.519639, 0
425, 3687537621, 0.80425686, -0.5429919, -0.18780786, -0.15186003, -0.6149856, 0.2574342, -0.39355755, 0
426, 3687554288, 0.80984527, -0.5268514, -0.20787397, -0.15286863, -0.8131179, 0.34678707, -0.015035629, 0
427, 3687570955, 0.815825, -0.5084661, -0.22908534, -0.15301684, -1.0570043, 0.45502856, 0.7430115, 0
428, 3687587622, 0.8209748, -0.48903048, -0.25172397, -0.15325284, -1.0019262, 1.0638757, 0.56747246, 0
429, 3687604289, 0.8260764, -0.46752286, -0.2749194, -0.15310581, -0.9863316, 0.60264367, 1.7367659, 0
430, 3687620956, 0.83061177, -0.44504073, -0.29782662, -0.15272216, -1.2148863, 0.5942874, 2.0180368, 0
431, 3687637623, 0.83433074, -0.42248115, -0.3195372, -0.15264417, -1.2934282, 0.58845776, 2.551138, 0
432, 3687654290, 0.83851075, -0.3981694, -0.33937496, -0.15227455, -1.6862799, 0.32749164, 2.8904858, 0
433, 3687670957, 0.8437172, -0.3711385, -0.35697523, -0.15155295, -1.5363643, 0.42627898, 3.0435085, 0
434, 3687687624, 0.84937656, -0.34197822, -0.37244883, -0.15130952, -1.222131, 0.70598894, 2.5078745, 0
435, 3687704291, 0.8539878, -0.31325334, -0.3861765, -0.15312389, -1.037417, 0.67276525, 2.2876196, 0
436, 3687720958, 0.85739744, -0.28622162, -0.3981571, -0.15626927, -1.2833863, 0.11454279, 2.4356842, 0
437, 3687737625, 0.86078286, -0.25971657, -0.4077772, -0.15912251, -1.7286171, -0.8223024, 2.1914482, 0
438, 3687754292, 0.8648317, -0.23328862, -0.41460615, -0.16045661, -1.9785191, -1.4596485, 1.389082, 0
439, 3687770959, 0.869589, -0.20739457, -0.41849282, -0.16021392, -1.8470092, -1.4427418, 0.35375404, 0
440, 3687787626, 0.874547, -0.183273, -0.41975546, -0.15933043, -1.369781, -0.8800732, -0.64565754, 0
441, 3687804293, 0.87900484, -0.16253293, -0.41910106, -0.15902856, -0.8732032, -0.31793892, -1.2676954, 0
442, 3687820960, 0.882682, -0.1451289, -0.41726285, -0.16032468, -0.3077838, -0.25635317, -1.3296309, 0
443, 3687837627, 0.8852972, -0.13047414, -0.41541377, -0.16327551, 0.021201992, -0.38240182, -1.2722378, 0
444, 3687854294, 0.8867439, -0.11852849, -0.41391405, -0.16826636, 0.53823507, -0.41104212, -1.151864, 0
445, 3687870961, 0.88686186, -0.110115334, -0.41272634, -0.17609619, 1.1226119, -0.41174293, -1.0056028, 0
446, 3687887628, 0.88551784, -0.10653702, -0.4115606, -0.18742451, 1.8711345, -0.5642321, -1.0828171, 0
447, 3687904295, 0.88249344, -0.10858279, -0.41067782, -0.20189266, 2.10959, -1.1944315, -1.354413, 0
448, 3687920962, 0.8776605, -0.11537274, -0.41046, -0.21892007, 1.8384582, -2.0618508, -1.77946, 0
449, 3687937629, 0.8708194, -0.12469769, -0.41166884, -0.2380234, 1.4393915, -2.7829893, -2.154408, 0
450, 3687954296, 0.8618574, -0.13470066, -0.41501778, -0.25849524, 1.2607516, -3.3044512, -2.3420382, 0
451, 3687970963, 0.8523562, -0.14327517, -0.4217151, -0.27407947, 0.71395516, -4.833622, -1.8921771, 0
452, 3687987630, 0.84416926, -0.14698942, -0.43194038, -0.28142846, -0.7459705, -5.379624, -1.759965, 0
453, 3688004297, 0.83701247, -0.14497337, -0.44520327, -0.2831767, -0.7269766, -5.1629972, -1.0132103, 0
454, 3688020964, 0.8311665, -0.13613, -0.46104175, -0.2794163, -1.049183, -5.197219, -0.2933073, 0
455, 3688037631, 0.8266859, -0.12048997, -0.4785793, -0.27025276, -1.1487333, -5.085665, 0.7646818, 0
456, 3688054298, 0.82355404, -0.0979036, -0.49718547, -0.25491652, -1.4148804, -5.1556845, 1.5966482, 0
457, 3688070965, 0.8213102, -0.069349065, -0.5158924, -0.2334471, -1.313462, -4.8216214, 2.1002216, 0
458, 3688087632, 0.8196788, -0.03717009, -0.53315973, -0.20612644, -1.0387434, -4.210514, 2.2577667, 0
459, 3688104299, 0.8183915, -0.004824695, -0.5472899, -0.1751795, -0.8312013, -3.1159103, 2.345786, 0
460, 3688120966, 0.81756985, 0.02395223, -0.5571701, -0.14342079, -0.7403473, -1.9587942, 2.3661604, 0
461, 3688137633, 0.8175418, 0.046687383, -0.562746, -0.11298114, -0.91568744, -1.117508, 2.190917, 0
462, 3688154300, 0.8185056, 0.062234383, -0.56472856, -0.08520281, -0.96238065, -0.63337463, 1.9767914, 0
463, 3688170967, 0.82023823, 0.071359836, -0.5643913, -0.0598476, -0.93190867, -0.5845326, 1.6267385, 0
464, 3688187634, 0.82238054, 0.07576571, -0.56270313, -0.036296997, -0.7206804, -0.49228835, 1.3319683, 0
465, 3688204301, 0.8246132, 0.07700848, -0.5602598, -0.013913332, -0.44841796, -0.46580803, 1.0392904, 0
466, 3688220968, 0.8266563, 0.07669214, -0.5574054, 0.0076854527, -0.15905987, -0.42423484, 0.7601452, 0
467, 3688237635, 0.82833344, 0.07612395, -0.5543106, 0.028476445, 0.14282076, -0.3029923, 0.61905384, 0
468, 3688254302, 0.829535, 0.076184504, -0.551091, 0.048667215, 0.45145774, -0.13279866, 0.7240162, 0
469, 3688270969, 0.830166, 0.077690616, -0.54780793, 0.068536386, 0.80349064, 0.04968682, 1.0459499, 0
470, 3688287636, 0.8300867, 0.08137746, -0.54455024, 0.088322386, 1.0843923, 0.19518581, 1.3899221, 0
471, 3688304303, 0.82916594, 0.08739984, -0.5414426, 0.108108185, 1.3111126, 0.24608207, 1.585886, 0
472, 3688320970, 0.8274951, 0.09536524, -0.5384369, 0.12745774, 1.5385966, 0.3914479, 1.7608013, 0
473, 3688337637, 0.82522106, 0.10411491, -0.5355729, 0.14606154, 1.645809, 0.5307621, 1.7051487, 0
474, 3688354304, 0.8225674, 0.11181676, -0.53310525, 0.16334188, 1.6348162, 0.6479292, 1.4594259, 0
475, 3688370971, 0.8198678, 0.11752262, -0.53093874, 0.17919675, 1.6741121, 0.5130585, 1.230299, 0
476, 3688387638, 0.8173662, 0.12137448, -0.52856916, 0.19441539, 1.8062114, 0.3382939, 0.97345257, 0
477, 3688404305, 0.815224, 0.12379655, -0.5255217, 0.20955497, 1.9015449, 0.46370992, 0.6567707, 0
478, 3688420972, 0.81344706, 0.12505972, -0.5216708, 0.22477952, 1.97454, 0.69929963, 0.28631115, 0
479, 3688437639, 0.81200475, 0.12525381, -0.5171917, 0.23973894, 2.024704, 1.1052899, -0.08463287, 0
480, 3688454306, 0.81088734, 0.12435557, -0.5123174, 0.25402856, 2.1547382, 1.5309938, -0.42832565, 0
481, 3688470973, 0.8101881, 0.12237648, -0.5072238, 0.267106, 2.175297, 2.0032327, -0.7415571, 0
482, 3688487640, 0.8099806, 0.119189486, -0.50231516, 0.27822104, 2.1498377, 2.5137424, -1.0194912, 0
483, 3688504307, 0.81017137, 0.11479845, -0.49809515, 0.2869615, 2.2194555, 2.8944397, -1.2113504, 0
484, 3688520974, 0.810608, 0.10956433, -0.49480557, 0.29339367, 2.3332121, 2.915927, -1.3903236, 0
485, 3688537641, 0.81120497, 0.1044732, -0.49255905, 0.29735413, 2.495728, 2.787829, -1.5493727, 0
486, 3688554308, 0.81183416, 0.10020378, -0.4914337, 0.2989648, 2.6241298, 2.6282141, -1.6640129, 0
487, 3688570975, 0.81232584, 0.096850015, -0.49148783, 0.2986447, 2.7930665, 2.397125, -1.5594492, 0
488, 3688587642, 0.81276715, 0.09453317, -0.49235728, 0.29674837, 2.9426887, 2.1554925, -1.2766104, 0
489, 3688604309, 0.81327224, 0.0930219, -0.49363667, 0.2937012, 3.158267, 1.9400837, -0.9420042, 0
490, 3688620976, 0.81375587, 0.09199036, -0.49506566, 0.29026142, 3.4020717, 1.6129811, -0.6355362, 0
491, 3688637643, 0.8141867, 0.09098062, -0.49663293, 0.28667143, 3.664226, 1.3637602, -0.5135336, 0
492, 3688654310, 0.8144327, 0.089658, -0.49844968, 0.28321555, 3.9239469, 1.0929899, -0.32473564, 0
493, 3688670977, 0.814287, 0.08819371, -0.50050956, 0.28044727, 4.1228514, 0.7375896, -0.1343975, 0
494, 3688687644, 0.81348, 0.08687642, -0.5028234, 0.27905825, 4.147455, 0.5638823, 0.109926224, 0
495, 3688704311, 0.81170255, 0.085975654, -0.50557345, 0.27954388, 3.9511173, 0.34332585, 0.32958698, 0
496, 3688720978, 0.8091438, 0.085922725, -0.5086822, 0.28133297, 3.4959378, 0.39483654, 0.72934437, 0
497, 3688737645, 0.8060454, 0.086548425, -0.511782, 0.28439674, 2.90642, 0.578269, 1.0222483, 0
498, 3688754312, 0.8026976, 0.087106586, -0.5147149, 0.28837436, 2.4041264, 0.7590556, 0.95161915, 0
499, 3688770979, 0.7993284, 0.08729388, -0.5176386, 0.29241496, 1.9339794, 0.81678665, 0.93695736, 0
500, 3688787646, 0.79589087, 0.0875451, -0.52055275, 0.2965136, 1.4975774, 0.7292842, 0.96953297, 0
501, 3688804313, 0.79236966, 0.08801074, -0.5233545, 0.30084333, 1.0348909, 0.6939294, 0.9166107, 0
502, 3688820980, 0.788921, 0.08845166, -0.5260321, 0.3050778, 0.52867204, 0.7997482, 0.6887531, 0
503, 3688837647, 0.78541183, 0.08787009, -0.52895, 0.30922684, 0.17315415, 0.8361654, 0.31077957, 0
504, 3688854314, 0.7819481, 0.085723184, -0.53250587, 0.3124874, -0.15026464, 0.7852697, -0.120809555, 0
505, 3688870981, 0.7785784, 0.082476005, -0.53678787, 0.31444353, -0.4379571, 0.6282899, -0.28612995, 0
506, 3688887648, 0.77520376, 0.07908031, -0.5413423, 0.31584197, -0.6874503, 0.34868932, -0.30090332, 0
507, 3688904315, 0.7720571, 0.07647521, -0.5454275, 0.31715995, -0.87812585, 0.20310338, -0.29128265, 0
508, 3688920982, 0.7692779, 0.07495235, -0.54861116, 0.31878203, -1.0479078, 0.088497214, -0.34576035, 0
509, 3688937649, 0.7670471, 0.07432169, -0.5508971, 0.32035872, -1.2460749, 0.040035248, -0.43991566, 0
510, 3688954316, 0.7655166, 0.074274756, -0.5523508, 0.32152474, -1.3750663, 0.040003736, -0.38121128, 0
511, 3688970983, 0.7648047, 0.07419921, -0.55301946, 0.32208648, -1.3787234, 0.25901145, -0.29989815, 0
512, 3688987650, 0.7648653, 0.07318031, -0.5532931, 0.32170594, -1.1885607, 0.5717444, -0.084303856, 0
513, 3689004317, 0.76553357, 0.07128399, -0.5534988, 0.32018453, -0.8425075, 1.0047075, 0.32431984, 0
514, 3689020984, 0.76651645, 0.06924507, -0.55401224, 0.31738046, -0.59550244, 1.3373955, 0.84422684, 0
515, 3689037651, 0.7673128, 0.06767783, -0.55527383, 0.31356624, -0.30253014, 1.2688384, 1.018528, 0
516, 3689054318, 0.7673095, 0.06658146, -0.5578176, 0.30926493, -0.1042308, 0.7680662, 0.6463623, 0
517, 3689070985, 0.7663176, 0.06511319, -0.5618986, 0.30461404, -0.004917285, 0.072747044, 0.029679298, 0
518, 3689087652, 0.76460487, 0.062062867, -0.5673942, 0.29932213, -0.086772196, -0.5724511, -0.43777084, 0
519, 3689104319, 0.7623863, 0.057341866, -0.57364196, 0.29396656, -0.19241425, -1.1015438, -0.50830173, 0
520, 3689120986, 0.7599966, 0.05167263, -0.5796271, 0.28942975, -0.31262043, -1.3887528, -0.4056778, 0
521, 3689137653, 0.75769526, 0.04540463, -0.58511996, 0.2854348, -0.6940377, -1.1669879, -0.43405247, 0
522, 3689154320, 0.7554187, 0.0380347, -0.59071374, 0.28098997, -0.99064386, -0.7505939, -0.44660473, 0
523, 3689170987, 0.7530022, 0.028562639, -0.5970979, 0.27504218, -1.0958009, -0.6936224, -0.15105915, 0
524, 3689187654, 0.7504362, 0.015937697, -0.604397, 0.267017, -0.852596, -0.7114291, 0.27857304, 0
525, 3689204321, 0.7472883, -0.0011060918, -0.6130054, 0.25648677, -0.42374212, -1.2792288, 0.79278564, 0
526, 3689220988, 0.7434703, -0.021501647, -0.6220903, 0.24453075, 0.13895398, -2.457154, 1.8354855, 0
527, 3689237655, 0.73914665, -0.04309249, -0.630441, 0.23313396, 0.6614839, -3.552061, 2.755087, 0
528, 3689254322, 0.7338707, -0.06543821, -0.63808554, 0.22360899, 1.1235348, -4.6498785, 3.1603718, 0
529, 3689270989, 0.72722507, -0.08773559, -0.6454277, 0.21649748, 1.4362044, -5.7079077, 3.4685726, 0
530, 3689287656, 0.7187876, -0.10932474, -0.65274507, 0.21288085, 1.5198921, -6.5030756, 3.8577156, 0
531, 3689304323, 0.7081396, -0.1305715, -0.66037935, 0.21305092, 1.4307158, -6.5986013, 3.9742928, 0
532, 3689320990, 0.6953657, -0.15208614, -0.66827303, 0.21621634, 1.2340039, -6.599668, 4.662919, 0
533, 3689337657, 0.681279, -0.17363048, -0.67520106, 0.2231973, 1.0294551, -5.972124, 5.2695065, 0
534, 3689354324, 0.6655587, -0.19601417, -0.6815694, 0.23254056, 1.2345228, -5.0337515, 5.1642838, 0
535, 3689370991, 0.6468862, -0.21928388, -0.68886393, 0.24273734, 1.527264, -4.5182967, 5.434966, 0
536, 3689387658, 0.62529784, -0.24165384, -0.69682205, 0.25504336, 1.4559768, -3.8113797, 6.0482683, 0
537, 3689404325, 0.60149723, -0.26285198, -0.70450574, 0.2697845, 1.1620849, -2.4433398, 6.2177525, 0
538, 3689420992, 0.5760641, -0.28401843, -0.7112335, 0.28571457, 0.8073735, -1.1570933, 6.3156548, 0
539, 3689437659, 0.5493662, -0.30497825, -0.71682423, 0.3022418, 0.546427, 0.05684873, 6.5295067, 0
540, 3689454326, 0.5211578, -0.32553825, -0.72118783, 0.31985885, 0.43271482, 1.3840427, 6.541853, 0
541, 3689470993, 0.4905115, -0.34539488, -0.7253663, 0.33756, 0.36748347, 2.673067, 5.990473, 0
542, 3689487660, 0.4575073, -0.3640222, -0.7296902, 0.35458302, -0.0791893, 3.8297358, 6.3903637, 0
543, 3689504327, 0.4226555, -0.38196036, -0.73286986, 0.37198445, -0.5981985, 4.8290935, 6.5492973, 0
544, 3689520994, 0.38561863, -0.39832693, -0.7348162, 0.3907448, -1.0063671, 5.2532516, 6.342787, 0
545, 3689537661, 0.34653583, -0.4121941, -0.7353921, 0.41135103, -1.6042504, 6.193503, 5.4696417, 0
546, 3689554328, 0.30543718, -0.42395866, -0.73408794, 0.43368688, -2.4511576, 6.9695845, 4.3534393, 0
547, 3689570995, 0.26344556, -0.43331513, -0.7306104, 0.4572148, -3.488344, 7.9824405, 2.9802313, 0
548, 3689587662, 0.22092399, -0.44125417, -0.72431535, 0.48151502, -3.8259447, 8.274504, 1.0793705, 0
549, 3689604329, 0.17816243, -0.44758284, -0.7162678, 0.5048668, -3.9322438, 8.892969, -0.70979786, 0
550, 3689620996, 0.134903, -0.4524194, -0.7070662, 0.5264765, -4.1071954, 9.083845, -1.5548468, 0
551, 3689637663, 0.09153931, -0.4553767, -0.695546, 0.548152, -4.585623, 8.838045, -2.2119303, 0
552, 3689654330, 0.048817217, -0.4566837, -0.6811458, 0.57017505, -4.833509, 8.426561, -4.0084553, 0
553, 3689670997, 0.006380546, -0.45645672, -0.66500753, 0.5910785, -4.3901796, 7.7555895, -5.9555435, 0
554, 3689687664, -0.035883833, -0.45435047, -0.6480462, 0.61017716, -4.2725344, 6.464852, -7.042838, 0
555, 3689704331, -0.07693884, -0.45026037, -0.6296361, 0.62841576, -4.525753, 4.904536, -8.308885, 0
556, 3689720998, -0.11631019, -0.4451577, -0.61027235, 0.6448847, -4.1483665, 2.6789436, -9.645957, 0
557, 3689737665, -0.15437473, -0.43781313, -0.5916453, 0.65912527, -2.9421172, 0.056796208, -10.2243, 0
558, 3689754332, -0.1903367, -0.4281593, -0.5750395, 0.6706589, -2.6800861, -2.0329256, -10.391608, 0
559, 3689770999, -0.2230353, -0.41844976, -0.56009704, 0.67929995, -2.389014, -4.11907, -10.0998, 0
560, 3689787666, -0.25097167, -0.40943372, -0.54638195, 0.6861824, -1.483761, -6.1906905, -9.349168, 0
561, 3689804333, -0.27346876, -0.40099952, -0.53401375, 0.69227564, -0.24280906, -8.15474, -8.489923, 0
562, 3689821000, -0.2903279, -0.3938347, -0.52371526, 0.69737256, 0.54712373, -9.959483, -7.6422176, 0
563, 3689837667, -0.30126515, -0.38860732, -0.51674163, 0.7008593, 1.0488001, -11.298525, -6.6460257, 0
564, 3689854334, -0.30624524, -0.38545302, -0.5137373, 0.7026491, 1.518146, -11.995312, -5.6356516, 0
565, 3689871001, -0.3055853, -0.38431025, -0.5150595, 0.70259464, 1.2874954, -12.028648, -4.8608994, 0
566, 3689887668, -0.2989512, -0.38625422, -0.51964873, 0.7010016, 0.73892266, -11.30761, -4.6192713, 0
567, 3689904335, -0.28644484, -0.3913586, -0.526399, 0.6983511, 0.3470832, -10.087231, -4.5753555, 0
568, 3689921002, -0.26864728, -0.39861774, -0.53462374, 0.69506276, 0.21213078, -8.780815, -4.7110233, 0
569, 3689937669, -0.24596398, -0.4073521, -0.54436404, 0.6908228, 0.03475716, -7.592375, -5.272656, 0
570, 3689954336, -0.21944284, -0.41691983, -0.55582297, 0.6848983, -0.16002187, -6.3895936, -5.819706, 0
571, 3689971003, -0.18932594, -0.42676896, -0.56858456, 0.67730176, -0.8451093, -5.1670823, -6.5965233, 0
572, 3689987670, -0.15525965, -0.43624923, -0.5818025, 0.6686471, -1.0875993, -3.8401, -7.363297, 0
573, 3690004337, -0.11788174, -0.4433766, -0.59539914, 0.6595628, -0.9321346, -2.4406614, -8.207315, 0
574, 3690021004, -0.07837351, -0.44679233, -0.61015123, 0.6495783, -1.8072867, -0.6909641, -8.703772, 0
575, 3690037671, -0.035384543, -0.45064318, -0.62369776, 0.63770837, -3.6688995, 1.6990554, -8.647076, 0
576, 3690054338, 0.011033019, -0.45405397, -0.6353908, 0.6244951, -3.7116065, 3.997746, -7.280259, 0
577, 3690071005, 0.05880826, -0.45520246, -0.6445952, 0.61141765, -4.2365217, 6.0315857, -5.1358504, 0
578, 3690087672, 0.10706565, -0.4531892, -0.6509579, 0.59951025, -3.5353432, 6.870274, -3.7906241, 0
579, 3690104339, 0.15314564, -0.44641593, -0.657793, 0.5870005, -2.6332805, 8.2059965, -3.1584039, 0
580, 3690121006, 0.1958036, -0.43527293, -0.665096, 0.5743239, -2.3323534, 8.30688, -1.5222569, 0
581, 3690137673, 0.23660691, -0.42086363, -0.67098343, 0.5627384, -2.8118734, 8.469791, -0.5760498, 0
582, 3690154340, 0.27669987, -0.40488055, -0.6747264, 0.5515934, -2.2923248, 7.8357654, -0.8803625, 0
583, 3690171007, 0.3144908, -0.38743174, -0.67942286, 0.5379394, -1.557266, 7.331501, -1.158884, 0
584, 3690187674, 0.349512, -0.37015444, -0.68599904, 0.5198409, -1.3437228, 8.193687, 0.29806423, 0
585, 3690204341, 0.3815462, -0.35289928, -0.6925855, 0.50021213, -0.6571424, 7.443405, 3.3324986, 0
586, 3690221008, 0.41206712, -0.33296528, -0.69581443, 0.48495284, -0.48331994, 5.898364, 4.841795, 0
587, 3690237675, 0.44301102, -0.30790135, -0.6936919, 0.4772126, -0.6658759, 4.0082707, 4.7417784, 0
588, 3690254342, 0.47576925, -0.27617648, -0.68586534, 0.47640428, -0.9581437, 3.345007, 3.4332323, 0
589, 3690271009, 0.50842583, -0.24348554, -0.67653555, 0.4738351, -0.5412152, 5.2039833, 1.3933439, 0
590, 3690287676, 0.5357656, -0.21640506, -0.6718299, 0.46343377, 0.43570676, 4.7238617, 1.7483301, 0
591, 3690304343, 0.55825484, -0.1919607, -0.671278, 0.44820842, 0.8207508, 3.2803614, 3.9184618, 0
592, 3690321010, 0.5791144, -0.16455448, -0.6691756, 0.43560833, 0.7509579, 1.8107201, 5.5823183, 0
593, 3690337677, 0.600041, -0.13120428, -0.66222465, 0.42918158, 0.81182677, 1.0714444, 5.38319, 0
594, 3690354344, 0.62052876, -0.09117854, -0.6500568, 0.42902076, 1.1713719, 0.24720678, 5.2196283, 0
595, 3690371011, 0.6396253, -0.04485242, -0.63269126, 0.4342482, 0.9704539, 0.46465868, 4.3167496, 0
596, 3690387678, 0.6548842, 0.003291552, -0.6141472, 0.4403875, 0.6937637, 0.42000687, 3.662509, 0
597, 3690404345, 0.6664651, 0.052568555, -0.59486246, 0.44632, 1.188692, -0.48112896, 4.63813, 0
598, 3690421012, 0.6748507, 0.10382341, -0.57232463, 0.45414072, 2.3212566, -1.4138784, 5.711293, 0
599, 3690437679, 0.6801093, 0.15323439, -0.5464419, 0.4640839, 1.9300773, -0.8212959, 4.9220276, 0
600, 3690454346, 0.682933, 0.19262052, -0.5250805, 0.46988574, 1.5805223, -1.2248747, 4.1651535, 0
601, 3690471013, 0.6844076, 0.2171655, -0.51494616, 0.46825004, 1.521378, -2.088572, 4.194292, 0
602, 3690487680, 0.68533194, 0.22702779, -0.5165557, 0.4603812, 3.263561, -3.4909227, 4.8928566, 0
603, 3690504347, 0.68547875, 0.22815156, -0.523554, 0.4516185, 4.589681, -4.535238, 4.953658, 0
604, 3690521014, 0.68390733, 0.22631899, -0.5311675, 0.44599774, 4.4647217, -5.031957, 4.2279243, 0
605, 3690537681, 0.6807326, 0.22502586, -0.5377737, 0.44358543, 3.1538618, -5.1071343, 3.3869686, 0
606, 3690554348, 0.67677015, 0.22412638, -0.5439149, 0.44261506, 1.4664077, -5.215401, 2.8694706, 0
607, 3690571015, 0.6733349, 0.22150214, -0.5501806, 0.44142997, 0.02631865, -5.2108226, 2.431055, 0
608, 3690587682, 0.67162275, 0.21558769, -0.5567708, 0.4386949, -0.78872985, -5.2759113, 1.9201088, 0
609, 3690604349, 0.6718468, 0.20646828, -0.5635712, 0.43403044, -1.1127235, -5.3983984, 1.5211506, 0
610, 3690621016, 0.67342806, 0.19523555, -0.56994456, 0.4284196, -0.98394066, -5.516606, 1.2820511, 0
611, 3690637683, 0.67599046, 0.18309829, -0.5753661, 0.42245477, -0.98833853, -5.2238297, 1.0062246, 0
612, 3690654350, 0.6792903, 0.16996472, -0.58023417, 0.41594118, -0.67435336, -5.227605, 1.259264, 0
613, 3690671017, 0.682979, 0.155675, -0.5840164, 0.410161, -0.35248217, -5.2081594, 1.9221992, 0
614, 3690687684, 0.68681645, 0.13946214, -0.5867498, 0.40566066, -0.24007973, -4.86902, 2.4564505, 0
615, 3690704351, 0.69053876, 0.12016793, -0.5897296, 0.40116954, -0.10099701, -4.4346733, 2.6078491, 0
616, 3690721018, 0.69340545, 0.09730967, -0.5944064, 0.39547816, 0.43095532, -4.3577714, 2.8760996, 0
617, 3690737685, 0.6943418, 0.070975855, -0.6010952, 0.3892794, 0.9135471, -4.7364783, 3.4962368, 0
618, 3690754352, 0.6933063, 0.041621577, -0.60873955, 0.38344762, 1.1474016, -4.7551117, 4.238887, 0
619, 3690771019, 0.69026345, 0.009751445, -0.6163054, 0.37896064, 1.3089777, -4.530828, 4.9420433, 0
620, 3690787686, 0.685033, -0.02412014, -0.6234513, 0.37611005, 1.3083313, -4.053619, 5.671582, 0
621, 3690804353, 0.6772393, -0.060275815, -0.630473, 0.37445897, 1.3556334, -3.0185933, 5.7984095, 0
622, 3690821020, 0.66618437, -0.09821919, -0.63807005, 0.37338996, 1.5384285, -2.1958938, 5.756482, 0
623, 3690837687, 0.65146184, -0.13650024, -0.64619726, 0.3733583, 1.5189931, -1.3729573, 5.8275537, 0
624, 3690854354, 0.633514, -0.17471613, -0.65397125, 0.3747772, 1.2641817, -0.59094983, 6.273863, 0
625, 3690871021, 0.612973, -0.21214697, -0.6603524, 0.3784108, 0.8934671, 0.4368031, 6.393343, 0
626, 3690887688, 0.589227, -0.24955343, -0.6660785, 0.3832443, 0.6459198, 1.6318507, 5.914529, 0
627, 3690904355, 0.5612327, -0.28764263, -0.6725657, 0.38721704, 0.76210093, 2.678258, 5.10925, 0
628, 3690921022, 0.52888876, -0.32554165, -0.6796692, 0.39032185, 0.850402, 3.477659, 4.8925076, 0
629, 3690937689, 0.49341816, -0.36127496, -0.6859485, 0.3943293, 0.47633472, 3.9228585, 4.941142, 0
630, 3690954356, 0.45640904, -0.3939363, -0.6899976, 0.4005129, 0.21072087, 5.0304623, 4.3464174, 0
631, 3690971023, 0.4170428, -0.42434993, -0.69293785, 0.40723684, 0.80129707, 6.173757, 3.5845346, 0
632, 3690987690, 0.37323424, -0.45257914, -0.69637, 0.41344792, 1.0030332, 6.7547636, 3.538888, 0
633, 3691004357, 0.32573217, -0.4775429, -0.69932055, 0.42048082, 0.6029955, 7.559099, 3.0694141, 0
634, 3691021024, 0.27561006, -0.49857357, -0.70131236, 0.42851672, 0.068004265, 8.212834, 2.47964, 0
635, 3691037691, 0.2255191, -0.51508343, -0.70052516, 0.439428, -0.6691213, 8.835642, 1.6891975, 0
636, 3691054358, 0.17668737, -0.5265914, -0.69653016, 0.45423654, -0.789146, 9.204718, 0.19405937, 0
637, 3691071025, 0.12791504, -0.5335472, -0.69030523, 0.47164193, -0.7133796, 9.432304, -1.4990311, 0
638, 3691087692, 0.0784756, -0.5355731, -0.6823497, 0.49132875, -1.0968802, 8.6616125, -3.0178308, 0
639, 3691104359, 0.030715553, -0.533136, -0.67126364, 0.51403284, -2.1451678, 7.722499, -5.258452, 0
640, 3691121026, -0.013541664, -0.52851796, -0.65669763, 0.53780645, -2.8481221, 5.944895, -7.463133, 0
641, 3691137693, -0.053315457, -0.5232294, -0.6389836, 0.5613291, -2.679634, 3.4583783, -9.18624, 0
642, 3691154360, -0.09003601, -0.51571167, -0.6207445, 0.5836207, -1.9636834, 0.8084581, -10.089654, 0
643, 3691171027, -0.12515341, -0.50601363, -0.60422075, 0.6026659, -1.4693699, -1.6221799, -10.7241535, 0
644, 3691187694, -0.15848735, -0.49513298, -0.5905078, 0.61727446, -1.7519985, -3.952406, -10.722271, 0
645, 3691204361, -0.18775345, -0.48398888, -0.5791845, 0.6285308, -1.5801808, -6.2838144, -9.757032, 0
646, 3691221028, -0.21130553, -0.4732756, -0.5689331, 0.6384961, -1.4916373, -8.425616, -8.927945, 0
647, 3691237695, -0.22797124, -0.46472952, -0.55925596, 0.6475264, -1.118088, -10.582538, -8.2527, 0
648, 3691254362, -0.23745786, -0.45902574, -0.55160046, 0.65471226, -0.5728232, -12.170322, -7.5107903, 0
649, 3691271029, -0.24091013, -0.4562648, -0.5477908, 0.6585682, -0.226734, -12.620579, -6.683217, 0
650, 3691287696, -0.2387765, -0.45610294, -0.54836017, 0.65898347, -0.54866576, -11.738153, -5.7068954, 0
651, 3691304363, -0.23145908, -0.4585133, -0.55175644, 0.6570839, -1.109538, -10.068118, -4.9948735, 0
652, 3691321030, -0.21894418, -0.4633888, -0.5562727, 0.6541386, -1.4454013, -8.144707, -4.765891, 0
653, 3691337697, -0.2017157, -0.47035915, -0.5612745, 0.65042, -1.4023751, -6.5310125, -4.619354, 0
654, 3691354364, -0.18010814, -0.47923595, -0.56645983, 0.6457703, -1.238794, -5.355953, -4.7872367, 0
655, 3691371031, -0.1557601, -0.48883754, -0.57268226, 0.63938546, -0.48874462, -4.3801875, -5.040334, 0
656, 3691387698, -0.13037048, -0.4973004, -0.5816838, 0.63035077, -0.38131523, -3.279792, -5.0869145, 0
657, 3691404365, -0.1032769, -0.504355, -0.59193635, 0.6201398, -1.0141516, -1.8400118, -4.672024, 0
658, 3691421032, -0.07335031, -0.50956374, -0.6009585, 0.61140466, -1.6890112, -0.5197419, -3.9181967, 0
659, 3691437699, -0.03830762, -0.5130556, -0.60542333, 0.6072654, -2.528875, 0.5158362, -3.4331174, 0
660, 3691454366, 0.0039775586, -0.5156908, -0.60293204, 0.60870534, -3.4814713, 1.2848532, -3.3002715, 0
661, 3691471033, 0.05272999, -0.51718736, -0.59578514, 0.612192, -1.5835549, 1.4452678, -5.244281, 0
662, 3691487700, 0.10019131, -0.5174166, -0.591363, 0.61035556, -1.2849923, 2.3767984, -5.563199, 0
663, 3691504367, 0.1467727, -0.5164269, -0.5877671, 0.60522157, -2.0721958, 3.9473622, -3.4458327, 0
664, 3691521034, 0.1975485, -0.5119806, -0.5775808, 0.6043616, -2.6963847, 4.876169, -0.19123268, 0
665, 3691537701, 0.25496465, -0.5000467, -0.55538356, 0.6135939, -2.0396135, 4.5528064, 1.0731859, 0
666, 3691554368, 0.31908935, -0.48020947, -0.5198281, 0.6303662, -1.0421544, 5.189735, -0.06111908, 0
667, 3691571035, 0.38145214, -0.4540728, -0.48275894, 0.6444053, 1.0542889, 4.495096, -3.604628, 0
668, 3691587702, 0.43150705, -0.42814198, -0.45757917, 0.6489373, 0.47155356, 4.9736924, -3.051775, 0
669, 3691604369, 0.47095364, -0.40360126, -0.4435977, 0.6469404, -0.06751857, 4.825067, -0.47896194, 0
670, 3691621036, 0.5075267, -0.37524998, -0.43098235, 0.6448725, -0.07110461, 4.370194, 2.1235971, 0
671, 3691637703, 0.54545003, -0.33818325, -0.4103362, 0.64787555, 0.2623262, 3.6426966, 1.9091082, 0
672, 3691654370, 0.5800918, -0.29568392, -0.3862635, 0.6533508, 0.019346835, 3.9479651, 0.38910198, 0
673, 3691671037, 0.60716087, -0.25688726, -0.36828956, 0.6555376, -0.7807969, 4.6535373, 0.48906422, 0
674, 3691687704, 0.627782, -0.22534722, -0.36158222, 0.6514361, -0.5732926, 4.2166834, 1.7119484, 0
675, 3691704371, 0.64445984, -0.19780272, -0.36193815, 0.64385444, 0.16325252, 3.2004633, 2.6649523, 0
676, 3691721038, 0.6591566, -0.16843636, -0.36239198, 0.63703686, 1.0539206, 2.4687636, 3.1281395, 0
677, 3691737705, 0.67355007, -0.13307764, -0.35667098, 0.6335682, 1.4032762, 2.2067122, 2.528263, 0
678, 3691754372, 0.68514585, -0.0947871, -0.3450624, 0.6344481, 0.70113647, 2.634769, 1.3381968, 0
679, 3691771039, 0.6932877, -0.057616297, -0.33398116, 0.63599634, -0.03448559, 2.2320142, 0.50643253, 0
680, 3691787706, 0.6990062, -0.023792654, -0.32987598, 0.6340412, -0.75940067, 1.8588235, 0.66816616, 0
681, 3691804373, 0.7036172, 0.006451765, -0.33292064, 0.6277318, -0.7733338, 1.576501, 1.4666157, 0
682, 3691821040, 0.70768964, 0.03560866, -0.34001982, 0.6183009, -0.31752586, 1.2000158, 2.010913, 0
683, 3691837707, 0.7105352, 0.06506929, -0.34864378, 0.6077461, 0.058653153, 0.95117235, 2.4006834, 0
684, 3691854374, 0.71193457, 0.0945463, -0.3560595, 0.59785783, 0.3758784, 0.870187, 2.7855568, 0
685, 3691871041, 0.7120608, 0.12461542, -0.3610158, 0.5891605, 0.45619842, 0.53339565, 2.640194, 0
686, 3691887708, 0.71076274, 0.15539539, -0.3641908, 0.5814085, 0.42267194, 0.30043024, 2.4916677, 0
687, 3691904375, 0.70782393, 0.18544212, -0.36627147, 0.57484275, 0.38587478, 0.09047805, 2.882926, 0
688, 3691921042, 0.7038492, 0.21375008, -0.3680359, 0.56873447, 0.3530195, -0.4400903, 3.1608791, 0
689, 3691937709, 0.6994757, 0.23995921, -0.3706582, 0.56193256, 0.39487764, -1.2080755, 3.3816195, 0
690, 3691954376, 0.6948994, 0.26344138, -0.37479204, 0.55429834, 0.5857803, -1.9418073, 3.7160835, 0
691, 3691971043, 0.69049984, 0.28323364, -0.38007268, 0.5463841, 0.847385, -2.7766187, 4.13678, 0
692, 3691987710, 0.687289, 0.29873025, -0.38539115, 0.5383959, 0.96397024, -3.4288871, 4.244668, 0
693, 3692004377, 0.68552923, 0.30941966, -0.39096773, 0.5305237, 1.1492075, -3.9355688, 4.082513, 0
694, 3692021044, 0.68474346, 0.31552646, -0.39718294, 0.5232756, 1.417622, -4.44356, 3.7362356, 0
695, 3692037711, 0.68452966, 0.3182987, -0.40363902, 0.5168973, 1.5557208, -4.843686, 3.4789886, 0
696, 3692054378, 0.68479675, 0.3183805, -0.40967324, 0.51172006, 1.4582348, -4.987822, 3.0725117, 0
697, 3692071045, 0.68563634, 0.3156608, -0.41546202, 0.5075967, 1.0668975, -4.9531837, 2.6603088, 0
698, 3692087712, 0.68711036, 0.31005353, -0.42142582, 0.5041314, 0.8250516, -4.938449, 2.2678623, 0
699, 3692104379, 0.6891295, 0.30237073, -0.42750192, 0.5009161, 0.4981062, -4.982583, 2.0862722, 0
700, 3692121046, 0.6915355, 0.2934504, -0.4328043, 0.49834538, 0.3977069, -4.8762465, 2.0976925, 0
701, 3692137713, 0.69428563, 0.28374562, -0.43662354, 0.49680755, 0.35379687, -4.686875, 1.9753389, 0
702, 3692154380, 0.6971247, 0.27353927, -0.43916473, 0.4963162, 0.45725566, -4.577794, 1.9857073, 0
703, 3692171047, 0.69988036, 0.2627039, -0.4410062, 0.49665856, 0.3851383, -4.456793, 2.163558, 0
704, 3692187714, 0.70271564, 0.25004497, -0.4431814, 0.4972529, 0.5543139, -4.36188, 2.5501719, 0
705, 3692204381, 0.7056921, 0.23453477, -0.44617474, 0.49791825, 0.9920868, -4.452355, 3.2778816, 0
706, 3692221048, 0.70857364, 0.21568622, -0.4495054, 0.49934945, 1.3367536, -4.4338927, 4.1397476, 0
707, 3692237715, 0.7109763, 0.19330691, -0.4524802, 0.5024034, 1.5060169, -4.210539, 4.7777205, 0
708, 3692254382, 0.712858, 0.16797654, -0.45445263, 0.5070427, 1.5463163, -3.7994251, 5.1663876, 0
709, 3692271049, 0.7138126, 0.14026113, -0.45517144, 0.5134387, 1.5778978, -3.2194293, 5.340707, 0
710, 3692287716, 0.71321994, 0.11087638, -0.45546576, 0.5211302, 1.5212023, -2.7369428, 5.271902, 0
711, 3692304383, 0.71075505, 0.07994634, -0.456299, 0.5293667, 1.3140197, -2.0931146, 5.5335426, 0
712, 3692321050, 0.70635325, 0.046044886, -0.45871806, 0.5371452, 0.7765229, -1.2700529, 5.5068913, 0
713, 3692337717, 0.6998193, 0.008075603, -0.46402186, 0.54302275, 0.5144616, -0.42248458, 5.385769, 0
714, 3692354384, 0.6901464, -0.03338706, -0.472486, 0.5471218, 0.7533102, 0.10411647, 5.474118, 0
715, 3692371051, 0.6768933, -0.07642335, -0.48270038, 0.550434, 0.77478665, 0.8591144, 5.3592043, 0
716, 3692387718, 0.6596713, -0.12053009, -0.49492255, 0.552594, 0.8158786, 1.8625902, 5.1585245, 0
717, 3692404385, 0.6362046, -0.16856575, -0.51299113, 0.5510639, 0.9956818, 3.0795276, 4.543647, 0
718, 3692421052, 0.60322875, -0.2229039, -0.5382802, 0.5446882, 1.766511, 3.936047, 5.134842, 0
719, 3692437719, 0.5605525, -0.27961335, -0.5658074, 0.53615415, 1.8735607, 4.306553, 5.6210423, 0
720, 3692454386, 0.51143664, -0.3314363, -0.5904785, 0.5290743, 0.9115587, 4.0557895, 5.246825, 0
721, 3692471053, 0.46149662, -0.37267268, -0.60792786, 0.5277893, -0.5045175, 4.332517, 4.485818, 0
722, 3692487720, 0.41409704, -0.40417877, -0.61640906, 0.5340461, -1.6509764, 5.0947714, 2.7153273, 0
723, 3692504387, 0.36885193, -0.4307878, -0.6188569, 0.5434964, -1.5603001, 6.4703717, -0.043213844, 0
724, 3692521054, 0.321869, -0.45458472, -0.619881, 0.55272293, -0.855406, 5.6710925, -2.6853771, 0
725, 3692537721, 0.27204812, -0.474068, -0.62317467, 0.559379, -0.7457579, 5.2902184, -3.5210352, 0
726, 3692554388, 0.22279036, -0.48821032, -0.62539464, 0.5664792, -1.6788535, 5.1939435, -3.3357158, 0
727, 3692571055, 0.1766416, -0.4983676, -0.62410355, 0.5752602, -2.0242915, 5.187489, -4.388718, 0
728, 3692587722, 0.1318856, -0.50487745, -0.62164146, 0.58418244, -1.2783781, 4.079248, -5.8642287, 0
729, 3692604389, 0.08511508, -0.50705886, -0.62270856, 0.589816, -0.22555073, 3.5907414, -7.1619787, 0
730, 3692621056, 0.034055486, -0.5054417, -0.6277761, 0.5909893, -1.2923723, 3.3046646, -5.94559, 0
731, 3692637723, -0.013584996, -0.5017408, -0.6297739, 0.59283936, -4.0805984, 2.8262043, -4.5670156, 0
732, 3692654390, -0.05146141, -0.49862868, -0.6229622, 0.60053426, -4.4672813, 1.7920415, -5.0572305, 0
733, 3692671057, -0.08286896, -0.495975, -0.6116786, 0.6107316, -2.5398247, 0.43686768, -6.3507, 0
734, 3692687724, -0.11286586, -0.49264959, -0.60180074, 0.6183816, -1.3839517, -0.21274501, -6.6928096, 0
735, 3692704391, -0.14225996, -0.487824, -0.5938064, 0.62384784, -1.5371969, -1.3708079, -6.0579653, 0
736, 3692721058, -0.16801299, -0.4822066, -0.5851877, 0.6299253, -1.9130845, -2.9204962, -5.916494, 0
737, 3692737725, -0.18806382, -0.47705096, -0.5756116, 0.6369678, -1.7090108, -4.396056, -6.3034167, 0
738, 3692754392, -0.202979, -0.47309342, -0.56667876, 0.6433192, -0.99112606, -5.696191, -6.4475303, 0
739, 3692771059, -0.21346842, -0.47026256, -0.55961764, 0.6481624, -0.35163772, -6.516979, -6.155154, 0
740, 3692787726, -0.22031365, -0.46782646, -0.55550754, 0.6511633, -0.038744852, -7.0783386, -5.671446, 0
741, 3692804393, -0.22278604, -0.46633554, -0.5539027, 0.6527566, -0.21718441, -7.3463264, -5.3615327, 0
742, 3692821060, -0.22044897, -0.46637756, -0.5537729, 0.6536297, -0.53314275, -7.41188, -4.9591117, 0
743, 3692837727, -0.21278986, -0.4675714, -0.55455905, 0.65464807, -0.55406445, -7.2573977, -4.926612, 0
744, 3692854394, -0.20037061, -0.46918893, -0.5567142, 0.65557975, -0.5993064, -6.937207, -4.933027, 0
745, 3692871061, -0.18367893, -0.4716249, -0.5599781, 0.6559412, -1.0989044, -6.448563, -5.106134, 0
746, 3692887728, -0.1623973, -0.4756455, -0.5635088, 0.65562826, -1.5384297, -5.835341, -5.310998, 0
747, 3692904395, -0.13611567, -0.48138556, -0.5667717, 0.65460867, -1.6265419, -5.047304, -5.778755, 0
748, 3692921062, -0.1051576, -0.48781538, -0.5700699, 0.6526871, -1.5082439, -4.1475306, -6.068834, 0
749, 3692937729, -0.06982106, -0.49361452, -0.5729617, 0.650528, -1.3139207, -3.1316297, -6.274557, 0
750, 3692954396, -0.031126706, -0.49682024, -0.57618016, 0.64824325, -0.4727062, -2.2062726, -6.6891775, 0
751, 3692971063, 0.009979319, -0.496035, -0.58082575, 0.645363, -0.9072566, -1.1474558, -6.5983143, 0
752, 3692987730, 0.055527315, -0.49255374, -0.58279437, 0.64394146, -2.5213962, 0.59998065, -5.732026, 0
753, 3693004397, 0.10871373, -0.48733863, -0.57744193, 0.6459453, -3.5020587, 2.5195067, -4.1107726, 0
754, 3693021064, 0.1686613, -0.47836247, -0.5645406, 0.6511672, -2.3406742, 3.9509375, -2.8527923, 0
755, 3693037731, 0.22986011, -0.46410903, -0.54457897, 0.6596993, -1.1163462, 4.454849, -1.6994524, 0
756, 3693054398, 0.2916208, -0.44276783, -0.5177818, 0.6714298, 0.24548696, 4.5758734, -1.5017843, 0
757, 3693071065, 0.35110366, -0.41176772, -0.4908892, 0.68279094, 1.602277, 4.0786033, -2.2944307, 0
758, 3693087732, 0.40292805, -0.37330413, -0.47138578, 0.6899932, 1.4859505, 3.6879413, -3.2326984, 0
759, 3693104399, 0.4440162, -0.3346275, -0.46333572, 0.69006985, 0.12454343, 4.9314265, -1.6989698, 0
760, 3693121066, 0.4763991, -0.300817, -0.4598987, 0.6863295, -1.2512711, 5.210007, 0.42971897, 0
761, 3693137733, 0.5057257, -0.2702468, -0.45446745, 0.6816668, -1.4590145, 4.590342, 1.4958687, 0
762, 3693154400, 0.5353387, -0.23873475, -0.4460387, 0.676365, -0.7869008, 4.1889386, 2.9752312, 0
763, 3693171067, 0.5616902, -0.20620728, -0.4372639, 0.67140526, 0.17746481, 3.816996, 3.6419468, 0
764, 3693187734, 0.5824655, -0.17455453, -0.4327674, 0.6655668, 0.60245436, 3.0794833, 3.3352919, 0
765, 3693204401, 0.59920746, -0.14431971, -0.43169662, 0.6586066, 0.14825793, 2.5251813, 2.9203453, 0
766, 3693221068, 0.6143601, -0.11499657, -0.42924127, 0.65199035, -0.29215267, 2.2915657, 2.76375, 0
767, 3693237735, 0.62924093, -0.08530378, -0.4228528, 0.6465111, -0.23760344, 1.8962549, 2.8311625, 0
768, 3693254402, 0.64262354, -0.055936553, -0.41859496, 0.6392859, -0.12206959, 1.5627959, 2.9640055, 0
769, 3693271069, 0.65241456, -0.03134895, -0.42128137, 0.62920326, 0.013026559, 1.4061226, 3.6745691, 0
770, 3693287736, 0.65999967, -0.011095764, -0.42840108, 0.61705106, 0.52480865, 0.858939, 4.3848295, 0
771, 3693304403, 0.66647387, 0.00797057, -0.43494874, 0.60545087, 0.9080804, 0.25131014, 4.701027, 0
772, 3693321070, 0.67228335, 0.02811725, -0.43748647, 0.59653354, 0.7387966, -0.0028765558, 4.255316, 0
773, 3693337737, 0.6777626, 0.049994454, -0.43574637, 0.5901403, 0.29462406, -0.033430915, 2.9306698, 0
774, 3693354404, 0.68260175, 0.073487535, -0.4316498, 0.585094, -0.20587644, 0.09477179, 1.6694555, 0
775, 3693371071, 0.6863511, 0.09780082, -0.42751262, 0.5801658, -0.6812029, 0.30538893, 0.83186054, 0
776, 3693387738, 0.68914247, 0.12244587, -0.42483142, 0.57411695, -1.0063998, 0.39624158, 0.6427965, 0
777, 3693404405, 0.69124913, 0.14734094, -0.42392507, 0.5663523, -1.1412513, 0.33656725, 1.0997267, 0
778, 3693421072, 0.6928059, 0.17173034, -0.42440894, 0.5571427, -1.1315982, 0.20139903, 1.8677654, 0
779, 3693437739, 0.69411904, 0.19438693, -0.42574835, 0.5469487, -1.060047, -0.008016292, 2.5333462, 0
780, 3693454406, 0.6957434, 0.21459356, -0.42786795, 0.53555745, -0.84938276, -0.30555528, 2.817606, 0
781, 3693471073, 0.69756705, 0.23176774, -0.4314266, 0.5230269, -0.4125504, -0.54713523, 2.8266506, 0
782, 3693487740, 0.6992017, 0.24596247, -0.43685225, 0.50968784, 0.4349068, -0.94597524, 2.7105598, 0
783, 3693504407, 0.70041144, 0.25859565, -0.44326875, 0.49605146, 1.180239, -1.423515, 2.8799143, 0
784, 3693521074, 0.70073634, 0.27046248, -0.4498888, 0.48313633, 1.7601019, -1.9511456, 2.879284, 0
785, 3693537741, 0.69976413, 0.2815647, -0.45627818, 0.4720848, 2.1897688, -2.5609863, 2.6962118, 0
786, 3693554408, 0.6976111, 0.2917216, -0.46153435, 0.46392393, 2.3609633, -3.1988006, 2.631034, 0
787, 3693571075, 0.69460106, 0.30008876, -0.46537262, 0.45924565, 1.7251807, -3.624051, 2.7052364, 0
788, 3693587742, 0.6918485, 0.30580094, -0.46808726, 0.4568674, 0.8231388, -3.9006538, 2.5644379, 0
789, 3693604409, 0.69022465, 0.30812573, -0.47063303, 0.45514303, 0.004935166, -3.7860255, 2.0948238, 0
790, 3693621076, 0.690212, 0.30649886, -0.4743659, 0.45237702, -0.20969985, -3.6929104, 1.4240904, 0
791, 3693637743, 0.6914772, 0.30133027, -0.48009095, 0.44785523, -0.23213653, -3.6744344, 1.0532627, 0
792, 3693654410, 0.6936091, 0.29352203, -0.4873532, 0.44186, 0.14610371, -4.030387, 0.9964571, 0
793, 3693671077, 0.69619596, 0.2842825, -0.4949496, 0.43534073, 0.32961455, -4.3981647, 1.2530851, 0
794, 3693687744, 0.698869, 0.27374652, -0.50220454, 0.42946187, 0.64699715, -4.746741, 1.5695581, 0
795, 3693704411, 0.7018231, 0.26098853, -0.50909877, 0.42444074, 0.8565249, -4.872749, 1.7876787, 0
796, 3693721078, 0.7051606, 0.24490856, -0.5164008, 0.4196435, 1.2162203, -5.1183534, 2.149004, 0
797, 3693737745, 0.7088169, 0.22469711, -0.5246605, 0.41451553, 1.5603216, -5.3654394, 2.691925, 0
798, 3693754412, 0.7120972, 0.2002189, -0.53373474, 0.4098286, 1.9042642, -5.5228944, 3.2940254, 0
799, 3693771079, 0.7147119, 0.17147987, -0.5433677, 0.4056295, 2.0684795, -5.4005704, 3.6667147, 0
800, 3693787746, 0.716008, 0.13867715, -0.5537566, 0.40181714, 2.1701825, -5.0927725, 4.0254383, 0
801, 3693804413, 0.7155202, 0.10216618, -0.56440026, 0.39880788, 2.1074443, -4.644412, 4.333192, 0
802, 3693821080, 0.7130186, 0.063205235, -0.57461274, 0.3967771, 2.0927808, -4.238205, 4.7270956, 0
803, 3693837747, 0.7079852, 0.02250585, -0.5841017, 0.39633024, 1.9607924, -3.7327726, 5.1258135, 0
804, 3693854414, 0.7005381, -0.018381892, -0.5921562, 0.39782104, 1.8215864, -3.1107993, 5.524804, 0
805, 3693871081, 0.6902548, -0.059546106, -0.5991514, 0.40127596, 1.6549002, -2.3068893, 5.5646324, 0
806, 3693887748, 0.6772125, -0.10051948, -0.6052331, 0.40617004, 1.3358815, -1.5183332, 5.654499, 0
807, 3693904415, 0.6616018, -0.14046668, -0.6104363, 0.41221562, 0.9993993, -0.78613067, 5.6579103, 0
808, 3693921082, 0.6432205, -0.17921622, -0.61520195, 0.41913947, 0.7797683, 0.07171983, 5.849184, 0
809, 3693937749, 0.62158287, -0.21796826, -0.61998266, 0.4263194, 0.6592904, 1.0026231, 5.9905252, 0
810, 3693954416, 0.5967552, -0.25636664, -0.62446076, 0.43383214, 0.49817505, 1.7572244, 5.790536, 0
811, 3693971083, 0.5691734, -0.29315305, -0.62810254, 0.44225806, 0.1393706, 2.673808, 5.033737, 0
812, 3693987750, 0.53899515, -0.3276262, -0.6313593, 0.45114613, -0.14951095, 3.304133, 4.149788, 0
813, 3694004417, 0.5064113, -0.35968873, -0.6344845, 0.46000355, -0.35642985, 4.0569024, 3.168456, 0
814, 3694021084, 0.47135496, -0.38955513, -0.6376015, 0.46854863, -0.46233788, 4.472257, 2.4783583, 0
815, 3694037751, 0.43478024, -0.41680926, -0.63964504, 0.47759026, -0.8289532, 4.951009, 2.142704, 0
816, 3694054418, 0.3976051, -0.44123024, -0.63998497, 0.48749095, -0.9361925, 5.354968, 1.4505119, 0
817, 3694071085, 0.3597661, -0.46232948, -0.63936025, 0.4980367, -1.1107619, 5.642253, 0.93506145, 0
818, 3694087752, 0.32108325, -0.48065683, -0.63763785, 0.50921005, -1.1309595, 5.816331, 0.10693741, 0
819, 3694104419, 0.2819089, -0.496134, -0.634792, 0.52097964, -1.1493434, 5.6517725, -0.8328409, 0
820, 3694121086, 0.24380991, -0.50798476, -0.6292822, 0.5352705, -1.7232207, 5.052655, -1.6242018, 0
821, 3694137753, 0.20927207, -0.5163222, -0.62034905, 0.5520742, -1.6861569, 5.1600094, -3.327959, 0
822, 3694154420, 0.17491777, -0.52324945, -0.6119086, 0.56673074, -0.6643806, 5.3003097, -4.805663, 0
823, 3694171087, 0.13776653, -0.5294232, -0.60577905, 0.5777244, -0.77607965, 5.0109773, -4.0839906, 0
824, 3694187754, 0.09997687, -0.5335175, -0.5997811, 0.5879017, -1.1227138, 4.717757, -3.824644, 0
825, 3694204421, 0.061752316, -0.5352038, -0.59349537, 0.5979204, -1.2312282, 4.4310694, -3.9577045, 0
826, 3694221088, 0.024119748, -0.5345856, -0.58577174, 0.6086953, -2.00903, 3.9527972, -4.2515798, 0
827, 3694237755, -0.01093499, -0.53203624, -0.57511926, 0.62133545, -2.6332974, 3.1525795, -5.0508857, 0
828, 3694254422, -0.04258863, -0.528627, -0.56085217, 0.6357568, -2.7796278, 1.4564759, -5.965, 0
829, 3694271089, -0.069836155, -0.52489966, -0.5438504, 0.6510237, -2.4287195, -0.63548934, -6.7580085, 0
830, 3694287756, -0.09292133, -0.5210563, -0.52624995, 0.6655292, -1.4371941, -2.8512013, -7.6393213, 0
831, 3694304423, -0.1136267, -0.5170199, -0.5111443, 0.67713594, -0.5873052, -4.8173876, -7.7404366, 0
832, 3694321090, -0.13240865, -0.51218355, -0.5001703, 0.685542, -0.16835822, -6.248991, -7.3183966, 0
833, 3694337757, -0.14831372, -0.50711197, -0.49300477, 0.69122297, -0.24590337, -7.106304, -6.6637473, 0
834, 3694354424, -0.16010167, -0.5026192, -0.488452, 0.6950957, -0.3456498, -7.6858253, -5.9310274, 0
835, 3694371091, -0.16669099, -0.49942607, -0.48531497, 0.6980396, -0.5745327, -8.006397, -5.29855, 0
836, 3694387758, -0.1680265, -0.49755168, -0.48332465, 0.70043486, -0.51649976, -8.27193, -4.871933, 0
837, 3694404425, -0.16441482, -0.49677464, -0.48308867, 0.70200443, -0.5991032, -8.13805, -4.661705, 0
838, 3694421092, -0.15609527, -0.49721986, -0.48426607, 0.7027769, -0.74377286, -7.675368, -4.563176, 0
839, 3694437759, -0.1431971, -0.49899945, -0.48621142, 0.7029187, -0.9651479, -7.0341425, -4.5578074, 0
840, 3694454426, -0.12552536, -0.50202703, -0.48863384, 0.70246106, -1.1255634, -6.4177656, -4.6908164, 0
841, 3694471093, -0.10223111, -0.5063503, -0.49050406, 0.7018308, -1.5657266, -5.5916486, -4.637784, 0
842, 3694487760, -0.07150951, -0.5116558, -0.4897304, 0.7023256, -1.919572, -4.495153, -4.7442207, 0
843, 3694504427, -0.0330135, -0.5170254, -0.48513326, 0.704445, -1.8703374, -3.281744, -5.093738, 0
844, 3694521094, 0.010983671, -0.52264905, -0.47586703, 0.7072976, -1.9378375, -1.9899229, -5.6773696, 0
845, 3694537761, 0.060176678, -0.52720046, -0.46246827, 0.71032643, -1.5146198, -0.88548577, -5.483938, 0
846, 3694554428, 0.11318052, -0.5283223, -0.4465408, 0.7132106, -0.77451354, 0.095662765, -5.2422776, 0
847, 3694571095, 0.16714424, -0.52502936, -0.43028593, 0.7150268, -0.6328378, 1.4086981, -4.414598, 0
848, 3694587762, 0.22080915, -0.5166608, -0.41247013, 0.7170603, -0.5831027, 2.3954318, -3.2699966, 0
849, 3694604429, 0.27438685, -0.50235265, -0.3914373, 0.7205085, -0.55355823, 3.1508949, -2.4781165, 0
850, 3694621096, 0.32521227, -0.4818426, -0.36954406, 0.72491676, -0.41623443, 3.0622146, -2.9199128, 0
851, 3694637763, 0.3685798, -0.45779747, -0.35316318, 0.72790664, -0.7630893, 3.205419, -2.8978114, 0
852, 3694654430, 0.40495795, -0.43319282, -0.3450977, 0.72750443, -1.3102441, 3.8024485, -2.4021025, 0
853, 3694671097, 0.43677157, -0.4093038, -0.34275973, 0.7240296, -1.4308014, 4.4859633, -1.3047485, 0
854, 3694687764, 0.46683013, -0.38460976, -0.3403539, 0.71993476, -1.1164875, 4.624964, -0.52488613, 0
855, 3694704431, 0.49613374, -0.3565863, -0.33604842, 0.7167783, -0.5864517, 4.456906, 0.34261894, 0
856, 3694721098, 0.52328986, -0.32517785, -0.33106834, 0.7147189, -0.3818578, 4.4975715, 0.9600792, 0
857, 3694737765, 0.5477293, -0.29286736, -0.32728878, 0.7121133, -0.40334812, 4.612721, 0.7907715, 0
858, 3694754432, 0.5690197, -0.2625435, -0.32392097, 0.7087769, -0.53021365, 4.5012665, 0.4384098, 0
859, 3694771099, 0.58856374, -0.23377869, -0.31978562, 0.704755, -0.3816219, 3.8065047, -0.24706554, 0
860, 3694787766, 0.6070934, -0.20395193, -0.31744033, 0.699339, -0.3261898, 2.8530793, -0.9537821, 0
861, 3694804433, 0.62226695, -0.17399919, -0.32310688, 0.69145674, -0.16952574, 2.9304962, -0.47148418, 0
862, 3694821100, 0.63412434, -0.14646561, -0.33656248, 0.68055993, 0.2111585, 3.737576, 0.7915964, 0
863, 3694837767, 0.64364964, -0.12125228, -0.35212156, 0.6685997, 0.80156934, 3.8924522, 2.0510893, 0
864, 3694854434, 0.65175575, -0.09593856, -0.3640248, 0.65840584, 1.1782702, 3.2442472, 2.691041, 0
865, 3694871101, 0.65931916, -0.06676297, -0.36973354, 0.65126055, 1.0964665, 2.3868055, 2.6490412, 0
866, 3694887768, 0.66589403, -0.033107158, -0.37130877, 0.646236, 0.5271848, 2.0236144, 2.3533125, 0
867, 3694904435, 0.67057174, 0.0012613498, -0.373592, 0.6409078, -0.33284298, 1.959602, 1.9903831, 0
868, 3694921102, 0.67352325, 0.03215986, -0.38020796, 0.633069, -0.61719704, 1.8391427, 2.303444, 0
869, 3694937769, 0.6756631, 0.058597542, -0.3901795, 0.62274224, -0.2575468, 1.4185061, 3.0370483, 0
870, 3694954436, 0.6772656, 0.0830047, -0.40050697, 0.61157, 0.3049678, 0.79382074, 3.665471, 0
871, 3694971103, 0.6777727, 0.10794775, -0.40840095, 0.6018157, 0.7555368, 0.18503928, 4.071788, 0
872, 3694987770, 0.6768302, 0.1345127, -0.41226923, 0.59484744, 0.756115, -0.157794, 4.047062, 0
873, 3695004437, 0.67470765, 0.16213998, -0.41267064, 0.5900722, 0.3918531, -0.40896836, 3.651225, 0
874, 3695021104, 0.67212087, 0.18904449, -0.41180962, 0.585603, -0.2941578, -0.584345, 3.1639175, 0
875, 3695037771, 0.6700349, 0.21324334, -0.41224924, 0.57933855, -0.6262453, -0.93344754, 2.795661, 0
876, 3695054438, 0.6690433, 0.23374069, -0.41515997, 0.5704301, -0.24769773, -1.5205262, 2.8577747, 0
877, 3695071105, 0.6687142, 0.2514649, -0.41950127, 0.56000674, 0.78972936, -2.38243, 3.444006, 0
878, 3695087772, 0.6682344, 0.2672748, -0.42360035, 0.5500836, 1.5552948, -3.2351053, 4.055092, 0
879, 3695104439, 0.66716844, 0.2810451, -0.42731765, 0.5415733, 1.8993546, -4.2022815, 4.272892, 0
880, 3695121106, 0.66607964, 0.2914803, -0.43131056, 0.5341822, 1.6481779, -4.7237697, 4.16282, 0
881, 3695137773, 0.6663216, 0.29651332, -0.43715763, 0.5262995, 0.9761034, -5.0238204, 3.7531195, 0
882, 3695154440, 0.6684345, 0.29549077, -0.4456409, 0.5169979, 0.8402818, -5.3663816, 3.406352, 0
883, 3695171107, 0.6715809, 0.28999975, -0.45556965, 0.5072845, 1.1350672, -5.704209, 3.0883436, 0
884, 3695187774, 0.6745185, 0.28225553, -0.46534276, 0.49881366, 1.0980843, -5.8996177, 2.665659, 0
885, 3695204441, 0.6770819, 0.2731888, -0.47443354, 0.49177536, 0.5899231, -5.897363, 2.1577282, 0
886, 3695221108, 0.6796804, 0.2630578, -0.48273024, 0.48560163, -0.10304618, -5.7129087, 1.7908363, 0
887, 3695237775, 0.6825165, 0.2519599, -0.49030045, 0.47989094, -0.380141, -5.72976, 1.5735645, 0
888, 3695254442, 0.6855281, 0.24039932, -0.49660516, 0.47502077, -0.8558608, -5.5888324, 1.5133514, 0
889, 3695271109, 0.6890065, 0.22773898, -0.5020555, 0.47047564, -1.2815928, -5.2825947, 1.4323425, 0
890, 3695287776, 0.693192, 0.21360314, -0.5068403, 0.46580425, -1.3504382, -4.953873, 1.4815769, 0
891, 3695304443, 0.6978219, 0.19784905, -0.51166236, 0.46054763, -1.0594074, -4.6962667, 1.5966091, 0
892, 3695321110, 0.7022228, 0.18029311, -0.51716155, 0.4548883, -0.37298188, -4.712453, 2.214161, 0
893, 3695337777, 0.7061789, 0.15985247, -0.52377, 0.44880462, 0.06761893, -4.6901975, 2.9919004, 0
894, 3695354444, 0.7097138, 0.13485086, -0.53186727, 0.44186085, 0.7318565, -4.602163, 3.9887266, 0
895, 3695371111, 0.71222746, 0.10487412, -0.5407217, 0.43515015, 1.6311958, -4.642237, 5.020261, 0
896, 3695387778, 0.7127972, 0.070893906, -0.5494321, 0.43014038, 2.1389117, -4.4849668, 5.7056446, 0
897, 3695404445, 0.71074945, 0.03363628, -0.5577291, 0.427369, 2.1514494, -3.7333713, 5.841817, 0
898, 3695421112, 0.705851, -0.005409592, -0.5656192, 0.42640603, 2.035777, -2.9957738, 5.694252, 0
899, 3695437779, 0.6976477, -0.04463768, -0.5734481, 0.42714694, 1.6721362, -2.0487776, 5.3417244, 0
900, 3695454446, 0.68613887, -0.08363994, -0.58141, 0.42916477, 1.3318703, -1.3567582, 5.287242, 0
901, 3695471113, 0.6720888, -0.12194703, -0.58840805, 0.4326706, 0.901257, -0.4475558, 5.471855, 0
902, 3695487780, 0.65551865, -0.16067131, -0.59457284, 0.4369957, 0.5713528, 0.58892703, 5.0459747, 0
903, 3695504447, 0.636013, -0.2004534, -0.6007861, 0.44086736, 0.58263034, 1.341717, 4.6716433, 0
904, 3695521114, 0.61320394, -0.24022038, -0.6070998, 0.4446426, 0.6871776, 1.8407971, 4.3205967, 0
905, 3695537781, 0.5880425, -0.2773851, -0.6126348, 0.449382, 0.66215044, 2.4578679, 4.2302923, 0
906, 3695554448, 0.5606122, -0.31203774, -0.6178726, 0.45451277, 0.7042004, 3.6244614, 3.609356, 0
907, 3695571115, 0.52941173, -0.34610072, -0.62391376, 0.45898962, 0.69110566, 4.2471333, 3.6926737, 0
908, 3695587782, 0.49466422, -0.37908754, -0.63018626, 0.4631062, 0.67471635, 4.968516, 3.1793842, 0
909, 3695604449, 0.45654696, -0.41044644, -0.63707453, 0.46608666, 0.80567926, 5.5630307, 1.8026571, 0
910, 3695621116, 0.41437933, -0.4399953, -0.6454164, 0.46704814, 0.5773156, 5.7654147, 1.2869654, 0
911, 3695637783, 0.3696629, -0.46699637, -0.653392, 0.46727374, -0.059674382, 6.457002, 1.434268, 0
912, 3695654450, 0.32256687, -0.49083915, -0.6599314, 0.46852985, -0.57675326, 6.1010337, 1.1807299, 0
913, 3695671117, 0.27582577, -0.50951356, -0.66289407, 0.47422564, -1.4740996, 5.7091675, 0.56757355, 0
914, 3695687784, 0.2336572, -0.522589, -0.6597177, 0.48690808, -2.2852666, 5.7361455, -0.7642689, 0
915, 3695704451, 0.19567277, -0.5318449, -0.6523281, 0.50331235, -1.0872518, 6.108434, -3.3819337, 0
916, 3695721118, 0.15711017, -0.53866166, -0.6450018, 0.5187821, -0.21677673, 5.4599495, -4.5243373, 0
917, 3695737785, 0.116969265, -0.54206675, -0.6389221, 0.5331627, -0.5402109, 4.516287, -4.751784, 0
918, 3695754452, 0.07809528, -0.5423037, -0.6317157, 0.54840255, -1.5561117, 4.009173, -5.0930476, 0
919, 3695771119, 0.042690374, -0.54066294, -0.62164, 0.56517845, -2.2151313, 3.4379244, -5.440136, 0
920, 3695787786, 0.010389624, -0.5382188, -0.6095049, 0.5819954, -1.9580593, 2.6695716, -5.9608526, 0
921, 3695804453, -0.020247217, -0.53445077, -0.59623295, 0.59871614, -1.8747104, 1.5510759, -6.057967, 0
922, 3695821120, -0.049103398, -0.5290909, -0.58203673, 0.615538, -1.8580072, 0.15661989, -6.1613674, 0
923, 3695837787, -0.07568435, -0.5228053, -0.56771004, 0.6313907, -1.6149886, -1.2769575, -6.6688037, 0
924, 3695854454, -0.0996346, -0.51631784, -0.5538028, 0.6455956, -1.4269832, -3.1879973, -6.9485183, 0
925, 3695871121, -0.120210834, -0.5101546, -0.54084647, 0.6578593, -0.91836613, -5.163254, -7.0092354, 0
926, 3695887788, -0.13700731, -0.50415295, -0.530134, 0.6678467, -0.3289022, -6.935098, -6.873131, 0
927, 3695904455, -0.14932819, -0.49860904, -0.5223286, 0.6754739, -0.03380343, -8.262246, -6.6167645, 0
928, 3695921122, -0.15655869, -0.49419555, -0.51725924, 0.68095887, -0.16434819, -9.07109, -6.0930796, 0
929, 3695937789, -0.15768601, -0.4917975, -0.5137413, 0.68508565, -0.5784225, -9.345802, -5.4980083, 0
930, 3695954456, -0.15260392, -0.49154, -0.5108445, 0.6885786, -0.74412626, -9.241519, -5.049271, 0
931, 3695971123, -0.14155026, -0.49284193, -0.5085191, 0.691723, -0.7334296, -8.684904, -5.0103335, 0
932, 3695987790, -0.12642108, -0.49474722, -0.508613, 0.6932229, -0.49198353, -8.038888, -5.352412, 0
933, 3696004457, -0.10832971, -0.4971459, -0.51215243, 0.69196284, -0.92156893, -7.066071, -5.4195075, 0
934, 3696021124, -0.08616916, -0.5007778, -0.5175373, 0.688443, -1.6812031, -5.6335554, -5.2693458, 0
935, 3696037791, -0.057521265, -0.50599617, -0.52178246, 0.68440086, -2.332255, -3.772143, -4.6853437, 0
936, 3696054458, -0.020718155, -0.5122643, -0.5217637, 0.681851, -2.342982, -2.0317197, -4.1911445, 0
937, 3696071125, 0.022264235, -0.5179542, -0.51701593, 0.68112004, -1.3065107, -0.7582557, -4.0723233, 0
938, 3696087792, 0.06586988, -0.5196443, -0.5109229, 0.68160886, -0.0823418, -0.629116, -3.962058, 0
939, 3696104459, 0.10810625, -0.5150514, -0.5056731, 0.6836168, -0.5320119, -0.11749034, -3.4661222, 0
940, 3696121126, 0.15230855, -0.5051058, -0.49787337, 0.68832755, -1.9448985, 0.9924038, -3.14532, 0
941, 3696137793, 0.20089611, -0.49344248, -0.4849879, 0.6935013, -2.4373088, 2.2615058, -3.4349055, 0
942, 3696154460, 0.2514247, -0.4815312, -0.4701766, 0.6955928, -1.5853298, 2.715529, -3.6465921, 0
943, 3696171127, 0.2996931, -0.46795294, -0.45787424, 0.69394344, -0.5795395, 2.556506, -3.2468324, 0
944, 3696187794, 0.34256497, -0.45120698, -0.44844994, 0.6913438, -0.24094664, 2.542251, -2.1574578, 0
945, 3696204461, 0.38307402, -0.42928267, -0.43581602, 0.6921252, -0.5011819, 2.805805, -0.994648, 0
946, 3696221128, 0.42508075, -0.40087608, -0.41823915, 0.695473, -0.44776395, 3.4960732, -1.1187449, 0
947, 3696237795, 0.46640512, -0.36819777, -0.400206, 0.6976633, -0.2991189, 3.9922874, -1.1007872, 0
948, 3696254462, 0.5023758, -0.33532354, -0.38565147, 0.69746107, -0.27498397, 3.9996026, -0.90624523, 0
949, 3696271129, 0.532584, -0.30397695, -0.3741793, 0.69566107, -0.2554393, 3.7286925, -0.757864, 0
950, 3696287796, 0.5597622, -0.27207586, -0.3619282, 0.694011, -0.09548831, 3.1844304, -1.0473566, 0
951, 3696304463, 0.58606315, -0.23626418, -0.35096362, 0.6910399, 0.27320346, 2.9694107, -0.72706413, 0
952, 3696321130, 0.608737, -0.19899178, -0.34495345, 0.6861856, -0.036374945, 3.33154, -0.016448021, 0
953, 3696337797, 0.6260131, -0.16566283, -0.34359834, 0.6801513, -0.022562068, 4.5327916, 1.6822691, 0
954, 3696354464, 0.6396701, -0.13691904, -0.34393868, 0.6736347, 0.40921468, 4.250779, 2.2746572, 0
955, 3696371131, 0.6519974, -0.10950645, -0.34251225, 0.6675294, 0.60058063, 3.4454644, 1.837945, 0
956, 3696387798, 0.6637205, -0.080312006, -0.34018803, 0.66128623, 0.70771533, 2.54313, 0.9058485, 0
957, 3696404465, 0.6735703, -0.050583955, -0.3428671, 0.6528312, 0.39729518, 2.2901757, 0.44533443, 0
958, 3696421132, 0.6805271, -0.023572847, -0.3535271, 0.6413642, 0.73134, 2.6350608, 1.7678747, 0
959, 3696437799, 0.6848388, -6.223032E-4, -0.3688186, 0.6284667, 1.2787163, 2.5474136, 3.1529446, 0
960, 3696454466, 0.6871142, 0.019491374, -0.3831283, 0.6170162, 1.6015979, 1.5771971, 4.049402, 0
961, 3696471133, 0.68877965, 0.040246412, -0.3917684, 0.60867274, 1.1639462, 0.67202175, 3.9645958, 0
962, 3696487800, 0.6905807, 0.06334882, -0.393273, 0.6036749, 0.13954853, 0.15937935, 2.9392262, 0
963, 3696504467, 0.6921384, 0.088910244, -0.38938928, 0.60117996, -0.7456665, -0.3124824, 1.6159792, 0
964, 3696521134, 0.69277173, 0.116767354, -0.38389087, 0.5992185, -1.594061, -0.6325431, 0.66329384, 0
965, 3696537801, 0.69277793, 0.14455193, -0.38141915, 0.59471416, -2.2270875, -0.5294575, 0.5809555, 0
966, 3696554468, 0.69304156, 0.16916695, -0.3839643, 0.5862162, -2.4497986, -0.39792514, 1.3031282, 0
967, 3696571135, 0.6945121, 0.1897506, -0.39067236, 0.573607, -2.0914428, -0.4906923, 2.336422, 0
968, 3696587802, 0.6968964, 0.2076558, -0.3990223, 0.5585678, -1.15576, -1.1820892, 3.4063635, 0
969, 3696604469, 0.69903517, 0.22490147, -0.4060905, 0.54393166, -0.30819553, -2.1443603, 4.20883, 0
970, 3696621136, 0.7008933, 0.24222493, -0.4100623, 0.5309678, 0.025328936, -2.7280586, 4.582177, 0
971, 3696637803, 0.7028763, 0.25852007, -0.41151157, 0.5194155, 0.13451815, -2.9665484, 4.4216337, 0
972, 3696654470, 0.7052077, 0.27213898, -0.41289178, 0.5080799, 0.16482739, -3.1669545, 3.9439993, 0
973, 3696671137, 0.7081068, 0.28198528, -0.4165857, 0.49550748, 0.38309047, -3.5619736, 3.6730318, 0
974, 3696687804, 0.7113951, 0.2874364, -0.42334753, 0.48174325, 0.83672744, -4.146412, 3.7568607, 0
975, 3696704471, 0.7148989, 0.28806892, -0.43280432, 0.46756655, 1.3938218, -4.807883, 4.000864, 0
976, 3696721138, 0.71866876, 0.28394818, -0.44324917, 0.45433566, 1.9584862, -5.4252934, 4.1662817, 0
977, 3696737805, 0.72249055, 0.27604368, -0.45279533, 0.44360554, 2.0843508, -5.805715, 3.925355, 0
978, 3696754472, 0.7259334, 0.26555198, -0.46065322, 0.43623814, 1.621452, -5.6782465, 3.3029785, 0
979, 3696771139, 0.7290641, 0.2532286, -0.4674322, 0.43110347, 0.96750623, -5.3147254, 2.6078482, 0
980, 3696787806, 0.7316244, 0.23922496, -0.47440925, 0.4271245, 0.4857035, -4.8894787, 2.0628014, 0
981, 3696804473, 0.7336844, 0.22330509, -0.48271117, 0.42288777, 0.20273072, -4.634719, 1.6949005, 0
982, 3696821140, 0.73527247, 0.20494708, -0.4926623, 0.4179201, 0.263832, -4.625396, 2.051443, 0
983, 3696837807, 0.7363514, 0.18320817, -0.50352794, 0.41313842, 0.6264281, -4.8237925, 2.8570147, 0
984, 3696854474, 0.7369997, 0.15810104, -0.514357, 0.40899238, 0.9647177, -4.8781996, 3.4788475, 0
985, 3696871141, 0.7371402, 0.12919024, -0.5250477, 0.40529123, 1.1811582, -4.6065593, 3.9082804, 0
986, 3696887808, 0.7364214, 0.09671786, -0.5355417, 0.40190348, 1.5529497, -4.3043337, 4.2642756, 0
987, 3696904475, 0.73412424, 0.061736472, -0.5452851, 0.39989564, 1.9141663, -3.9257307, 4.657545, 0
988, 3696921142, 0.7295195, 0.025561286, -0.5540985, 0.4001561, 1.9589726, -3.4242265, 4.7732964, 0
989, 3696937809, 0.72234935, -0.011255844, -0.5625608, 0.40201014, 1.7064294, -2.655244, 4.653592, 0
990, 3696954476, 0.7122661, -0.04927605, -0.571186, 0.40496594, 1.549314, -2.1532423, 4.796895, 0
991, 3696971143, 0.699871, -0.0875456, -0.57861096, 0.4095461, 1.3866302, -1.5983725, 5.450489, 0
992, 3696987810, 0.68545943, -0.1260245, -0.58432364, 0.41572982, 0.99463844, -0.6418251, 5.1503305, 0
993, 3697004477, 0.66871244, -0.16491848, -0.58934116, 0.4222615, 0.72103846, 0.19485267, 4.3707733, 0
994, 3697021144, 0.6494502, -0.2031476, -0.5945356, 0.42833978, 0.67972165, 0.73721445, 3.935504, 0
995, 3697037811, 0.6275787, -0.23969275, -0.59967697, 0.4348356, 0.5700367, 1.275212, 3.7193422, 0
996, 3697054478, 0.6033634, -0.27445787, -0.60420865, 0.4422212, 0.36379147, 1.966602, 3.263751, 0
997, 3697071145, 0.57735384, -0.30780655, -0.6081107, 0.44957933, 0.2166006, 2.6493003, 3.0784712, 0
998, 3697087812, 0.5495294, -0.33965942, -0.61118436, 0.45727968, 0.076605044, 3.1526985, 2.8419552, 0
999, 3697104479, 0.5190555, -0.37019134, -0.6144102, 0.46480325, 0.011416147, 3.646534, 2.3844233, 0
1000, 3697121146, 0.485482, -0.3995833, -0.61829287, 0.4715469, -0.074166514, 4.214824, 2.3908234, 0
1001, 3697137813, 0.44875452, -0.42777854, -0.62235117, 0.4778137, -0.053453572, 4.5956454, 1.7044821, 0
1002, 3697154480, 0.40890008, -0.45418045, -0.6271094, 0.48296666, 0.10363446, 5.108373, 0.9018898, 0
1003, 3697171147, 0.36526462, -0.47890925, -0.63309175, 0.48623526, -0.02706429, 5.47532, 0.96877766, 0
1004, 3697187814, 0.31859413, -0.50143623, -0.63847065, 0.48930252, -0.5197959, 5.662049, 1.041482, 0
1005, 3697204481, 0.27137005, -0.51996046, -0.64159024, 0.4943314, -1.0717804, 5.677752, 0.77780056, 0
1006, 3697221148, 0.2264866, -0.533638, -0.6400668, 0.504233, -1.7047651, 5.639266, -0.1140852, 0
1007, 3697237815, 0.18509501, -0.54305667, -0.63373643, 0.5188542, -1.7501156, 5.8238482, -1.6973944, 0
1008, 3697254482, 0.14577334, -0.5491356, -0.62410855, 0.5363684, -1.3969483, 5.029898, -3.316319, 0
1009, 3697271149, 0.1080671, -0.5521883, -0.6129202, 0.55474377, -1.2483925, 4.6454153, -4.832896, 0
1010, 3697287816, 0.07154128, -0.55322087, -0.60052335, 0.57288957, -1.5939655, 3.5263963, -5.2964664, 0
1011, 3697304483, 0.03783087, -0.5519061, -0.585941, 0.592152, -2.0355859, 2.3642197, -6.0541883, 0
1012, 3697321150, 0.0073661814, -0.5488542, -0.56941247, 0.61194485, -2.057216, 0.88616884, -6.8036013, 0
1013, 3697337817, -0.020182425, -0.5447744, -0.5523029, 0.63069576, -1.6058643, -0.8125533, -7.625018, 0
1014, 3697354484, -0.045751836, -0.539593, -0.5368188, 0.64697284, -1.109253, -3.0314674, -7.894573, 0
1015, 3697371151, -0.06911376, -0.5333371, -0.5244724, 0.66008013, -0.9780966, -4.8518243, -7.8926477, 0
1016, 3697387818, -0.0888137, -0.52705806, -0.5149712, 0.67017066, -0.9491041, -6.5688972, -7.7324924, 0
1017, 3697404485, -0.10339596, -0.5219842, -0.50805116, 0.6772945, -0.7988977, -7.7267427, -7.517993, 0
1018, 3697421152, -0.11261781, -0.51854897, -0.50329614, 0.6819968, -0.40111947, -8.558908, -6.98582, 0
1019, 3697437819, -0.11648687, -0.5160193, -0.5008558, 0.685055, -0.21678053, -8.76188, -6.3061666, 0
1020, 3697454486, -0.114675336, -0.5141942, -0.50008625, 0.6872916, -0.4958199, -8.512321, -5.8064294, 0
1021, 3697471153, -0.107203215, -0.513442, -0.5002076, 0.68896973, -0.91544044, -7.940745, -5.410483, 0
1022, 3697487820, -0.094060384, -0.51398396, -0.50098634, 0.6899189, -1.3747737, -7.0058293, -5.1753488, 0
1023, 3697504487, -0.07580234, -0.5158866, -0.5021212, 0.6899215, -1.6068255, -5.983605, -5.0177245, 0
1024, 3697521154, -0.052883722, -0.5187357, -0.5032681, 0.6890864, -1.8021225, -5.218239, -4.640332, 0
1025, 3697537821, -0.023473172, -0.5223244, -0.5029588, 0.6882302, -2.3396964, -4.198544, -4.3680573, 0
1026, 3697554488, 0.014082686, -0.5265166, -0.49899894, 0.68817455, -2.519511, -2.4935863, -4.2388744, 0
1027, 3697571155, 0.058513798, -0.5301545, -0.49003187, 0.6894805, -2.214665, -0.6404343, -3.4385033, 0
1028, 3697587822, 0.10738441, -0.53133154, -0.4756068, 0.69278824, -1.4772166, 0.72598004, -2.6764865, 0
1029, 3697604489, 0.15803148, -0.5280529, -0.45631394, 0.6985456, -0.66927063, 0.7935584, -2.0663347, 0
1030, 3697621156, 0.21056727, -0.518954, -0.43194225, 0.7069486, -0.16261154, 0.46324363, -2.405511, 0
1031, 3697637823, 0.26522, -0.5041698, -0.40428364, 0.71556133, 0.14791468, 0.4992088, -3.586649, 0
1032, 3697654490, 0.31883785, -0.4858904, -0.3778729, 0.7207407, 0.094922714, 0.72309244, -4.3423567, 0
1033, 3697671157, 0.3682049, -0.4656026, -0.3564946, 0.72149366, -0.23184663, 1.1863265, -3.665133, 0
1034, 3697687824, 0.41194198, -0.44309843, -0.34017283, 0.7198975, -0.5030975, 1.2012006, -2.8129578, 0
1035, 3697704491, 0.4498781, -0.4182439, -0.32751796, 0.7179248, -0.87226814, 1.2796475, -2.5853825, 0
1036, 3697721158, 0.48265138, -0.39206168, -0.31909192, 0.7152048, -1.5475229, 1.435549, -2.9111166, 0
1037, 3697737825, 0.5111273, -0.3666288, -0.3182729, 0.7092508, -1.9962181, 2.1282375, -2.571466, 0
1038, 3697754492, 0.5361525, -0.34322888, -0.32486424, 0.69942826, -1.9254209, 2.9956279, -1.3914452, 0
1039, 3697771159, 0.559276, -0.3208732, -0.33475265, 0.68716335, -1.4367077, 3.479567, -0.19424534, 0
1040, 3697787826, 0.58177173, -0.29840156, -0.34199387, 0.67493755, -0.98267037, 4.213084, 1.7407961, 0
1041, 3697804493, 0.6040874, -0.27515122, -0.3427786, 0.6647369, -0.6164899, 4.165234, 2.6721048, 0
1042, 3697821160, 0.625408, -0.25137925, -0.34182525, 0.654852, -0.43238, 3.5253537, 2.113474, 0
1043, 3697837827, 0.6436391, -0.22967853, -0.3449224, 0.643434, -0.5306242, 2.9842682, 0.9013138, 0
1044, 3697854494, 0.6592268, -0.21019696, -0.35359797, 0.62945056, -0.1834952, 2.5241685, 0.5904627, 0
1045, 3697871161, 0.6727599, -0.19125769, -0.3647084, 0.614658, 0.25614026, 2.2476974, 1.3330564, 0
1046, 3697887828, 0.68541706, -0.17151651, -0.37338564, 0.60114115, 0.3857333, 2.275749, 2.0444288, 0
1047, 3697904495, 0.6978012, -0.1511903, -0.37889028, 0.58877784, 0.41343394, 2.2568386, 2.5495481, 0
1048, 3697921162, 0.7094466, -0.13134162, -0.38310206, 0.5767755, 0.46391723, 1.9515265, 2.4797497, 0
1049, 3697937829, 0.7197331, -0.112512745, -0.3885572, 0.5642258, 0.65183485, 1.3657044, 2.0428877, 0
1050, 3697954496, 0.7283681, -0.09492269, -0.39639682, 0.5507643, 0.6684528, 1.0001345, 1.6510143, 0
1051, 3697971163, 0.73569447, -0.078209996, -0.4054868, 0.5368607, 0.55298716, 0.9587061, 1.4032097, 0
1052, 3697987830, 0.74240774, -0.0617674, -0.4139544, 0.5231247, 0.26546678, 0.97954184, 1.323844, 0
1053, 3698004497, 0.7490373, -0.044224247, -0.4206065, 0.5099801, -0.0893131, 0.77012026, 1.2212553, 0
1054, 3698021164, 0.7561407, -0.024543842, -0.42499816, 0.49701875, -0.4126695, 0.83659774, 0.82348824, 0
1055, 3698037831, 0.76332337, -0.0033118404, -0.428259, 0.48365563, -0.3650096, 0.8654177, 0.4516163, 0
1056, 3698054498, 0.77014756, 0.01977589, -0.43080777, 0.4699877, 0.28087845, 0.66806006, 1.0571966, 0
1057, 3698071165, 0.77618265, 0.046240013, -0.4310621, 0.45781025, 1.0091035, 0.3637448, 1.8770084, 0
1058, 3698087832, 0.780647, 0.07599797, -0.42906874, 0.4480143, 1.2390099, 0.12977788, 2.024454, 0
1059, 3698104499, 0.7827499, 0.10773116, -0.42706665, 0.4396734, 1.0630164, -0.21471219, 2.1094341, 0
1060, 3698121166, 0.78244317, 0.13986102, -0.42677212, 0.43138054, 0.769729, -0.65241003, 2.7372093, 0
1061, 3698137833, 0.7803114, 0.17069629, -0.42846602, 0.4223692, 0.6990247, -1.5481663, 3.7608843, 0
1062, 3698154500, 0.7769413, 0.1989544, -0.43157622, 0.41294497, 0.9063705, -2.9398308, 4.7992754, 0
1063, 3698171167, 0.7730731, 0.22321728, -0.43532792, 0.403762, 1.3688608, -4.4321637, 5.414564, 0
1064, 3698187834, 0.76946014, 0.2423803, -0.43919542, 0.39533812, 1.9490142, -5.5597806, 5.398793, 0
1065, 3698204501, 0.7664221, 0.2546462, -0.44343284, 0.38874424, 2.2305033, -6.0266232, 4.9430285, 0
1066, 3698221168, 0.764155, 0.2589719, -0.44788343, 0.38523167, 2.0563264, -6.157428, 4.313691, 0
1067, 3698237835, 0.7626754, 0.2581292, -0.45195845, 0.383968, 1.1190239, -6.0539536, 3.3005924, 0
1068, 3698254502, 0.76164126, 0.254811, -0.4559099, 0.38356528, 0.0065145087, -5.6168733, 2.345971, 0
1069, 3698271169, 0.7611677, 0.24944569, -0.46006078, 0.38307548, -0.72797096, -5.1680584, 1.8024979, 0
1070, 3698287836, 0.76158535, 0.24164319, -0.46459344, 0.38177413, -1.2021202, -4.9038553, 1.4229126, 0
1071, 3698304503, 0.7630015, 0.23106226, -0.47007123, 0.37877986, -1.4713368, -4.697295, 1.1320543, 0
1072, 3698321170, 0.76527536, 0.21692722, -0.47713724, 0.37368226, -1.1072657, -4.67721, 1.269558, 0
1073, 3698337837, 0.7679748, 0.19912387, -0.48533282, 0.3674489, -0.41611853, -4.894394, 1.7637968, 0
1074, 3698354504, 0.77041954, 0.17797042, -0.49418297, 0.36133856, 0.33783627, -5.072909, 2.2474375, 0
1075, 3698371171, 0.77212644, 0.15360439, -0.5035044, 0.35596615, 0.99165636, -5.1504655, 2.8248377, 0
1076, 3698387838, 0.77261376, 0.1258621, -0.513324, 0.35174897, 1.3750285, -5.136257, 3.3705406, 0
1077, 3698404505, 0.77157897, 0.09497136, -0.52355593, 0.34862253, 1.4423344, -4.9486117, 3.9151754, 0
1078, 3698421172, 0.7686854, 0.061557278, -0.5334644, 0.347493, 1.6352897, -4.875286, 4.628256, 0
1079, 3698437839, 0.76420695, 0.027003894, -0.54153854, 0.34928063, 1.6056844, -4.599857, 5.2667007, 0
1080, 3698454506, 0.7583903, -0.007645697, -0.5471803, 0.35409266, 1.5134737, -3.9043186, 5.557192, 0
1081, 3698471173, 0.7507568, -0.04270128, -0.5513877, 0.36126843, 1.40636, -2.9527984, 5.4660435, 0
1082, 3698487840, 0.74053717, -0.079077356, -0.5557775, 0.36941177, 1.3543562, -2.007988, 5.444783, 0
1083, 3698504507, 0.72688115, -0.117354326, -0.5615547, 0.37753183, 1.3212209, -1.2268758, 5.5237026, 0
1084, 3698521174, 0.7096201, -0.15718782, -0.5685906, 0.38527682, 1.1409487, -0.2602253, 5.587263, 0
1085, 3698537841, 0.6887599, -0.19855711, -0.5762046, 0.39265168, 0.9555773, 0.5939784, 5.659856, 0
1086, 3698554508, 0.6647973, -0.23996428, -0.58343333, 0.40008658, 0.8278303, 1.4225371, 5.556754, 0
1087, 3698571175, 0.6377715, -0.2806598, -0.5901742, 0.40764466, 0.88617253, 2.359211, 5.559313, 0
1088, 3698587842, 0.60716814, -0.3204713, -0.59613436, 0.41625842, 0.65096, 2.981866, 4.926859, 0
1089, 3698604509, 0.5737423, -0.35772857, -0.60107327, 0.4261022, 0.28656864, 3.6380653, 3.9605045, 0
1090, 3698621176, 0.5386584, -0.39145106, -0.604586, 0.43713978, -0.021094706, 4.3355155, 3.0320816, 0
1091, 3698637843, 0.50188017, -0.42224765, -0.6072202, 0.4484516, -0.033577904, 4.8994203, 1.7716389, 0
1092, 3698654510, 0.4620202, -0.45103648, -0.6105711, 0.45859408, 0.054950215, 4.9784365, 0.8619251, 0
1093, 3698671177, 0.41976014, -0.47691128, -0.6135642, 0.46893305, -0.44043183, 5.217377, 0.43432903, 0
1094, 3698687844, 0.3765589, -0.4993697, -0.61547303, 0.4796127, -0.8279834, 5.5172777, -0.3383379, 0
1095, 3698704511, 0.333148, -0.51815724, -0.6160628, 0.49091175, -0.99300593, 5.400015, -1.2867031, 0
1096, 3698721178, 0.29052353, -0.53318214, -0.6149393, 0.50315464, -1.1861904, 5.3694034, -1.9156122, 0
1097, 3698737845, 0.24830145, -0.54526687, -0.6131338, 0.5148782, -0.7117902, 5.6455207, -2.787107, 0
1098, 3698754512, 0.20358591, -0.5553992, -0.612533, 0.5242994, -0.13934378, 6.0830474, -3.0055184, 0
1099, 3698771179, 0.15462524, -0.5629388, -0.6139436, 0.53128743, 0.11721891, 5.8994584, -2.5792556, 0
1100, 3698787846, 0.1050916, -0.5657096, -0.6136906, 0.5406609, -1.6024185, 4.8876963, -2.1512547, 0
1101, 3698804513, 0.06192226, -0.5641114, -0.60738117, 0.5559083, -3.1056476, 4.1858854, -3.670836, 0
1102, 3698821180, 0.026605498, -0.56089735, -0.59437853, 0.57567596, -3.1086893, 2.6123695, -6.003275, 0
1103, 3698837847, -0.004304777, -0.556828, -0.5788631, 0.5956876, -1.923354, 0.43873572, -7.7542152, 0
1104, 3698854514, -0.0326683, -0.55158824, -0.5641648, 0.61351734, -1.5476911, -1.6781187, -8.484852, 0
1105, 3698871181, -0.058571175, -0.5458311, -0.5516575, 0.62794423, -1.4302458, -3.5901535, -8.717918, 0
1106, 3698887848, -0.08143805, -0.5400981, -0.5418437, 0.63880324, -1.2870772, -5.1233, -8.544497, 0
1107, 3698904515, -0.10039924, -0.53482306, -0.53427786, 0.64686465, -1.3147869, -6.5164824, -7.8559513, 0
1108, 3698921182, -0.11350306, -0.5301875, -0.5276506, 0.6539155, -1.5045686, -7.6671014, -7.1115975, 0
1109, 3698937849, -0.12000757, -0.52672064, -0.5213933, 0.6605411, -1.1752231, -8.687448, -6.810316, 0
1110, 3698954516, -0.121068746, -0.5242435, -0.51733756, 0.6654886, -0.7458562, -9.269458, -6.613435, 0
1111, 3698971183, -0.1174585, -0.5229438, -0.5163281, 0.6679377, -0.8881363, -9.318974, -6.210778, 0
1112, 3698987850, -0.108993664, -0.5230356, -0.5177508, 0.6681995, -1.353773, -8.757307, -5.8526325, 0
1113, 3699004517, -0.09554547, -0.5246807, -0.5209315, 0.6664936, -1.6720483, -7.73771, -5.597561, 0
1114, 3699021184, -0.07801844, -0.52744186, -0.5256459, 0.6628852, -1.7992301, -6.6701236, -5.290699, 0
1115, 3699037851, -0.056506526, -0.53090876, -0.53094447, 0.6580603, -2.0939507, -5.6833467, -5.0461626, 0
1116, 3699054518, -0.030445136, -0.53470534, -0.53588027, 0.6526849, -2.2844589, -4.650529, -4.837262, 0
1117, 3699071185, 6.3028E-4, -0.53798836, -0.5395692, 0.6476383, -2.435362, -3.493321, -4.6110005, 0
1118, 3699087852, 0.03705904, -0.5401345, -0.5410448, 0.643548, -2.4526, -1.8907654, -4.6340303, 0
1119, 3699104519, 0.07713492, -0.54092985, -0.54072964, 0.63957703, -2.0476723, -0.48133242, -4.4515314, 0
1120, 3699121186, 0.119981125, -0.5405125, -0.53837705, 0.63529766, -2.4308367, 1.2856941, -3.4749646, 0
1121, 3699137853, 0.16805398, -0.53923047, -0.52901936, 0.6333475, -3.4018779, 3.4832075, -1.0797119, 0
1122, 3699154520, 0.22705646, -0.53552115, -0.5047652, 0.6378689, -3.415072, 5.6133313, 1.8492908, 0
1123, 3699171187, 0.29690847, -0.5244343, -0.4635629, 0.64955807, -0.10276321, 5.941551, 2.597433, 0
1124, 3699187854, 0.3662633, -0.5029078, -0.41534254, 0.6636473, 3.2954965, 3.156539, -0.046214104, 0
1125, 3699204521, 0.42269877, -0.47312877, -0.37462282, 0.6761176, 3.397939, 0.04889343, -3.0077553, 0
1126, 3699221188, 0.46628502, -0.4384759, -0.3473035, 0.6853463, 1.4891078, -0.47847414, -4.2833815, 0
1127, 3699237855, 0.5025062, -0.40419793, -0.32778326, 0.6904143, -0.55160797, 1.8786023, -3.6140032, 0
1128, 3699254522, 0.5356704, -0.37108237, -0.31261894, 0.6911054, -0.97602016, 2.8486826, -1.8053732, 0
1129, 3699271189, 0.56509614, -0.33825696, -0.30452183, 0.68812567, -1.0579934, 2.4941576, -1.049223, 0
1130, 3699287856, 0.5893947, -0.3069422, -0.30543056, 0.68199337, -1.1016707, 2.1895795, -1.2918615, 0
1131, 3699304523, 0.61016876, -0.27765912, -0.31240472, 0.6730564, -1.0413846, 2.1934953, -1.6708231, 0
1132, 3699321190, 0.6291248, -0.250408, -0.3194932, 0.66289055, -0.6909624, 3.2096398, -0.8952913, 0
1133, 3699337857, 0.6471832, -0.22416897, -0.3218843, 0.6536779, -0.31501156, 3.7613833, 0.4367733, 0
1134, 3699354524, 0.6654071, -0.19464336, -0.32060197, 0.6454177, 0.12929554, 3.003803, 1.4313974, 0
1135, 3699371191, 0.68281525, -0.16176672, -0.31737944, 0.63786143, -0.04919967, 3.167711, 1.7290468, 0
1136, 3699387858, 0.69774956, -0.12846977, -0.31481412, 0.6305041, -0.63061947, 3.2038789, 1.2296228, 0
1137, 3699404525, 0.7106851, -0.09705422, -0.31613085, 0.6209433, -1.0545312, 2.9189901, 0.1293068, 0
1138, 3699421192, 0.72218347, -0.06965971, -0.32322273, 0.607559, -1.2281665, 3.0820158, -0.36635017, 0
1139, 3699437859, 0.73203343, -0.048196476, -0.33634228, 0.5904915, -0.8256813, 3.2005296, -0.16588783, 0
1140, 3699454526, 0.7403166, -0.03246383, -0.35484943, 0.57005394, 0.17496729, 2.9452837, 0.7761383, 0
1141, 3699471193, 0.74734646, -0.019619342, -0.37616974, 0.5473453, 1.351735, 2.282092, 2.0323658, 0
1142, 3699487860, 0.7530415, -0.005757907, -0.39682332, 0.52481294, 2.0652902, 1.3045816, 2.8802795, 0
1143, 3699504527, 0.75744027, 0.01281058, -0.4139189, 0.5047706, 1.8874228, 0.33298725, 3.2873955, 0
1144, 3699521194, 0.76086223, 0.036886536, -0.4256813, 0.48839092, 1.2592582, 0.07289635, 3.602683, 0
1145, 3699537861, 0.7632969, 0.0629672, -0.4322684, 0.4759825, 0.41755036, 0.14804736, 3.5158968, 0
1146, 3699554528, 0.76549095, 0.08922509, -0.43628272, 0.46445888, -0.15591772, -0.24476026, 2.9360037, 0
1147, 3699571195, 0.7672113, 0.11518657, -0.44028145, 0.45196575, -0.4883843, -0.5868748, 2.7473192, 0
1148, 3699587862, 0.7680902, 0.14090529, -0.4451903, 0.43816772, -0.40484545, -1.1444447, 3.1487942, 0
1149, 3699604529, 0.7680985, 0.16624106, -0.45088243, 0.4231972, -0.19837579, -1.7266903, 3.7796116, 0
1150, 3699621196, 0.767437, 0.18993229, -0.45696428, 0.40761724, 0.15685648, -2.5680463, 4.433033, 0
1151, 3699637863, 0.766595, 0.21053605, -0.4628854, 0.39210445, 0.8011442, -3.8331206, 4.9561186, 0
1152, 3699654530, 0.7661022, 0.22700615, -0.46771768, 0.37788618, 1.6962702, -5.2644434, 5.281951, 0
1153, 3699671197, 0.76599485, 0.23915218, -0.47108313, 0.3662526, 2.6648037, -6.6498218, 5.184925, 0
1154, 3699687864, 0.7656196, 0.24702518, -0.47357, 0.35852322, 3.0950058, -7.4914255, 4.727296, 0
1155, 3699704531, 0.765081, 0.24961467, -0.47608522, 0.35452595, 2.6543822, -7.313073, 3.9765596, 0
1156, 3699721198, 0.76492006, 0.24643046, -0.47961438, 0.35233727, 1.4824456, -6.634145, 3.04959, 0
1157, 3699737865, 0.765259, 0.23829876, -0.48469713, 0.35023305, 0.31680995, -6.028312, 2.3517485, 0
1158, 3699754532, 0.7659892, 0.22683436, -0.4905738, 0.34806073, -0.4521694, -5.58001, 2.0035744, 0
1159, 3699771199, 0.7672421, 0.21335456, -0.49624822, 0.34577367, -0.8295683, -5.2227, 1.7359743, 0
1160, 3699787866, 0.76912874, 0.19840497, -0.5013113, 0.34317017, -0.9248528, -4.8202596, 1.5258741, 0
1161, 3699804533, 0.7712569, 0.18205996, -0.50617635, 0.3403011, -0.5282537, -4.8092227, 1.613842, 0
1162, 3699821200, 0.7731531, 0.16386726, -0.5110758, 0.33791324, -0.04394399, -4.7875876, 2.0278454, 0
